condsFile,subStage,cue1,cue2,correct,responseKeys,responseNames,cue1Position,cue2Position,cue1Opacity,cue2Opacity,stageLoop0.thisRepN,stageLoop0.thisTrialN,stageLoop0.thisN,stageLoop0.thisIndex,blockLoop0.thisRepN,blockLoop0.thisTrialN,blockLoop0.thisN,blockLoop0.thisIndex,stage1Loop.thisRepN,stage1Loop.thisTrialN,stage1Loop.thisN,stage1Loop.thisIndex,blockLoop1.thisRepN,blockLoop1.thisTrialN,blockLoop1.thisN,blockLoop1.thisIndex,stage2Loop.thisRepN,stage2Loop.thisTrialN,stage2Loop.thisN,stage2Loop.thisIndex,blockLoop2.thisRepN,blockLoop2.thisTrialN,blockLoop2.thisN,blockLoop2.thisIndex,testLoop.thisRepN,testLoop.thisTrialN,testLoop.thisN,testLoop.thisIndex,blockLoopTest.thisRepN,blockLoopTest.thisTrialN,blockLoopTest.thisN,blockLoopTest.thisIndex,cuePics,id_instr_text.started,id_instr_text.stopped,space_to_continue_2.started,space_to_continue_2.stopped,end_instructions_resp_3.keys,end_instructions_resp_3.rt,end_instructions_resp_3.started,end_instructions_resp_3.stopped,id_input_instr.started,id_input_instr.stopped,id_input_rect.started,id_input_rect.stopped,id_input_resp.keys,id_input_resp.rt,id_input_resp.started,id_input_resp.stopped,sonaID,id_input_text.started,id_input_text.stopped,final_text.started,final_text.stopped,instructions.started,instructions.stopped,end_instructions_resp.keys,end_instructions_resp.rt,end_instructions_resp.started,end_instructions_resp.stopped,space_to_continue.started,space_to_continue.stopped,instructions_stage0.started,instructions_stage0.stopped,end_instructions_resp_stage0.keys,end_instructions_resp_stage0.rt,end_instructions_resp_stage0.started,end_instructions_resp_stage0.stopped,space_to_continue_stage0.started,space_to_continue_stage0.stopped,text.started,text.stopped,resp_text1.started,resp_text1.stopped,resp_text2.started,resp_text2.stopped,trial_resp.keys,trial_resp.corr,trial_resp.rt,trial_resp.started,trial_resp.stopped,cue1Image.started,cue1Image.stopped,cue2Image.started,cue2Image.stopped,cue1Image_fb.started,cue1Image_fb.stopped,cue2Image_fb.started,cue2Image_fb.stopped,fb_text_answer.started,fb_text_answer.stopped,feedback_image.started,feedback_image.stopped,instructions_stage1.started,instructions_stage1.stopped,end_instructions_resp_stage1.keys,end_instructions_resp_stage1.rt,end_instructions_resp_stage1.started,end_instructions_resp_stage1.stopped,space_to_continue_stage1.started,space_to_continue_stage1.stopped,instructions_2.started,instructions_2.stopped,end_instructions_resp_2.keys,end_instructions_resp_2.rt,end_instructions_resp_2.started,end_instructions_resp_2.stopped,press_space_to_continue_stage2.started,press_space_to_continue_stage2.stopped,instructions_testStage1.started,instructions_testStage1.stopped,end_instructions_resp_test1.keys,end_instructions_resp_test1.rt,end_instructions_resp_test1.started,end_instructions_resp_test1.stopped,press_space_to_continue_test1.started,press_space_to_continue_test1.stopped,cue1Image_testChoice.started,cue1Image_testChoice.stopped,cue2Image_testChoice.started,cue2Image_testChoice.stopped,test_resp.keys,test_resp.corr,test_resp.rt,test_resp.started,test_resp.stopped,cue1Image_testConf.started,cue1Image_testConf.stopped,cue2Image_testConf.started,cue2Image_testConf.stopped,conf_reminder.started,conf_reminder.stopped,conf_rating.response,conf_rating.rt,conf_rating.started,conf_rating.stopped,session,participant,date,expName,psychopyVersion,frameRate,
,,,,,,,,,,,,,,,,,,,,,,,,,,,,,,,,,,,,,,,,,,,"{'none': 'pictures/20M_AN_C.png', 'alpha': 'pictures/SHINEd_apple.png', 'beta': 'pictures/SHINEd_pear.png', 'theta': 'pictures/SHINEd_pepper.png', 'phi': 'pictures/SHINEd_melon.png', 'T1': 'pictures/33M_AN_C.png', 'T2': 'pictures/36M_AN_C.png', 'T3': 'pictures/22M_AN_C.png', 'T4': 'pictures/23M_AN_C.png', 'T5': 'pictures/25M_AN_C.png', 'T6': 'pictures/34M_AN_C.png', 'B1': 'pictures/20M_NE_C.png', 'B2': 'pictures/38M_NE_C.png', 'B3': 'pictures/31M_NE_C.png', 'B4': 'pictures/37M_NE_C.png', 'B5': 'pictures/26M_NE_C.png', 'B6': 'pictures/32M_NE_C.png'}",9.370645528999376,None,14.354058701001122,None,space,22.805104786999436,14.354058701001122,None,,,,,,,,,,,,,,,,,,,,,,,,,,,,,,,,,,,,,,,,,,,,,,,,,,,,,,,,,,,,,,,,,,,,,,,,,,,,,,,,,,,,,,,,,,,,,,,,001,152,2020_Feb_20_1218,spring_faces,3.2.3,60.001365751105155,
,,,,,,,,,,,,,,,,,,,,,,,,,,,,,,,,,,,,,,,,,,,,,,,,,,,,37.55405838400111,None,37.55405838400111,None,"['1', '0', '0', '2', 'c', 'a', 's', 'a', 'backspace', 'backspace', 's', 'a', 'n']","[4.885009404000812, 4.965196102000846, 9.237095239001064, 9.34921032300008, 15.78119350400084, 15.893112264000592, 18.03706783800044, 18.165197820000685, 20.437064839999948, 21.55708727900128, 28.35709778599994, 28.613143032000153, 29.077111794000302]",37.55405838400111,None,,,,,,,,,,,,,,,,,,,,,,,,,,,,,,,,,,,,,,,,,,,,,,,,,,,,,,,,,,,,,,,,,,,,,,,,,,,,,,,,,,,,,,,,001,152,2020_Feb_20_1218,spring_faces,3.2.3,60.001365751105155,
,,,,,,,,,,,,,,,,,,,,,,,,,,,,,,,,,,,,,,,,,,,,,,,,,,,,,,,,,,,,1002casan,37.55405838400111,None,37.55405838400111,None,71.68739597700005,None,space,2.840450654999586,76.67071727800067,None,,,,,,,,,,,,,,,,,,,,,,,,,,,,,,,,,,,,,,,,,,,,,,,,,,,,,,,,,,,,,,,,,,,,,,,,,,,,,001,152,2020_Feb_20_1218,spring_faces,3.2.3,60.001365751105155,
,,,,,,,,,,,,,,,,,,,,,,,,,,,,,,,,,,,,,,,,,,,,,,,,,,,,,,,,,,,,,,,,,,,,,,,76.67071727800067,None,79.53739048900024,None,space,2.558495266999671,84.52069795399984,None,,,,,,,,,,,,,,,,,,,,,,,,,,,,,,,,,,,,,,,,,,,,,,,,,,,,,,,,,,,,,,,,,,,,,001,152,2020_Feb_20_1218,spring_faces,3.2.3,60.001365751105155,
condition files/Stage0a.xlsx,0a,alpha,none,h,"['h', 'g']","['Chess', 'Go']","[0, 0.5]","[0, 0]",1,0,0,0,0,0,0,0,0,0,,,,,,,,,,,,,,,,,,,,,,,,,,,,,,,,,,,,,,,,,,,,,,,,,,,,,,,,,,,,,84.52069795399984,None,87.13739244799945,None,87.13739244799945,None,87.13739244799945,None,h,1,3.5904223960005766,88.72073944499971,None,88.72073944499971,None,88.72073944499971,None,92.3873738630009,None,92.3873738630009,None,92.3873738630009,None,92.3873738630009,None,,,,,,,,,,,,,,,,,,,,,,,,,,,,,,,,,,,,,,,,,,,,001,152,2020_Feb_20_1218,spring_faces,3.2.3,60.001365751105155,
condition files/Stage0a.xlsx,0a,beta,none,g,"['h', 'g']","['Chess', 'Go']","[0, 0.5]","[0, 0]",1,0,0,0,0,0,0,1,1,1,,,,,,,,,,,,,,,,,,,,,,,,,,,,,,,,,,,,,,,,,,,,,,,,,,,,,,,,,,,,,,,94.35407848599971,None,94.35407848599971,None,94.35407848599971,None,g,1,2.2318268889994215,95.88740838200101,None,95.88740838200101,None,95.88740838200101,None,98.18739851300052,None,98.18739851300052,None,98.18739851300052,None,98.18739851300052,None,,,,,,,,,,,,,,,,,,,,,,,,,,,,,,,,,,,,,,,,,,,,001,152,2020_Feb_20_1218,spring_faces,3.2.3,60.001365751105155,
condition files/Stage0a.xlsx,0a,alpha,none,h,"['h', 'g']","['Chess', 'Go']","[0, 0.5]","[0, 0]",1,0,0,1,1,1,0,0,0,0,,,,,,,,,,,,,,,,,,,,,,,,,,,,,,,,,,,,,,,,,,,,,,,,,,,,,,,,,,,,,,,100.17067702799977,None,100.17067702799977,None,100.17067702799977,None,h,1,1.103135249000843,101.70402825100064,None,101.70402825100064,None,101.70402825100064,None,102.88740614800008,None,102.88740614800008,None,102.88740614800008,None,102.88740614800008,None,,,,,,,,,,,,,,,,,,,,,,,,,,,,,,,,,,,,,,,,,,,,001,152,2020_Feb_20_1218,spring_faces,3.2.3,60.001365751105155,
condition files/Stage0a.xlsx,0a,beta,none,g,"['h', 'g']","['Chess', 'Go']","[0, 0.5]","[0, 0]",1,0,0,1,1,1,0,1,1,1,,,,,,,,,,,,,,,,,,,,,,,,,,,,,,,,,,,,,,,,,,,,,,,,,,,,,,,,,,,,,,,104.8540912059998,None,104.8540912059998,None,104.8540912059998,None,g,1,0.7236526830001822,106.38743028099998,None,106.38743028099998,None,106.38743028099998,None,107.17069212600109,None,107.17069212600109,None,107.17069212600109,None,107.17069212600109,None,,,,,,,,,,,,,,,,,,,,,,,,,,,,,,,,,,,,,,,,,,,,001,152,2020_Feb_20_1218,spring_faces,3.2.3,60.001365751105155,
condition files/Stage0a.xlsx,0a,beta,none,g,"['h', 'g']","['Chess', 'Go']","[0, 0.5]","[0, 0]",1,0,0,2,2,2,0,0,0,1,,,,,,,,,,,,,,,,,,,,,,,,,,,,,,,,,,,,,,,,,,,,,,,,,,,,,,,,,,,,,,,109.1707383060002,None,109.1707383060002,None,109.1707383060002,None,g,1,0.6950865119997616,110.70408056999986,None,110.70408056999986,None,110.70408056999986,None,111.45405762500013,None,111.45405762500013,None,111.45405762500013,None,111.45405762500013,None,,,,,,,,,,,,,,,,,,,,,,,,,,,,,,,,,,,,,,,,,,,,001,152,2020_Feb_20_1218,spring_faces,3.2.3,60.001365751105155,
condition files/Stage0a.xlsx,0a,alpha,none,h,"['h', 'g']","['Chess', 'Go']","[0, 0.5]","[0, 0]",1,0,0,2,2,2,0,1,1,0,,,,,,,,,,,,,,,,,,,,,,,,,,,,,,,,,,,,,,,,,,,,,,,,,,,,,,,,,,,,,,,113.43740174400045,None,113.43740174400045,None,113.43740174400045,None,h,1,0.6684176779999689,114.9706757340009,None,114.9706757340009,None,114.9706757340009,None,115.70400762899953,None,115.70400762899953,None,115.70400762899953,None,115.70400762899953,None,,,,,,,,,,,,,,,,,,,,,,,,,,,,,,,,,,,,,,,,,,,,001,152,2020_Feb_20_1218,spring_faces,3.2.3,60.001365751105155,
condition files/Stage0a.xlsx,0a,beta,none,g,"['h', 'g']","['Chess', 'Go']","[0, 0.5]","[0, 0]",1,0,0,3,3,3,0,0,0,1,,,,,,,,,,,,,,,,,,,,,,,,,,,,,,,,,,,,,,,,,,,,,,,,,,,,,,,,,,,,,,,117.70399532800002,None,117.70399532800002,None,117.70399532800002,None,g,1,1.345705634999831,119.23738790000061,None,119.23738790000061,None,119.23738790000061,None,120.6540504099994,None,120.6540504099994,None,120.6540504099994,None,120.6540504099994,None,,,,,,,,,,,,,,,,,,,,,,,,,,,,,,,,,,,,,,,,,,,,001,152,2020_Feb_20_1218,spring_faces,3.2.3,60.001365751105155,
condition files/Stage0a.xlsx,0a,alpha,none,h,"['h', 'g']","['Chess', 'Go']","[0, 0.5]","[0, 0]",1,0,0,3,3,3,0,1,1,0,,,,,,,,,,,,,,,,,,,,,,,,,,,,,,,,,,,,,,,,,,,,,,,,,,,,,,,,,,,,,,,122.62073633399996,None,122.62073633399996,None,122.62073633399996,None,h,1,0.6530477749984129,124.15407159200004,None,124.15407159200004,None,124.15407159200004,None,124.87075254900083,None,124.87075254900083,None,124.87075254900083,None,124.87075254900083,None,,,,,,,,,,,,,,,,,,,,,,,,,,,,,,,,,,,,,,,,,,,,001,152,2020_Feb_20_1218,spring_faces,3.2.3,60.001365751105155,
condition files/Stage0a.xlsx,0a,beta,none,g,"['h', 'g']","['Chess', 'Go']","[0, 0.5]","[0, 0]",1,0,0,4,4,4,0,0,0,1,,,,,,,,,,,,,,,,,,,,,,,,,,,,,,,,,,,,,,,,,,,,,,,,,,,,,,,,,,,,,,,126.87071218399979,None,126.87071218399979,None,126.87071218399979,None,g,1,2.563144686000669,128.4040661880008,None,128.4040661880008,None,128.4040661880008,None,131.0374017819995,None,131.0374017819995,None,131.0374017819995,None,131.0374017819995,None,,,,,,,,,,,,,,,,,,,,,,,,,,,,,,,,,,,,,,,,,,,,001,152,2020_Feb_20_1218,spring_faces,3.2.3,60.001365751105155,
condition files/Stage0a.xlsx,0a,alpha,none,h,"['h', 'g']","['Chess', 'Go']","[0, 0.5]","[0, 0]",1,0,0,4,4,4,0,1,1,0,,,,,,,,,,,,,,,,,,,,,,,,,,,,,,,,,,,,,,,,,,,,,,,,,,,,,,,,,,,,,,,133.00401423100084,None,133.00401423100084,None,133.00401423100084,None,h,1,0.6537023589989985,134.5374276420007,None,134.5374276420007,None,134.5374276420007,None,135.25393948300007,None,135.25393948300007,None,135.25393948300007,None,135.25393948300007,None,,,,,,,,,,,,,,,,,,,,,,,,,,,,,,,,,,,,,,,,,,,,001,152,2020_Feb_20_1218,spring_faces,3.2.3,60.001365751105155,
condition files/Stage0a.xlsx,0a,beta,none,g,"['h', 'g']","['Chess', 'Go']","[0, 0.5]","[0, 0]",1,0,0,5,5,5,0,0,0,1,,,,,,,,,,,,,,,,,,,,,,,,,,,,,,,,,,,,,,,,,,,,,,,,,,,,,,,,,,,,,,,137.2540664650005,None,137.2540664650005,None,137.2540664650005,None,g,1,0.8037464620010724,138.7874047710011,None,138.7874047710011,None,138.7874047710011,None,139.67075329200088,None,139.67075329200088,None,139.67075329200088,None,139.67075329200088,None,,,,,,,,,,,,,,,,,,,,,,,,,,,,,,,,,,,,,,,,,,,,001,152,2020_Feb_20_1218,spring_faces,3.2.3,60.001365751105155,
condition files/Stage0a.xlsx,0a,alpha,none,h,"['h', 'g']","['Chess', 'Go']","[0, 0.5]","[0, 0]",1,0,0,5,5,5,0,1,1,0,,,,,,,,,,,,,,,,,,,,,,,,,,,,,,,,,,,,,,,,,,,,,,,,,,,,,,,,,,,,,,,141.63742884100066,None,141.63742884100066,None,141.63742884100066,None,h,1,1.1563774950009247,143.1707505989998,None,143.1707505989998,None,143.1707505989998,None,144.38740331000008,None,144.38740331000008,None,144.38740331000008,None,144.38740331000008,None,,,,,,,,,,,,,,,,,,,,,,,,,,,,,,,,,,,,,,,,,,,,001,152,2020_Feb_20_1218,spring_faces,3.2.3,60.001365751105155,
condition files/Stage0b_1.xlsx,0b,alpha,none,h,"['h', 'g']","['Chess', 'Go']","[-0.15, 0.5]","[0.15, 0.5]",1,0,0,6,6,6,0,0,0,0,,,,,,,,,,,,,,,,,,,,,,,,,,,,,,,,,,,,,,,,,,,,,,,,,,,,,,,,,,,,,,,146.3874026680005,None,146.3874026680005,None,146.3874026680005,None,h,1,4.470412820999627,147.92073841800084,None,147.92073841800084,None,147.92073841800084,None,152.45407335799973,None,152.45407335799973,None,152.45407335799973,None,152.45407335799973,None,,,,,,,,,,,,,,,,,,,,,,,,,,,,,,,,,,,,,,,,,,,,001,152,2020_Feb_20_1218,spring_faces,3.2.3,60.001365751105155,
condition files/Stage0b_1.xlsx,0b,none,beta,g,"['h', 'g']","['Chess', 'Go']","[-0.15, 0.5]","[0.15, 0.5]",0,1,0,6,6,6,0,1,1,1,,,,,,,,,,,,,,,,,,,,,,,,,,,,,,,,,,,,,,,,,,,,,,,,,,,,,,,,,,,,,,,154.4373991880002,None,154.4373991880002,None,154.4373991880002,None,g,1,0.6764607599998271,155.97073494300093,None,155.97073494300093,None,155.97073494300093,None,156.72070981400066,None,156.72070981400066,None,156.72070981400066,None,156.72070981400066,None,,,,,,,,,,,,,,,,,,,,,,,,,,,,,,,,,,,,,,,,,,,,001,152,2020_Feb_20_1218,spring_faces,3.2.3,60.001365751105155,
condition files/Stage0b_2.xlsx,0b,none,alpha,h,"['h', 'g']","['Chess', 'Go']","[-0.15, 0.5]","[0.15, 0.5]",0,1,0,7,7,7,0,0,0,0,,,,,,,,,,,,,,,,,,,,,,,,,,,,,,,,,,,,,,,,,,,,,,,,,,,,,,,,,,,,,,,158.70404902600058,None,158.70404902600058,None,158.70404902600058,None,h,1,0.7298170550002396,160.23740024700055,None,160.23740024700055,None,160.23740024700055,None,161.03741742800048,None,161.03741742800048,None,161.03741742800048,None,161.03741742800048,None,,,,,,,,,,,,,,,,,,,,,,,,,,,,,,,,,,,,,,,,,,,,001,152,2020_Feb_20_1218,spring_faces,3.2.3,60.001365751105155,
condition files/Stage0b_2.xlsx,0b,beta,none,g,"['h', 'g']","['Chess', 'Go']","[-0.15, 0.5]","[0.15, 0.5]",1,0,0,7,7,7,0,1,1,1,,,,,,,,,,,,,,,,,,,,,,,,,,,,,,,,,,,,,,,,,,,,,,,,,,,,,,,,,,,,,,,163.0040726820007,None,163.0040726820007,None,163.0040726820007,None,g,1,2.0611437129991828,164.55404765599997,None,164.55404765599997,None,164.55404765599997,None,166.68737585300005,None,166.68737585300005,None,166.68737585300005,None,166.68737585300005,None,,,,,,,,,,,,,,,,,,,,,,,,,,,,,,,,,,,,,,,,,,,,001,152,2020_Feb_20_1218,spring_faces,3.2.3,60.001365751105155,
condition files/Stage0b_1.xlsx,0b,none,beta,g,"['h', 'g']","['Chess', 'Go']","[-0.15, 0.5]","[0.15, 0.5]",0,1,0,8,8,8,0,0,0,1,,,,,,,,,,,,,,,,,,,,,,,,,,,,,,,,,,,,,,,,,,,,,,,,,,,,,,,,,,,,,,,168.67073665700082,None,168.67073665700082,None,168.67073665700082,None,g,1,0.779045262001091,170.2040511690011,None,170.2040511690011,None,170.2040511690011,None,171.0374007570008,None,171.0374007570008,None,171.0374007570008,None,171.0374007570008,None,,,,,,,,,,,,,,,,,,,,,,,,,,,,,,,,,,,,,,,,,,,,001,152,2020_Feb_20_1218,spring_faces,3.2.3,60.001365751105155,
condition files/Stage0b_1.xlsx,0b,alpha,none,h,"['h', 'g']","['Chess', 'Go']","[-0.15, 0.5]","[0.15, 0.5]",1,0,0,8,8,8,0,1,1,0,,,,,,,,,,,,,,,,,,,,,,,,,,,,,,,,,,,,,,,,,,,,,,,,,,,,,,,,,,,,,,,173.02077021600053,None,173.02077021600053,None,173.02077021600053,None,h,1,0.6213926670006913,174.55376984100076,None,174.55376984100076,None,174.55376984100076,None,175.25405161900017,None,175.25405161900017,None,175.25405161900017,None,175.25405161900017,None,,,,,,,,,,,,,,,,,,,,,,,,,,,,,,,,,,,,,,,,,,,,001,152,2020_Feb_20_1218,spring_faces,3.2.3,60.001365751105155,
condition files/Stage0b_2.xlsx,0b,none,alpha,h,"['h', 'g']","['Chess', 'Go']","[-0.15, 0.5]","[0.15, 0.5]",0,1,0,9,9,9,0,0,0,0,,,,,,,,,,,,,,,,,,,,,,,,,,,,,,,,,,,,,,,,,,,,,,,,,,,,,,,,,,,,,,,177.23738565500025,None,177.23738565500025,None,177.23738565500025,None,h,1,1.0443579729999328,178.77072195000073,None,178.77072195000073,None,178.77072195000073,None,179.87007602599988,None,179.87007602599988,None,179.87007602599988,None,179.87007602599988,None,,,,,,,,,,,,,,,,,,,,,,,,,,,,,,,,,,,,,,,,,,,,001,152,2020_Feb_20_1218,spring_faces,3.2.3,60.001365751105155,
condition files/Stage0b_2.xlsx,0b,beta,none,g,"['h', 'g']","['Chess', 'Go']","[-0.15, 0.5]","[0.15, 0.5]",1,0,0,9,9,9,0,1,1,1,,,,,,,,,,,,,,,,,,,,,,,,,,,,,,,,,,,,,,,,,,,,,,,,,,,,,,,,,,,,,,,181.85409495299973,None,181.85409495299973,None,181.85409495299973,None,g,1,0.7959346770003322,183.38717161900058,None,183.38717161900058,None,183.38717161900058,None,184.2540624510002,None,184.2540624510002,None,184.2540624510002,None,184.2540624510002,None,,,,,,,,,,,,,,,,,,,,,,,,,,,,,,,,,,,,,,,,,,,,001,152,2020_Feb_20_1218,spring_faces,3.2.3,60.001365751105155,
condition files/Stage0b_1.xlsx,0b,none,beta,g,"['h', 'g']","['Chess', 'Go']","[-0.15, 0.5]","[0.15, 0.5]",0,1,0,10,10,10,0,0,0,1,,,,,,,,,,,,,,,,,,,,,,,,,,,,,,,,,,,,,,,,,,,,,,,,,,,,,,,,,,,,,,,186.2373966039995,None,186.2373966039995,None,186.2373966039995,None,g,1,1.3564384359997348,187.77072357699944,None,187.77072357699944,None,187.77072357699944,None,189.20407855600024,None,189.20407855600024,None,189.20407855600024,None,189.20407855600024,None,,,,,,,,,,,,,,,,,,,,,,,,,,,,,,,,,,,,,,,,,,,,001,152,2020_Feb_20_1218,spring_faces,3.2.3,60.001365751105155,
condition files/Stage0b_1.xlsx,0b,alpha,none,h,"['h', 'g']","['Chess', 'Go']","[-0.15, 0.5]","[0.15, 0.5]",1,0,0,10,10,10,0,1,1,0,,,,,,,,,,,,,,,,,,,,,,,,,,,,,,,,,,,,,,,,,,,,,,,,,,,,,,,,,,,,,,,191.17075784600092,None,191.17075784600092,None,191.17075784600092,None,h,1,1.0154612280002766,192.70379954800046,None,192.70379954800046,None,192.70379954800046,None,193.78742985999997,None,193.78742985999997,None,193.78742985999997,None,193.78742985999997,None,,,,,,,,,,,,,,,,,,,,,,,,,,,,,,,,,,,,,,,,,,,,001,152,2020_Feb_20_1218,spring_faces,3.2.3,60.001365751105155,
condition files/Stage0b_2.xlsx,0b,none,alpha,h,"['h', 'g']","['Chess', 'Go']","[-0.15, 0.5]","[0.15, 0.5]",0,1,0,11,11,11,0,0,0,0,,,,,,,,,,,,,,,,,,,,,,,,,,,,,,,,,,,,,,,,,,,,,,,,,,,,,,,,,,,,,,,195.7707492190002,None,195.7707492190002,None,195.7707492190002,None,h,1,0.6871562249998533,197.30401241500113,None,197.30401241500113,None,197.30401241500113,None,198.07071726600043,None,198.07071726600043,None,198.07071726600043,None,198.07071726600043,None,,,,,,,,,,,,,,,,,,,,,,,,,,,,,,,,,,,,,,,,,,,,001,152,2020_Feb_20_1218,spring_faces,3.2.3,60.001365751105155,
condition files/Stage0b_2.xlsx,0b,beta,none,g,"['h', 'g']","['Chess', 'Go']","[-0.15, 0.5]","[0.15, 0.5]",1,0,0,11,11,11,0,1,1,1,,,,,,,,,,,,,,,,,,,,,,,,,,,,,,,,,,,,,,,,,,,,,,,,,,,,,,,,,,,,,,,200.03740549199938,None,200.03740549199938,None,200.03740549199938,None,g,1,0.852758103999804,201.57036869200056,None,201.57036869200056,None,201.57036869200056,None,202.50406518700038,None,202.50406518700038,None,202.50406518700038,None,202.50406518700038,None,,,,,,,,,,,,,,,,,,,,,,,,,,,,,,,,,,,,,,,,,,,,001,152,2020_Feb_20_1218,spring_faces,3.2.3,60.001365751105155,
condition files/Stage0c_1.xlsx,0c,theta,alpha,h,"['h', 'g']","['Chess', 'Go']","[-0.15, 0.5]","[0.15, 0.5]",1,1,0,12,12,12,0,0,0,0,,,,,,,,,,,,,,,,,,,,,,,,,,,,,,,,,,,,,,,,,,,,,,,,,,,,,,,,,,,,,,,204.48742274300093,None,204.48742274300093,None,204.48742274300093,None,h,1,2.1785124620000715,206.02069413800018,None,206.02069413800018,None,206.02069413800018,None,208.25409548599964,None,208.25409548599964,None,208.25409548599964,None,208.25409548599964,None,,,,,,,,,,,,,,,,,,,,,,,,,,,,,,,,,,,,,,,,,,,,001,152,2020_Feb_20_1218,spring_faces,3.2.3,60.001365751105155,
condition files/Stage0c_1.xlsx,0c,phi,beta,g,"['h', 'g']","['Chess', 'Go']","[-0.15, 0.5]","[0.15, 0.5]",1,1,0,12,12,12,0,1,1,3,,,,,,,,,,,,,,,,,,,,,,,,,,,,,,,,,,,,,,,,,,,,,,,,,,,,,,,,,,,,,,,210.2373804529998,None,210.2373804529998,None,210.2373804529998,None,g,1,1.5486095609994663,211.77065910900092,None,211.77065910900092,None,211.77065910900092,None,213.3706610070003,None,213.3706610070003,None,213.3706610070003,None,213.3706610070003,None,,,,,,,,,,,,,,,,,,,,,,,,,,,,,,,,,,,,,,,,,,,,001,152,2020_Feb_20_1218,spring_faces,3.2.3,60.001365751105155,
condition files/Stage0c_1.xlsx,0c,beta,theta,g,"['h', 'g']","['Chess', 'Go']","[-0.15, 0.5]","[0.15, 0.5]",1,1,0,12,12,12,0,2,2,2,,,,,,,,,,,,,,,,,,,,,,,,,,,,,,,,,,,,,,,,,,,,,,,,,,,,,,,,,,,,,,,215.35401654000088,None,215.35401654000088,None,215.35401654000088,None,g,1,4.207698342001095,216.88747009899998,None,216.88747009899998,None,216.88747009899998,None,221.15407704599966,None,221.15407704599966,None,221.15407704599966,None,221.15407704599966,None,,,,,,,,,,,,,,,,,,,,,,,,,,,,,,,,,,,,,,,,,,,,001,152,2020_Feb_20_1218,spring_faces,3.2.3,60.001365751105155,
condition files/Stage0c_1.xlsx,0c,alpha,phi,h,"['h', 'g']","['Chess', 'Go']","[-0.15, 0.5]","[0.15, 0.5]",1,1,0,12,12,12,0,3,3,1,,,,,,,,,,,,,,,,,,,,,,,,,,,,,,,,,,,,,,,,,,,,,,,,,,,,,,,,,,,,,,,223.1374255490009,None,223.1374255490009,None,223.1374255490009,None,h,1,1.4651750199991511,224.654060062001,None,224.654060062001,None,224.654060062001,None,226.1707327309996,None,226.1707327309996,None,226.1707327309996,None,226.1707327309996,None,,,,,,,,,,,,,,,,,,,,,,,,,,,,,,,,,,,,,,,,,,,,001,152,2020_Feb_20_1218,spring_faces,3.2.3,60.001365751105155,
condition files/Stage0c_2.xlsx,0c,phi,alpha,h,"['h', 'g']","['Chess', 'Go']","[-0.15, 0.5]","[0.15, 0.5]",1,1,0,13,13,13,0,0,0,1,,,,,,,,,,,,,,,,,,,,,,,,,,,,,,,,,,,,,,,,,,,,,,,,,,,,,,,,,,,,,,,228.17074922400025,None,228.17074922400025,None,228.17074922400025,None,h,1,1.823164896999515,229.70401645200036,None,229.70401645200036,None,229.70401645200036,None,231.58737782800017,None,231.58737782800017,None,231.58737782800017,None,231.58737782800017,None,,,,,,,,,,,,,,,,,,,,,,,,,,,,,,,,,,,,,,,,,,,,001,152,2020_Feb_20_1218,spring_faces,3.2.3,60.001365751105155,
condition files/Stage0c_2.xlsx,0c,alpha,theta,h,"['h', 'g']","['Chess', 'Go']","[-0.15, 0.5]","[0.15, 0.5]",1,1,0,13,13,13,0,1,1,0,,,,,,,,,,,,,,,,,,,,,,,,,,,,,,,,,,,,,,,,,,,,,,,,,,,,,,,,,,,,,,,233.57073037900045,None,233.57073037900045,None,233.57073037900045,None,h,1,1.0958502150006098,235.08726409600058,None,235.08726409600058,None,235.08726409600058,None,236.23738903699996,None,236.23738903699996,None,236.23738903699996,None,236.23738903699996,None,,,,,,,,,,,,,,,,,,,,,,,,,,,,,,,,,,,,,,,,,,,,001,152,2020_Feb_20_1218,spring_faces,3.2.3,60.001365751105155,
condition files/Stage0c_2.xlsx,0c,theta,beta,g,"['h', 'g']","['Chess', 'Go']","[-0.15, 0.5]","[0.15, 0.5]",1,1,0,13,13,13,0,2,2,2,,,,,,,,,,,,,,,,,,,,,,,,,,,,,,,,,,,,,,,,,,,,,,,,,,,,,,,,,,,,,,,238.22076284000104,None,238.22076284000104,None,238.22076284000104,None,g,1,1.453865647999919,239.73726920800073,None,239.73726920800073,None,239.73726920800073,None,241.25405231200057,None,241.25405231200057,None,241.25405231200057,None,241.25405231200057,None,,,,,,,,,,,,,,,,,,,,,,,,,,,,,,,,,,,,,,,,,,,,001,152,2020_Feb_20_1218,spring_faces,3.2.3,60.001365751105155,
condition files/Stage0c_2.xlsx,0c,beta,phi,g,"['h', 'g']","['Chess', 'Go']","[-0.15, 0.5]","[0.15, 0.5]",1,1,0,13,13,13,0,3,3,3,,,,,,,,,,,,,,,,,,,,,,,,,,,,,,,,,,,,,,,,,,,,,,,,,,,,,,,,,,,,,,,243.2374375010004,None,243.2374375010004,None,243.2374375010004,None,g,1,1.4612582989993825,244.75391120600034,None,244.75391120600034,None,244.75391120600034,None,246.27071545800027,None,246.27071545800027,None,246.27071545800027,None,246.27071545800027,None,,,,,,,,,,,,,,,,,,,,,,,,,,,,,,,,,,,,,,,,,,,,001,152,2020_Feb_20_1218,spring_faces,3.2.3,60.001365751105155,
condition files/Stage0c_1.xlsx,0c,alpha,phi,h,"['h', 'g']","['Chess', 'Go']","[-0.15, 0.5]","[0.15, 0.5]",1,1,0,14,14,14,0,0,0,1,,,,,,,,,,,,,,,,,,,,,,,,,,,,,,,,,,,,,,,,,,,,,,,,,,,,,,,,,,,,,,,248.2707701340005,None,248.2707701340005,None,248.2707701340005,None,h,1,0.7959584070013079,249.78715859300064,None,249.78715859300064,None,249.78715859300064,None,250.6373840899996,None,250.6373840899996,None,250.6373840899996,None,250.6373840899996,None,,,,,,,,,,,,,,,,,,,,,,,,,,,,,,,,,,,,,,,,,,,,001,152,2020_Feb_20_1218,spring_faces,3.2.3,60.001365751105155,
condition files/Stage0c_1.xlsx,0c,phi,beta,g,"['h', 'g']","['Chess', 'Go']","[-0.15, 0.5]","[0.15, 0.5]",1,1,0,14,14,14,0,1,1,3,,,,,,,,,,,,,,,,,,,,,,,,,,,,,,,,,,,,,,,,,,,,,,,,,,,,,,,,,,,,,,,252.6207480840003,None,252.6207480840003,None,252.6207480840003,None,g,1,1.6299519570002303,254.13727880900115,None,254.13727880900115,None,254.13727880900115,None,255.82071717799954,None,255.82071717799954,None,255.82071717799954,None,255.82071717799954,None,,,,,,,,,,,,,,,,,,,,,,,,,,,,,,,,,,,,,,,,,,,,001,152,2020_Feb_20_1218,spring_faces,3.2.3,60.001365751105155,
condition files/Stage0c_1.xlsx,0c,theta,alpha,h,"['h', 'g']","['Chess', 'Go']","[-0.15, 0.5]","[0.15, 0.5]",1,1,0,14,14,14,0,2,2,0,,,,,,,,,,,,,,,,,,,,,,,,,,,,,,,,,,,,,,,,,,,,,,,,,,,,,,,,,,,,,,,257.8040770050011,None,257.8040770050011,None,257.8040770050011,None,h,1,1.2305976710013056,259.3206568679998,None,259.3206568679998,None,259.3206568679998,None,260.6207156149994,None,260.6207156149994,None,260.6207156149994,None,260.6207156149994,None,,,,,,,,,,,,,,,,,,,,,,,,,,,,,,,,,,,,,,,,,,,,001,152,2020_Feb_20_1218,spring_faces,3.2.3,60.001365751105155,
condition files/Stage0c_1.xlsx,0c,beta,theta,g,"['h', 'g']","['Chess', 'Go']","[-0.15, 0.5]","[0.15, 0.5]",1,1,0,14,14,14,0,3,3,2,,,,,,,,,,,,,,,,,,,,,,,,,,,,,,,,,,,,,,,,,,,,,,,,,,,,,,,,,,,,,,,262.5874125499995,None,262.5874125499995,None,262.5874125499995,None,g,1,1.2633584860013798,264.1038692790007,None,264.1038692790007,None,264.1038692790007,None,265.42073906800033,None,265.42073906800033,None,265.42073906800033,None,265.42073906800033,None,,,,,,,,,,,,,,,,,,,,,,,,,,,,,,,,,,,,,,,,,,,,001,152,2020_Feb_20_1218,spring_faces,3.2.3,60.001365751105155,
condition files/Stage0c_2.xlsx,0c,beta,phi,g,"['h', 'g']","['Chess', 'Go']","[-0.15, 0.5]","[0.15, 0.5]",1,1,0,15,15,15,0,0,0,3,,,,,,,,,,,,,,,,,,,,,,,,,,,,,,,,,,,,,,,,,,,,,,,,,,,,,,,,,,,,,,,267.4207173979994,None,267.4207173979994,None,267.4207173979994,None,g,1,1.0691611370002647,268.9539826599994,None,268.9539826599994,None,268.9539826599994,None,270.0873913609994,None,270.0873913609994,None,270.0873913609994,None,270.0873913609994,None,,,,,,,,,,,,,,,,,,,,,,,,,,,,,,,,,,,,,,,,,,,,001,152,2020_Feb_20_1218,spring_faces,3.2.3,60.001365751105155,
condition files/Stage0c_2.xlsx,0c,alpha,theta,h,"['h', 'g']","['Chess', 'Go']","[-0.15, 0.5]","[0.15, 0.5]",1,1,0,15,15,15,0,1,1,0,,,,,,,,,,,,,,,,,,,,,,,,,,,,,,,,,,,,,,,,,,,,,,,,,,,,,,,,,,,,,,,272.0707536049995,None,272.0707536049995,None,272.0707536049995,None,h,1,2.9159557720013254,273.5872984840007,None,273.5872984840007,None,273.5872984840007,None,276.55401648800034,None,276.55401648800034,None,276.55401648800034,None,276.55401648800034,None,,,,,,,,,,,,,,,,,,,,,,,,,,,,,,,,,,,,,,,,,,,,001,152,2020_Feb_20_1218,spring_faces,3.2.3,60.001365751105155,
condition files/Stage0c_2.xlsx,0c,theta,beta,g,"['h', 'g']","['Chess', 'Go']","[-0.15, 0.5]","[0.15, 0.5]",1,1,0,15,15,15,0,2,2,2,,,,,,,,,,,,,,,,,,,,,,,,,,,,,,,,,,,,,,,,,,,,,,,,,,,,,,,,,,,,,,,278.53731689900087,None,278.53731689900087,None,278.53731689900087,None,g,1,0.86449123499915,280.070719491001,None,280.070719491001,None,280.070719491001,None,280.9873990520009,None,280.9873990520009,None,280.9873990520009,None,280.9873990520009,None,,,,,,,,,,,,,,,,,,,,,,,,,,,,,,,,,,,,,,,,,,,,001,152,2020_Feb_20_1218,spring_faces,3.2.3,60.001365751105155,
condition files/Stage0c_2.xlsx,0c,phi,alpha,h,"['h', 'g']","['Chess', 'Go']","[-0.15, 0.5]","[0.15, 0.5]",1,1,0,15,15,15,0,3,3,1,,,,,,,,,,,,,,,,,,,,,,,,,,,,,,,,,,,,,,,,,,,,,,,,,,,,,,,,,,,,,,,282.9706525840011,None,282.9706525840011,None,282.9706525840011,None,h,1,1.1350154629999452,284.5040548899997,None,284.5040548899997,None,284.5040548899997,None,285.7039857689997,None,285.7039857689997,None,285.7039857689997,None,285.7039857689997,None,,,,,,,,,,,,,,,,,,,,,,,,,,,,,,,,,,,,,,,,,,,,001,152,2020_Feb_20_1218,spring_faces,3.2.3,60.001365751105155,
condition files/Stage0c_1.xlsx,0c,phi,beta,g,"['h', 'g']","['Chess', 'Go']","[-0.15, 0.5]","[0.15, 0.5]",1,1,0,16,16,16,0,0,0,3,,,,,,,,,,,,,,,,,,,,,,,,,,,,,,,,,,,,,,,,,,,,,,,,,,,,,,,,,,,,,,,287.70404307600074,None,287.70404307600074,None,287.70404307600074,None,g,1,0.833704865000982,289.2374058940004,None,289.2374058940004,None,289.2374058940004,None,290.1373457110003,None,290.1373457110003,None,290.1373457110003,None,290.1373457110003,None,,,,,,,,,,,,,,,,,,,,,,,,,,,,,,,,,,,,,,,,,,,,001,152,2020_Feb_20_1218,spring_faces,3.2.3,60.001365751105155,
condition files/Stage0c_1.xlsx,0c,beta,theta,g,"['h', 'g']","['Chess', 'Go']","[-0.15, 0.5]","[0.15, 0.5]",1,1,0,16,16,16,0,1,1,2,,,,,,,,,,,,,,,,,,,,,,,,,,,,,,,,,,,,,,,,,,,,,,,,,,,,,,,,,,,,,,,292.1206705370005,None,292.1206705370005,None,292.1206705370005,None,g,1,3.217788871999801,293.6372810619996,None,293.6372810619996,None,293.6372810619996,None,296.9204985289998,None,296.9204985289998,None,296.9204985289998,None,296.9204985289998,None,,,,,,,,,,,,,,,,,,,,,,,,,,,,,,,,,,,,,,,,,,,,001,152,2020_Feb_20_1218,spring_faces,3.2.3,60.001365751105155,
condition files/Stage0c_1.xlsx,0c,alpha,phi,h,"['h', 'g']","['Chess', 'Go']","[-0.15, 0.5]","[0.15, 0.5]",1,1,0,16,16,16,0,2,2,1,,,,,,,,,,,,,,,,,,,,,,,,,,,,,,,,,,,,,,,,,,,,,,,,,,,,,,,,,,,,,,,298.904015989001,None,298.904015989001,None,298.904015989001,None,h,1,1.3298030799996923,300.4373905470002,None,300.4373905470002,None,300.4373905470002,None,301.8207389119998,None,301.8207389119998,None,301.8207389119998,None,301.8207389119998,None,,,,,,,,,,,,,,,,,,,,,,,,,,,,,,,,,,,,,,,,,,,,001,152,2020_Feb_20_1218,spring_faces,3.2.3,60.001365751105155,
condition files/Stage0c_1.xlsx,0c,theta,alpha,h,"['h', 'g']","['Chess', 'Go']","[-0.15, 0.5]","[0.15, 0.5]",1,1,0,16,16,16,0,3,3,0,,,,,,,,,,,,,,,,,,,,,,,,,,,,,,,,,,,,,,,,,,,,,,,,,,,,,,,,,,,,,,,303.8040549180005,None,303.8040549180005,None,303.8040549180005,None,h,1,1.0865423079994798,305.3205948350005,None,305.3205948350005,None,305.3205948350005,None,306.47074256400083,None,306.47074256400083,None,306.47074256400083,None,306.47074256400083,None,,,,,,,,,,,,,,,,,,,,,,,,,,,,,,,,,,,,,,,,,,,,001,152,2020_Feb_20_1218,spring_faces,3.2.3,60.001365751105155,
condition files/Stage0c_2.xlsx,0c,theta,beta,g,"['h', 'g']","['Chess', 'Go']","[-0.15, 0.5]","[0.15, 0.5]",1,1,0,17,17,17,0,0,0,2,,,,,,,,,,,,,,,,,,,,,,,,,,,,,,,,,,,,,,,,,,,,,,,,,,,,,,,,,,,,,,,308.4707305390002,None,308.4707305390002,None,308.4707305390002,None,g,1,0.7399148849999619,309.98723698399954,None,309.98723698399954,None,309.98723698399954,None,310.7873920080001,None,310.7873920080001,None,310.7873920080001,None,310.7873920080001,None,,,,,,,,,,,,,,,,,,,,,,,,,,,,,,,,,,,,,,,,,,,,001,152,2020_Feb_20_1218,spring_faces,3.2.3,60.001365751105155,
condition files/Stage0c_2.xlsx,0c,phi,alpha,h,"['h', 'g']","['Chess', 'Go']","[-0.15, 0.5]","[0.15, 0.5]",1,1,0,17,17,17,0,1,1,1,,,,,,,,,,,,,,,,,,,,,,,,,,,,,,,,,,,,,,,,,,,,,,,,,,,,,,,,,,,,,,,312.77074975899995,None,312.77074975899995,None,312.77074975899995,None,h,1,0.727740360000098,314.2874259660002,None,314.2874259660002,None,314.2874259660002,None,315.0707184639996,None,315.0707184639996,None,315.0707184639996,None,315.0707184639996,None,,,,,,,,,,,,,,,,,,,,,,,,,,,,,,,,,,,,,,,,,,,,001,152,2020_Feb_20_1218,spring_faces,3.2.3,60.001365751105155,
condition files/Stage0c_2.xlsx,0c,beta,phi,g,"['h', 'g']","['Chess', 'Go']","[-0.15, 0.5]","[0.15, 0.5]",1,1,0,17,17,17,0,2,2,3,,,,,,,,,,,,,,,,,,,,,,,,,,,,,,,,,,,,,,,,,,,,,,,,,,,,,,,,,,,,,,,317.05412180700114,None,317.05412180700114,None,317.05412180700114,None,g,1,1.3087457300007372,318.5704465100007,None,318.5704465100007,None,318.5704465100007,None,319.93740323400016,None,319.93740323400016,None,319.93740323400016,None,319.93740323400016,None,,,,,,,,,,,,,,,,,,,,,,,,,,,,,,,,,,,,,,,,,,,,001,152,2020_Feb_20_1218,spring_faces,3.2.3,60.001365751105155,
condition files/Stage0c_2.xlsx,0c,alpha,theta,h,"['h', 'g']","['Chess', 'Go']","[-0.15, 0.5]","[0.15, 0.5]",1,1,0,17,17,17,0,3,3,0,,,,,,,,,,,,,,,,,,,,,,,,,,,,,,,,,,,,,,,,,,,,,,,,,,,,,,,,,,,,,,,321.9207283300002,None,321.9207283300002,None,321.9207283300002,None,h,1,0.42510060499989777,323.4540714930008,None,323.4540714930008,None,323.4540714930008,None,323.937373054001,None,323.937373054001,None,323.937373054001,None,323.937373054001,None,,,,,,,,,,,,,,,,,,,,,,,,,,,,,,,,,,,,,,,,,,,,001,152,2020_Feb_20_1218,spring_faces,3.2.3,60.001365751105155,
,,,,,,,,,,,,,,,,,,,,,,,,,,,,,,,,,,,,,,,,,,,,,,,,,,,,,,,,,,,,,,,,,,,,,,,,,,,,,,,,,,,,,,,,,,,,,,,,,,,,,,,,325.92062713999985,None,space,3.7271649790000083,330.9040383690008,None,,,,,,,,,,,,,,,,,,,,,,,,,,,,,,,,,,,,,,001,152,2020_Feb_20_1218,spring_faces,3.2.3,60.001365751105155,
condition files/Stage1_1.xlsx,,T4,B3,m,"['c', 'm']","['Clue', 'Monopoly']","[-0.15, 0.5]","[0.15, 0.5]",1,1,,,,,,,,,0,0,0,0,0,0,0,6,,,,,,,,,,,,,,,,,,,,,,,,,,,,,,,,,,,,,,,,,,,,,,,,,,,,,,,334.68740026399973,None,334.68740026399973,None,334.68740026399973,None,c,0,2.750429505000284,336.52068815700113,None,336.52068815700113,None,336.52068815700113,None,339.3538877730007,None,339.3538877730007,None,339.3538877730007,None,339.3538877730007,None,,,,,,,330.9040383690008,None,,,,,,,,,,,,,,,,,,,,,,,,,,,,,,,,,,,,001,152,2020_Feb_20_1218,spring_faces,3.2.3,60.001365751105155,
condition files/Stage1_1.xlsx,,T2,B2,m,"['c', 'm']","['Clue', 'Monopoly']","[-0.15, 0.5]","[0.15, 0.5]",1,1,,,,,,,,,0,0,0,0,0,1,1,3,,,,,,,,,,,,,,,,,,,,,,,,,,,,,,,,,,,,,,,,,,,,,,,,,,,,,,,341.32068656500087,None,341.32068656500087,None,341.32068656500087,None,c,0,1.2951822209997772,342.9040114489999,None,342.9040114489999,None,342.9040114489999,None,344.27074536300097,None,344.27074536300097,None,344.27074536300097,None,344.27074536300097,None,,,,,,,,,,,,,,,,,,,,,,,,,,,,,,,,,,,,,,,,,,,,001,152,2020_Feb_20_1218,spring_faces,3.2.3,60.001365751105155,
condition files/Stage1_1.xlsx,,B3,T3,c,"['c', 'm']","['Clue', 'Monopoly']","[-0.15, 0.5]","[0.15, 0.5]",1,1,,,,,,,,,0,0,0,0,0,2,2,4,,,,,,,,,,,,,,,,,,,,,,,,,,,,,,,,,,,,,,,,,,,,,,,,,,,,,,,346.2374356399996,None,346.2374356399996,None,346.2374356399996,None,c,1,0.9377302359989699,347.83742491200064,None,347.83742491200064,None,347.83742491200064,None,348.85407303099964,None,348.85407303099964,None,348.85407303099964,None,348.85407303099964,None,,,,,,,,,,,,,,,,,,,,,,,,,,,,,,,,,,,,,,,,,,,,001,152,2020_Feb_20_1218,spring_faces,3.2.3,60.001365751105155,
condition files/Stage1_1.xlsx,,B2,T1,m,"['c', 'm']","['Clue', 'Monopoly']","[-0.15, 0.5]","[0.15, 0.5]",1,1,,,,,,,,,0,0,0,0,0,3,3,2,,,,,,,,,,,,,,,,,,,,,,,,,,,,,,,,,,,,,,,,,,,,,,,,,,,,,,,350.82075335899935,None,350.82075335899935,None,350.82075335899935,None,m,1,1.4770768959988345,352.35408031800034,None,352.35408031800034,None,352.35408031800034,None,353.90407584400054,None,353.90407584400054,None,353.90407584400054,None,353.90407584400054,None,,,,,,,,,,,,,,,,,,,,,,,,,,,,,,,,,,,,,,,,,,,,001,152,2020_Feb_20_1218,spring_faces,3.2.3,60.001365751105155,
condition files/Stage1_1.xlsx,,B1,T2,c,"['c', 'm']","['Clue', 'Monopoly']","[-0.15, 0.5]","[0.15, 0.5]",1,1,,,,,,,,,0,0,0,0,0,4,4,1,,,,,,,,,,,,,,,,,,,,,,,,,,,,,,,,,,,,,,,,,,,,,,,,,,,,,,,355.87073632600004,None,355.87073632600004,None,355.87073632600004,None,c,1,1.099170970999694,357.4040687150009,None,357.4040687150009,None,357.4040687150009,None,358.57066167099947,None,358.57066167099947,None,358.57066167099947,None,358.57066167099947,None,,,,,,,,,,,,,,,,,,,,,,,,,,,,,,,,,,,,,,,,,,,,001,152,2020_Feb_20_1218,spring_faces,3.2.3,60.001365751105155,
condition files/Stage1_1.xlsx,,T1,B1,c,"['c', 'm']","['Clue', 'Monopoly']","[-0.15, 0.5]","[0.15, 0.5]",1,1,,,,,,,,,0,0,0,0,0,5,5,0,,,,,,,,,,,,,,,,,,,,,,,,,,,,,,,,,,,,,,,,,,,,,,,,,,,,,,,360.5374264880011,None,360.5374264880011,None,360.5374264880011,None,m,0,2.032517730998734,362.0707318420009,None,362.0707318420009,None,362.0707318420009,None,364.1540725350005,None,364.1540725350005,None,364.1540725350005,None,364.1540725350005,None,,,,,,,,,,,,,,,,,,,,,,,,,,,,,,,,,,,,,,,,,,,,001,152,2020_Feb_20_1218,spring_faces,3.2.3,60.001365751105155,
condition files/Stage1_1.xlsx,,T3,B4,c,"['c', 'm']","['Clue', 'Monopoly']","[-0.15, 0.5]","[0.15, 0.5]",1,1,,,,,,,,,0,0,0,0,0,6,6,5,,,,,,,,,,,,,,,,,,,,,,,,,,,,,,,,,,,,,,,,,,,,,,,,,,,,,,,366.1373247370011,None,366.1373247370011,None,366.1373247370011,None,c,1,2.528425812999558,367.67073794799944,None,367.67073794799944,None,367.67073794799944,None,370.27073225300046,None,370.27073225300046,None,370.27073225300046,None,370.27073225300046,None,,,,,,,,,,,,,,,,,,,,,,,,,,,,,,,,,,,,,,,,,,,,001,152,2020_Feb_20_1218,spring_faces,3.2.3,60.001365751105155,
condition files/Stage1_1.xlsx,,B4,T4,m,"['c', 'm']","['Clue', 'Monopoly']","[-0.15, 0.5]","[0.15, 0.5]",1,1,,,,,,,,,0,0,0,0,0,7,7,7,,,,,,,,,,,,,,,,,,,,,,,,,,,,,,,,,,,,,,,,,,,,,,,,,,,,,,,372.23741865900047,None,372.23741865900047,None,372.23741865900047,None,m,1,1.8843912770007591,373.7707060880002,None,373.7707060880002,None,373.7707060880002,None,375.73734367,None,375.73734367,None,375.73734367,None,375.73734367,None,,,,,,,,,,,,,,,,,,,,,,,,,,,,,,,,,,,,,,,,,,,,001,152,2020_Feb_20_1218,spring_faces,3.2.3,60.001365751105155,
condition files/Stage1_2.xlsx,,B1,T1,c,"['c', 'm']","['Clue', 'Monopoly']","[-0.15, 0.5]","[0.15, 0.5]",1,1,,,,,,,,,0,1,1,1,0,0,0,0,,,,,,,,,,,,,,,,,,,,,,,,,,,,,,,,,,,,,,,,,,,,,,,,,,,,,,,377.7207447639994,None,377.7207447639994,None,377.7207447639994,None,m,0,1.377112655000019,379.25407460399947,None,379.25407460399947,None,379.25407460399947,None,380.70406786900094,None,380.70406786900094,None,380.70406786900094,None,380.70406786900094,None,,,,,,,,,,,,,,,,,,,,,,,,,,,,,,,,,,,,,,,,,,,,001,152,2020_Feb_20_1218,spring_faces,3.2.3,60.001365751105155,
condition files/Stage1_2.xlsx,,T1,B2,m,"['c', 'm']","['Clue', 'Monopoly']","[-0.15, 0.5]","[0.15, 0.5]",1,1,,,,,,,,,0,1,1,1,0,1,1,2,,,,,,,,,,,,,,,,,,,,,,,,,,,,,,,,,,,,,,,,,,,,,,,,,,,,,,,382.6707366770006,None,382.6707366770006,None,382.6707366770006,None,m,1,1.307089931999144,384.2040595039998,None,384.2040595039998,None,384.2040595039998,None,385.5873842050005,None,385.5873842050005,None,385.5873842050005,None,385.5873842050005,None,,,,,,,,,,,,,,,,,,,,,,,,,,,,,,,,,,,,,,,,,,,,001,152,2020_Feb_20_1218,spring_faces,3.2.3,60.001365751105155,
condition files/Stage1_2.xlsx,,B2,T2,m,"['c', 'm']","['Clue', 'Monopoly']","[-0.15, 0.5]","[0.15, 0.5]",1,1,,,,,,,,,0,1,1,1,0,2,2,3,,,,,,,,,,,,,,,,,,,,,,,,,,,,,,,,,,,,,,,,,,,,,,,,,,,,,,,387.55411648300105,None,387.55411648300105,None,387.55411648300105,None,m,1,2.503749779998543,389.08740216300066,None,389.08740216300066,None,389.08740216300066,None,391.67074425099963,None,391.67074425099963,None,391.67074425099963,None,391.67074425099963,None,,,,,,,,,,,,,,,,,,,,,,,,,,,,,,,,,,,,,,,,,,,,001,152,2020_Feb_20_1218,spring_faces,3.2.3,60.001365751105155,
condition files/Stage1_2.xlsx,,B4,T3,c,"['c', 'm']","['Clue', 'Monopoly']","[-0.15, 0.5]","[0.15, 0.5]",1,1,,,,,,,,,0,1,1,1,0,3,3,5,,,,,,,,,,,,,,,,,,,,,,,,,,,,,,,,,,,,,,,,,,,,,,,,,,,,,,,393.63738355200076,None,393.63738355200076,None,393.63738355200076,None,c,1,2.147844676001114,395.1874102010006,None,395.1874102010006,None,395.1874102010006,None,397.40404290600054,None,397.40404290600054,None,397.40404290600054,None,397.40404290600054,None,,,,,,,,,,,,,,,,,,,,,,,,,,,,,,,,,,,,,,,,,,,,001,152,2020_Feb_20_1218,spring_faces,3.2.3,60.001365751105155,
condition files/Stage1_2.xlsx,,T3,B3,c,"['c', 'm']","['Clue', 'Monopoly']","[-0.15, 0.5]","[0.15, 0.5]",1,1,,,,,,,,,0,1,1,1,0,4,4,4,,,,,,,,,,,,,,,,,,,,,,,,,,,,,,,,,,,,,,,,,,,,,,,,,,,,,,,399.370647437001,None,399.370647437001,None,399.370647437001,None,c,1,1.1992570160000469,400.9040146940006,None,400.9040146940006,None,400.9040146940006,None,402.1540208580009,None,402.1540208580009,None,402.1540208580009,None,402.1540208580009,None,,,,,,,,,,,,,,,,,,,,,,,,,,,,,,,,,,,,,,,,,,,,001,152,2020_Feb_20_1218,spring_faces,3.2.3,60.001365751105155,
condition files/Stage1_2.xlsx,,B3,T4,m,"['c', 'm']","['Clue', 'Monopoly']","[-0.15, 0.5]","[0.15, 0.5]",1,1,,,,,,,,,0,1,1,1,0,5,5,6,,,,,,,,,,,,,,,,,,,,,,,,,,,,,,,,,,,,,,,,,,,,,,,,,,,,,,,404.13730621800096,None,404.13730621800096,None,404.13730621800096,None,c,0,4.160430461999567,405.67072891799944,None,405.67072891799944,None,405.67072891799944,None,409.9040809470007,None,409.9040809470007,None,409.9040809470007,None,409.9040809470007,None,,,,,,,,,,,,,,,,,,,,,,,,,,,,,,,,,,,,,,,,,,,,001,152,2020_Feb_20_1218,spring_faces,3.2.3,60.001365751105155,
condition files/Stage1_2.xlsx,,T2,B1,c,"['c', 'm']","['Clue', 'Monopoly']","[-0.15, 0.5]","[0.15, 0.5]",1,1,,,,,,,,,0,1,1,1,0,6,6,1,,,,,,,,,,,,,,,,,,,,,,,,,,,,,,,,,,,,,,,,,,,,,,,,,,,,,,,411.8707744410003,None,411.8707744410003,None,411.8707744410003,None,m,0,1.4991617159994348,413.40407429600054,None,413.40407429600054,None,413.40407429600054,None,414.9706657400002,None,414.9706657400002,None,414.9706657400002,None,414.9706657400002,None,,,,,,,,,,,,,,,,,,,,,,,,,,,,,,,,,,,,,,,,,,,,001,152,2020_Feb_20_1218,spring_faces,3.2.3,60.001365751105155,
condition files/Stage1_2.xlsx,,T4,B4,m,"['c', 'm']","['Clue', 'Monopoly']","[-0.15, 0.5]","[0.15, 0.5]",1,1,,,,,,,,,0,1,1,1,0,7,7,7,,,,,,,,,,,,,,,,,,,,,,,,,,,,,,,,,,,,,,,,,,,,,,,,,,,,,,,416.9373242700003,None,416.9373242700003,None,416.9373242700003,None,m,1,2.1123582479995093,418.47072493999985,None,418.47072493999985,None,418.47072493999985,None,420.6540598829997,None,420.6540598829997,None,420.6540598829997,None,420.6540598829997,None,,,,,,,,,,,,,,,,,,,,,,,,,,,,,,,,,,,,,,,,,,,,001,152,2020_Feb_20_1218,spring_faces,3.2.3,60.001365751105155,
condition files/Stage1_1.xlsx,,T3,B4,c,"['c', 'm']","['Clue', 'Monopoly']","[-0.15, 0.5]","[0.15, 0.5]",1,1,,,,,,,,,0,2,2,2,0,0,0,5,,,,,,,,,,,,,,,,,,,,,,,,,,,,,,,,,,,,,,,,,,,,,,,,,,,,,,,422.63741435200063,None,422.63741435200063,None,422.63741435200063,None,c,1,1.6124394139987999,424.1706761740006,None,424.1706761740006,None,424.1706761740006,None,425.85407256799954,None,425.85407256799954,None,425.85407256799954,None,425.85407256799954,None,,,,,,,,,,,,,,,,,,,,,,,,,,,,,,,,,,,,,,,,,,,,001,152,2020_Feb_20_1218,spring_faces,3.2.3,60.001365751105155,
condition files/Stage1_1.xlsx,,T2,B2,m,"['c', 'm']","['Clue', 'Monopoly']","[-0.15, 0.5]","[0.15, 0.5]",1,1,,,,,,,,,0,2,2,2,0,1,1,3,,,,,,,,,,,,,,,,,,,,,,,,,,,,,,,,,,,,,,,,,,,,,,,,,,,,,,,427.8207199570006,None,427.8207199570006,None,427.8207199570006,None,m,1,4.013243330999103,429.3539817180008,None,429.3539817180008,None,429.3539817180008,None,433.4373958520009,None,433.4373958520009,None,433.4373958520009,None,433.4373958520009,None,,,,,,,,,,,,,,,,,,,,,,,,,,,,,,,,,,,,,,,,,,,,001,152,2020_Feb_20_1218,spring_faces,3.2.3,60.001365751105155,
condition files/Stage1_1.xlsx,,T4,B3,m,"['c', 'm']","['Clue', 'Monopoly']","[-0.15, 0.5]","[0.15, 0.5]",1,1,,,,,,,,,0,2,2,2,0,2,2,6,,,,,,,,,,,,,,,,,,,,,,,,,,,,,,,,,,,,,,,,,,,,,,,,,,,,,,,435.4040516639998,None,435.4040516639998,None,435.4040516639998,None,m,1,1.021739701000115,436.937391984,None,436.937391984,None,436.937391984,None,438.0207604570005,None,438.0207604570005,None,438.0207604570005,None,438.0207604570005,None,,,,,,,,,,,,,,,,,,,,,,,,,,,,,,,,,,,,,,,,,,,,001,152,2020_Feb_20_1218,spring_faces,3.2.3,60.001365751105155,
condition files/Stage1_1.xlsx,,B4,T4,m,"['c', 'm']","['Clue', 'Monopoly']","[-0.15, 0.5]","[0.15, 0.5]",1,1,,,,,,,,,0,2,2,2,0,3,3,7,,,,,,,,,,,,,,,,,,,,,,,,,,,,,,,,,,,,,,,,,,,,,,,,,,,,,,,440.00408699000036,None,440.00408699000036,None,440.00408699000036,None,c,0,1.3498237709991372,441.5374005190006,None,441.5374005190006,None,441.5374005190006,None,442.95400044500093,None,442.95400044500093,None,442.95400044500093,None,442.95400044500093,None,,,,,,,,,,,,,,,,,,,,,,,,,,,,,,,,,,,,,,,,,,,,001,152,2020_Feb_20_1218,spring_faces,3.2.3,60.001365751105155,
condition files/Stage1_1.xlsx,,T1,B1,c,"['c', 'm']","['Clue', 'Monopoly']","[-0.15, 0.5]","[0.15, 0.5]",1,1,,,,,,,,,0,2,2,2,0,4,4,0,,,,,,,,,,,,,,,,,,,,,,,,,,,,,,,,,,,,,,,,,,,,,,,,,,,,,,,444.9206699380011,None,444.9206699380011,None,444.9206699380011,None,c,1,1.4890583290016366,446.4540826850007,None,446.4540826850007,None,446.4540826850007,None,448.0207520519998,None,448.0207520519998,None,448.0207520519998,None,448.0207520519998,None,,,,,,,,,,,,,,,,,,,,,,,,,,,,,,,,,,,,,,,,,,,,001,152,2020_Feb_20_1218,spring_faces,3.2.3,60.001365751105155,
condition files/Stage1_1.xlsx,,B1,T2,c,"['c', 'm']","['Clue', 'Monopoly']","[-0.15, 0.5]","[0.15, 0.5]",1,1,,,,,,,,,0,2,2,2,0,5,5,1,,,,,,,,,,,,,,,,,,,,,,,,,,,,,,,,,,,,,,,,,,,,,,,,,,,,,,,449.98742211900026,None,449.98742211900026,None,449.98742211900026,None,m,0,1.5744191789999604,451.5207483200011,None,451.5207483200011,None,451.5207483200011,None,453.15407754700027,None,453.15407754700027,None,453.15407754700027,None,453.15407754700027,None,,,,,,,,,,,,,,,,,,,,,,,,,,,,,,,,,,,,,,,,,,,,001,152,2020_Feb_20_1218,spring_faces,3.2.3,60.001365751105155,
condition files/Stage1_1.xlsx,,B3,T3,c,"['c', 'm']","['Clue', 'Monopoly']","[-0.15, 0.5]","[0.15, 0.5]",1,1,,,,,,,,,0,2,2,2,0,6,6,4,,,,,,,,,,,,,,,,,,,,,,,,,,,,,,,,,,,,,,,,,,,,,,,,,,,,,,,455.1374093329996,None,455.1374093329996,None,455.1374093329996,None,m,0,1.8964854670011846,456.6707223230005,None,456.6707223230005,None,456.6707223230005,None,458.62074418700104,None,458.62074418700104,None,458.62074418700104,None,458.62074418700104,None,,,,,,,,,,,,,,,,,,,,,,,,,,,,,,,,,,,,,,,,,,,,001,152,2020_Feb_20_1218,spring_faces,3.2.3,60.001365751105155,
condition files/Stage1_1.xlsx,,B2,T1,m,"['c', 'm']","['Clue', 'Monopoly']","[-0.15, 0.5]","[0.15, 0.5]",1,1,,,,,,,,,0,2,2,2,0,7,7,2,,,,,,,,,,,,,,,,,,,,,,,,,,,,,,,,,,,,,,,,,,,,,,,,,,,,,,,460.6040628520004,None,460.6040628520004,None,460.6040628520004,None,m,1,0.909847486000217,462.13735344999986,None,462.13735344999986,None,462.13735344999986,None,463.12071863299934,None,463.12071863299934,None,463.12071863299934,None,463.12071863299934,None,,,,,,,,,,,,,,,,,,,,,,,,,,,,,,,,,,,,,,,,,,,,001,152,2020_Feb_20_1218,spring_faces,3.2.3,60.001365751105155,
condition files/Stage1_2.xlsx,,T3,B3,c,"['c', 'm']","['Clue', 'Monopoly']","[-0.15, 0.5]","[0.15, 0.5]",1,1,,,,,,,,,0,3,3,3,0,0,0,4,,,,,,,,,,,,,,,,,,,,,,,,,,,,,,,,,,,,,,,,,,,,,,,,,,,,,,,465.1040650240011,None,465.1040650240011,None,465.1040650240011,None,c,1,1.721787114000108,466.6373825219998,None,466.6373825219998,None,466.6373825219998,None,468.43741007599965,None,468.43741007599965,None,468.43741007599965,None,468.43741007599965,None,,,,,,,,,,,,,,,,,,,,,,,,,,,,,,,,,,,,,,,,,,,,001,152,2020_Feb_20_1218,spring_faces,3.2.3,60.001365751105155,
condition files/Stage1_2.xlsx,,B4,T3,c,"['c', 'm']","['Clue', 'Monopoly']","[-0.15, 0.5]","[0.15, 0.5]",1,1,,,,,,,,,0,3,3,3,0,1,1,5,,,,,,,,,,,,,,,,,,,,,,,,,,,,,,,,,,,,,,,,,,,,,,,,,,,,,,,470.40410858500036,None,470.40410858500036,None,470.40410858500036,None,c,1,1.3336741260009148,471.93742280900005,None,471.93742280900005,None,471.93742280900005,None,473.33735136200085,None,473.33735136200085,None,473.33735136200085,None,473.33735136200085,None,,,,,,,,,,,,,,,,,,,,,,,,,,,,,,,,,,,,,,,,,,,,001,152,2020_Feb_20_1218,spring_faces,3.2.3,60.001365751105155,
condition files/Stage1_2.xlsx,,T4,B4,m,"['c', 'm']","['Clue', 'Monopoly']","[-0.15, 0.5]","[0.15, 0.5]",1,1,,,,,,,,,0,3,3,3,0,2,2,7,,,,,,,,,,,,,,,,,,,,,,,,,,,,,,,,,,,,,,,,,,,,,,,,,,,,,,,475.3206681089996,None,475.3206681089996,None,475.3206681089996,None,m,1,1.6170245030007209,476.85407472599945,None,476.85407472599945,None,476.85407472599945,None,478.5540842570008,None,478.5540842570008,None,478.5540842570008,None,478.5540842570008,None,,,,,,,,,,,,,,,,,,,,,,,,,,,,,,,,,,,,,,,,,,,,001,152,2020_Feb_20_1218,spring_faces,3.2.3,60.001365751105155,
condition files/Stage1_2.xlsx,,B2,T2,m,"['c', 'm']","['Clue', 'Monopoly']","[-0.15, 0.5]","[0.15, 0.5]",1,1,,,,,,,,,0,3,3,3,0,3,3,3,,,,,,,,,,,,,,,,,,,,,,,,,,,,,,,,,,,,,,,,,,,,,,,,,,,,,,,480.52068426200094,None,480.52068426200094,None,480.52068426200094,None,m,1,1.3131128320001153,482.05410368199955,None,482.05410368199955,None,482.05410368199955,None,483.4207429350008,None,483.4207429350008,None,483.4207429350008,None,483.4207429350008,None,,,,,,,,,,,,,,,,,,,,,,,,,,,,,,,,,,,,,,,,,,,,001,152,2020_Feb_20_1218,spring_faces,3.2.3,60.001365751105155,
condition files/Stage1_2.xlsx,,B3,T4,m,"['c', 'm']","['Clue', 'Monopoly']","[-0.15, 0.5]","[0.15, 0.5]",1,1,,,,,,,,,0,3,3,3,0,4,4,6,,,,,,,,,,,,,,,,,,,,,,,,,,,,,,,,,,,,,,,,,,,,,,,,,,,,,,,485.4040574940009,None,485.4040574940009,None,485.4040574940009,None,m,1,1.325842747999559,486.9373597800004,None,486.9373597800004,None,486.9373597800004,None,488.32072502399933,None,488.32072502399933,None,488.32072502399933,None,488.32072502399933,None,,,,,,,,,,,,,,,,,,,,,,,,,,,,,,,,,,,,,,,,,,,,001,152,2020_Feb_20_1218,spring_faces,3.2.3,60.001365751105155,
condition files/Stage1_2.xlsx,,B1,T1,c,"['c', 'm']","['Clue', 'Monopoly']","[-0.15, 0.5]","[0.15, 0.5]",1,1,,,,,,,,,0,3,3,3,0,5,5,0,,,,,,,,,,,,,,,,,,,,,,,,,,,,,,,,,,,,,,,,,,,,,,,,,,,,,,,490.30406867199963,None,490.30406867199963,None,490.30406867199963,None,c,1,1.625775677999627,491.8373960019999,None,491.8373960019999,None,491.8373960019999,None,493.5374236440002,None,493.5374236440002,None,493.5374236440002,None,493.5374236440002,None,,,,,,,,,,,,,,,,,,,,,,,,,,,,,,,,,,,,,,,,,,,,001,152,2020_Feb_20_1218,spring_faces,3.2.3,60.001365751105155,
condition files/Stage1_2.xlsx,,T1,B2,m,"['c', 'm']","['Clue', 'Monopoly']","[-0.15, 0.5]","[0.15, 0.5]",1,1,,,,,,,,,0,3,3,3,0,6,6,2,,,,,,,,,,,,,,,,,,,,,,,,,,,,,,,,,,,,,,,,,,,,,,,,,,,,,,,495.50409724600104,None,495.50409724600104,None,495.50409724600104,None,c,0,1.1137962740012881,497.03742853199947,None,497.03742853199947,None,497.03742853199947,None,498.22062919699965,None,498.22062919699965,None,498.22062919699965,None,498.22062919699965,None,,,,,,,,,,,,,,,,,,,,,,,,,,,,,,,,,,,,,,,,,,,,001,152,2020_Feb_20_1218,spring_faces,3.2.3,60.001365751105155,
condition files/Stage1_2.xlsx,,T2,B1,c,"['c', 'm']","['Clue', 'Monopoly']","[-0.15, 0.5]","[0.15, 0.5]",1,1,,,,,,,,,0,3,3,3,0,7,7,1,,,,,,,,,,,,,,,,,,,,,,,,,,,,,,,,,,,,,,,,,,,,,,,,,,,,,,,500.18744007500027,None,500.18744007500027,None,500.18744007500027,None,c,1,1.2146056100009446,501.7206864109994,None,501.7206864109994,None,501.7206864109994,None,503.0040769059997,None,503.0040769059997,None,503.0040769059997,None,503.0040769059997,None,,,,,,,,,,,,,,,,,,,,,,,,,,,,,,,,,,,,,,,,,,,,001,152,2020_Feb_20_1218,spring_faces,3.2.3,60.001365751105155,
condition files/Stage1_1.xlsx,,B3,T3,c,"['c', 'm']","['Clue', 'Monopoly']","[-0.15, 0.5]","[0.15, 0.5]",1,1,,,,,,,,,0,4,4,4,0,0,0,4,,,,,,,,,,,,,,,,,,,,,,,,,,,,,,,,,,,,,,,,,,,,,,,,,,,,,,,504.9874063650004,None,504.9874063650004,None,504.9874063650004,None,c,1,1.5503438470004767,506.5207580639999,None,506.5207580639999,None,506.5207580639999,None,508.1373368370005,None,508.1373368370005,None,508.1373368370005,None,508.1373368370005,None,,,,,,,,,,,,,,,,,,,,,,,,,,,,,,,,,,,,,,,,,,,,001,152,2020_Feb_20_1218,spring_faces,3.2.3,60.001365751105155,
condition files/Stage1_1.xlsx,,T3,B4,c,"['c', 'm']","['Clue', 'Monopoly']","[-0.15, 0.5]","[0.15, 0.5]",1,1,,,,,,,,,0,4,4,4,0,1,1,5,,,,,,,,,,,,,,,,,,,,,,,,,,,,,,,,,,,,,,,,,,,,,,,,,,,,,,,510.12077492500066,None,510.12077492500066,None,510.12077492500066,None,c,1,1.2491851600007067,511.65407575599966,None,511.65407575599966,None,511.65407575599966,None,512.9537225950007,None,512.9537225950007,None,512.9537225950007,None,512.9537225950007,None,,,,,,,,,,,,,,,,,,,,,,,,,,,,,,,,,,,,,,,,,,,,001,152,2020_Feb_20_1218,spring_faces,3.2.3,60.001365751105155,
condition files/Stage1_1.xlsx,,B4,T4,m,"['c', 'm']","['Clue', 'Monopoly']","[-0.15, 0.5]","[0.15, 0.5]",1,1,,,,,,,,,0,4,4,4,0,2,2,7,,,,,,,,,,,,,,,,,,,,,,,,,,,,,,,,,,,,,,,,,,,,,,,,,,,,,,,514.9373974320006,None,514.9373974320006,None,514.9373974320006,None,m,1,1.2804907860008825,516.4707278540009,None,516.4707278540009,None,516.4707278540009,None,517.8206006569999,None,517.8206006569999,None,517.8206006569999,None,517.8206006569999,None,,,,,,,,,,,,,,,,,,,,,,,,,,,,,,,,,,,,,,,,,,,,001,152,2020_Feb_20_1218,spring_faces,3.2.3,60.001365751105155,
condition files/Stage1_1.xlsx,,T4,B3,m,"['c', 'm']","['Clue', 'Monopoly']","[-0.15, 0.5]","[0.15, 0.5]",1,1,,,,,,,,,0,4,4,4,0,3,3,6,,,,,,,,,,,,,,,,,,,,,,,,,,,,,,,,,,,,,,,,,,,,,,,,,,,,,,,519.7873950360008,None,519.7873950360008,None,519.7873950360008,None,m,1,1.246564725999633,521.3206726370008,None,521.3206726370008,None,521.3206726370008,None,522.6206041530004,None,522.6206041530004,None,522.6206041530004,None,522.6206041530004,None,,,,,,,,,,,,,,,,,,,,,,,,,,,,,,,,,,,,,,,,,,,,001,152,2020_Feb_20_1218,spring_faces,3.2.3,60.001365751105155,
condition files/Stage1_1.xlsx,,T2,B2,m,"['c', 'm']","['Clue', 'Monopoly']","[-0.15, 0.5]","[0.15, 0.5]",1,1,,,,,,,,,0,4,4,4,0,4,4,3,,,,,,,,,,,,,,,,,,,,,,,,,,,,,,,,,,,,,,,,,,,,,,,,,,,,,,,524.604043143001,None,524.604043143001,None,524.604043143001,None,m,1,1.0857206799992127,526.137413728,None,526.137413728,None,526.137413728,None,527.2874208810008,None,527.2874208810008,None,527.2874208810008,None,527.2874208810008,None,,,,,,,,,,,,,,,,,,,,,,,,,,,,,,,,,,,,,,,,,,,,001,152,2020_Feb_20_1218,spring_faces,3.2.3,60.001365751105155,
condition files/Stage1_1.xlsx,,T1,B1,c,"['c', 'm']","['Clue', 'Monopoly']","[-0.15, 0.5]","[0.15, 0.5]",1,1,,,,,,,,,0,4,4,4,0,5,5,0,,,,,,,,,,,,,,,,,,,,,,,,,,,,,,,,,,,,,,,,,,,,,,,,,,,,,,,529.2707423280008,None,529.2707423280008,None,529.2707423280008,None,c,1,1.4751049830010743,530.8040812790005,None,530.8040812790005,None,530.8040812790005,None,532.3540749269996,None,532.3540749269996,None,532.3540749269996,None,532.3540749269996,None,,,,,,,,,,,,,,,,,,,,,,,,,,,,,,,,,,,,,,,,,,,,001,152,2020_Feb_20_1218,spring_faces,3.2.3,60.001365751105155,
condition files/Stage1_1.xlsx,,B1,T2,c,"['c', 'm']","['Clue', 'Monopoly']","[-0.15, 0.5]","[0.15, 0.5]",1,1,,,,,,,,,0,4,4,4,0,6,6,1,,,,,,,,,,,,,,,,,,,,,,,,,,,,,,,,,,,,,,,,,,,,,,,,,,,,,,,534.3207813869994,None,534.3207813869994,None,534.3207813869994,None,c,1,1.1450952179984597,535.854081241001,None,535.854081241001,None,535.854081241001,None,537.0540769590007,None,537.0540769590007,None,537.0540769590007,None,537.0540769590007,None,,,,,,,,,,,,,,,,,,,,,,,,,,,,,,,,,,,,,,,,,,,,001,152,2020_Feb_20_1218,spring_faces,3.2.3,60.001365751105155,
condition files/Stage1_1.xlsx,,B2,T1,m,"['c', 'm']","['Clue', 'Monopoly']","[-0.15, 0.5]","[0.15, 0.5]",1,1,,,,,,,,,0,4,4,4,0,7,7,2,,,,,,,,,,,,,,,,,,,,,,,,,,,,,,,,,,,,,,,,,,,,,,,,,,,,,,,539.0373999469994,None,539.0373999469994,None,539.0373999469994,None,m,1,1.1486197829999583,540.5706587519999,None,540.5706587519999,None,540.5706587519999,None,541.7873888419999,None,541.7873888419999,None,541.7873888419999,None,541.7873888419999,None,,,,,,,,,,,,,,,,,,,,,,,,,,,,,,,,,,,,,,,,,,,,001,152,2020_Feb_20_1218,spring_faces,3.2.3,60.001365751105155,
condition files/Stage1_2.xlsx,,T3,B3,c,"['c', 'm']","['Clue', 'Monopoly']","[-0.15, 0.5]","[0.15, 0.5]",1,1,,,,,,,,,0,5,5,5,0,0,0,4,,,,,,,,,,,,,,,,,,,,,,,,,,,,,,,,,,,,,,,,,,,,,,,,,,,,,,,543.7706712849995,None,543.7706712849995,None,543.7706712849995,None,c,1,1.9511048889999074,545.3040076790003,None,545.3040076790003,None,545.3040076790003,None,547.3374335580011,None,547.3374335580011,None,547.3374335580011,None,547.3374335580011,None,,,,,,,,,,,,,,,,,,,,,,,,,,,,,,,,,,,,,,,,,,,,001,152,2020_Feb_20_1218,spring_faces,3.2.3,60.001365751105155,
condition files/Stage1_2.xlsx,,B4,T3,c,"['c', 'm']","['Clue', 'Monopoly']","[-0.15, 0.5]","[0.15, 0.5]",1,1,,,,,,,,,0,5,5,5,0,1,1,5,,,,,,,,,,,,,,,,,,,,,,,,,,,,,,,,,,,,,,,,,,,,,,,,,,,,,,,549.3040035249996,None,549.3040035249996,None,549.3040035249996,None,c,1,1.281841957999859,550.8374158480001,None,550.8374158480001,None,550.8374158480001,None,552.1706838290011,None,552.1706838290011,None,552.1706838290011,None,552.1706838290011,None,,,,,,,,,,,,,,,,,,,,,,,,,,,,,,,,,,,,,,,,,,,,001,152,2020_Feb_20_1218,spring_faces,3.2.3,60.001365751105155,
condition files/Stage1_2.xlsx,,B2,T2,m,"['c', 'm']","['Clue', 'Monopoly']","[-0.15, 0.5]","[0.15, 0.5]",1,1,,,,,,,,,0,5,5,5,0,2,2,3,,,,,,,,,,,,,,,,,,,,,,,,,,,,,,,,,,,,,,,,,,,,,,,,,,,,,,,554.1540006489995,None,554.1540006489995,None,554.1540006489995,None,m,1,1.055763966000086,555.6874170080009,None,555.6874170080009,None,555.6874170080009,None,556.8207274249999,None,556.8207274249999,None,556.8207274249999,None,556.8207274249999,None,,,,,,,,,,,,,,,,,,,,,,,,,,,,,,,,,,,,,,,,,,,,001,152,2020_Feb_20_1218,spring_faces,3.2.3,60.001365751105155,
condition files/Stage1_2.xlsx,,B3,T4,m,"['c', 'm']","['Clue', 'Monopoly']","[-0.15, 0.5]","[0.15, 0.5]",1,1,,,,,,,,,0,5,5,5,0,3,3,6,,,,,,,,,,,,,,,,,,,,,,,,,,,,,,,,,,,,,,,,,,,,,,,,,,,,,,,558.7873754190005,None,558.7873754190005,None,558.7873754190005,None,m,1,1.2544163660004415,560.3207297740009,None,560.3207297740009,None,560.3207297740009,None,561.6373821300003,None,561.6373821300003,None,561.6373821300003,None,561.6373821300003,None,,,,,,,,,,,,,,,,,,,,,,,,,,,,,,,,,,,,,,,,,,,,001,152,2020_Feb_20_1218,spring_faces,3.2.3,60.001365751105155,
condition files/Stage1_2.xlsx,,T4,B4,m,"['c', 'm']","['Clue', 'Monopoly']","[-0.15, 0.5]","[0.15, 0.5]",1,1,,,,,,,,,0,5,5,5,0,4,4,7,,,,,,,,,,,,,,,,,,,,,,,,,,,,,,,,,,,,,,,,,,,,,,,,,,,,,,,563.6207276820005,None,563.6207276820005,None,563.6207276820005,None,m,1,4.789102835000449,565.1540526940007,None,565.1540526940007,None,565.1540526940007,None,570.0207618439999,None,570.0207618439999,None,570.0207618439999,None,570.0207618439999,None,,,,,,,,,,,,,,,,,,,,,,,,,,,,,,,,,,,,,,,,,,,,001,152,2020_Feb_20_1218,spring_faces,3.2.3,60.001365751105155,
condition files/Stage1_2.xlsx,,B1,T1,c,"['c', 'm']","['Clue', 'Monopoly']","[-0.15, 0.5]","[0.15, 0.5]",1,1,,,,,,,,,0,5,5,5,0,5,5,0,,,,,,,,,,,,,,,,,,,,,,,,,,,,,,,,,,,,,,,,,,,,,,,,,,,,,,,571.987432285001,None,571.987432285001,None,571.987432285001,None,c,1,1.4623283920009271,573.5207543270008,None,573.5207543270008,None,573.5207543270008,None,575.0540769600011,None,575.0540769600011,None,575.0540769600011,None,575.0540769600011,None,,,,,,,,,,,,,,,,,,,,,,,,,,,,,,,,,,,,,,,,,,,,001,152,2020_Feb_20_1218,spring_faces,3.2.3,60.001365751105155,
condition files/Stage1_2.xlsx,,T1,B2,m,"['c', 'm']","['Clue', 'Monopoly']","[-0.15, 0.5]","[0.15, 0.5]",1,1,,,,,,,,,0,5,5,5,0,6,6,2,,,,,,,,,,,,,,,,,,,,,,,,,,,,,,,,,,,,,,,,,,,,,,,,,,,,,,,577.0207264540004,None,577.0207264540004,None,577.0207264540004,None,m,1,1.3890976090006006,578.5540601190005,None,578.5540601190005,None,578.5540601190005,None,580.020767901,None,580.020767901,None,580.020767901,None,580.020767901,None,,,,,,,,,,,,,,,,,,,,,,,,,,,,,,,,,,,,,,,,,,,,001,152,2020_Feb_20_1218,spring_faces,3.2.3,60.001365751105155,
condition files/Stage1_2.xlsx,,T2,B1,c,"['c', 'm']","['Clue', 'Monopoly']","[-0.15, 0.5]","[0.15, 0.5]",1,1,,,,,,,,,0,5,5,5,0,7,7,1,,,,,,,,,,,,,,,,,,,,,,,,,,,,,,,,,,,,,,,,,,,,,,,,,,,,,,,581.9874256470011,None,581.9874256470011,None,581.9874256470011,None,c,1,1.094414590001179,583.5207616770003,None,583.5207616770003,None,583.5207616770003,None,584.6874004620004,None,584.6874004620004,None,584.6874004620004,None,584.6874004620004,None,,,,,,,,,,,,,,,,,,,,,,,,,,,,,,,,,,,,,,,,,,,,001,152,2020_Feb_20_1218,spring_faces,3.2.3,60.001365751105155,
condition files/Stage1_1.xlsx,,T3,B4,c,"['c', 'm']","['Clue', 'Monopoly']","[-0.15, 0.5]","[0.15, 0.5]",1,1,,,,,,,,,0,6,6,6,0,0,0,5,,,,,,,,,,,,,,,,,,,,,,,,,,,,,,,,,,,,,,,,,,,,,,,,,,,,,,,586.6707455560008,None,586.6707455560008,None,586.6707455560008,None,c,1,2.2832028309985617,588.2040484850004,None,588.2040484850004,None,588.2040484850004,None,590.5373921980008,None,590.5373921980008,None,590.5373921980008,None,590.5373921980008,None,,,,,,,,,,,,,,,,,,,,,,,,,,,,,,,,,,,,,,,,,,,,001,152,2020_Feb_20_1218,spring_faces,3.2.3,60.001365751105155,
condition files/Stage1_1.xlsx,,T2,B2,m,"['c', 'm']","['Clue', 'Monopoly']","[-0.15, 0.5]","[0.15, 0.5]",1,1,,,,,,,,,0,6,6,6,0,1,1,3,,,,,,,,,,,,,,,,,,,,,,,,,,,,,,,,,,,,,,,,,,,,,,,,,,,,,,,592.5207511370008,None,592.5207511370008,None,592.5207511370008,None,m,1,1.2811331360007898,594.0540978549998,None,594.0540978549998,None,594.0540978549998,None,595.4040721870006,None,595.4040721870006,None,595.4040721870006,None,595.4040721870006,None,,,,,,,,,,,,,,,,,,,,,,,,,,,,,,,,,,,,,,,,,,,,001,152,2020_Feb_20_1218,spring_faces,3.2.3,60.001365751105155,
condition files/Stage1_1.xlsx,,T4,B3,m,"['c', 'm']","['Clue', 'Monopoly']","[-0.15, 0.5]","[0.15, 0.5]",1,1,,,,,,,,,0,6,6,6,0,2,2,6,,,,,,,,,,,,,,,,,,,,,,,,,,,,,,,,,,,,,,,,,,,,,,,,,,,,,,,597.370700042,None,597.370700042,None,597.370700042,None,m,1,1.2472105439992447,598.9040394250005,None,598.9040394250005,None,598.9040394250005,None,600.220623313,None,600.220623313,None,600.220623313,None,600.220623313,None,,,,,,,,,,,,,,,,,,,,,,,,,,,,,,,,,,,,,,,,,,,,001,152,2020_Feb_20_1218,spring_faces,3.2.3,60.001365751105155,
condition files/Stage1_1.xlsx,,T1,B1,c,"['c', 'm']","['Clue', 'Monopoly']","[-0.15, 0.5]","[0.15, 0.5]",1,1,,,,,,,,,0,6,6,6,0,3,3,0,,,,,,,,,,,,,,,,,,,,,,,,,,,,,,,,,,,,,,,,,,,,,,,,,,,,,,,602.1874229770001,None,602.1874229770001,None,602.1874229770001,None,c,1,1.6784969020009157,603.7207078909996,None,603.7207078909996,None,603.7207078909996,None,605.4707849850001,None,605.4707849850001,None,605.4707849850001,None,605.4707849850001,None,,,,,,,,,,,,,,,,,,,,,,,,,,,,,,,,,,,,,,,,,,,,001,152,2020_Feb_20_1218,spring_faces,3.2.3,60.001365751105155,
condition files/Stage1_1.xlsx,,B2,T1,m,"['c', 'm']","['Clue', 'Monopoly']","[-0.15, 0.5]","[0.15, 0.5]",1,1,,,,,,,,,0,6,6,6,0,4,4,2,,,,,,,,,,,,,,,,,,,,,,,,,,,,,,,,,,,,,,,,,,,,,,,,,,,,,,,607.4374424470006,None,607.4374424470006,None,607.4374424470006,None,m,1,1.9326022860004741,608.9707002650011,None,608.9707002650011,None,608.9707002650011,None,610.9707262820011,None,610.9707262820011,None,610.9707262820011,None,610.9707262820011,None,,,,,,,,,,,,,,,,,,,,,,,,,,,,,,,,,,,,,,,,,,,,001,152,2020_Feb_20_1218,spring_faces,3.2.3,60.001365751105155,
condition files/Stage1_1.xlsx,,B1,T2,c,"['c', 'm']","['Clue', 'Monopoly']","[-0.15, 0.5]","[0.15, 0.5]",1,1,,,,,,,,,0,6,6,6,0,5,5,1,,,,,,,,,,,,,,,,,,,,,,,,,,,,,,,,,,,,,,,,,,,,,,,,,,,,,,,612.9373534400002,None,612.9373534400002,None,612.9373534400002,None,c,1,1.776457018999281,614.470721224001,None,614.470721224001,None,614.470721224001,None,616.3207245440008,None,616.3207245440008,None,616.3207245440008,None,616.3207245440008,None,,,,,,,,,,,,,,,,,,,,,,,,,,,,,,,,,,,,,,,,,,,,001,152,2020_Feb_20_1218,spring_faces,3.2.3,60.001365751105155,
condition files/Stage1_1.xlsx,,B4,T4,m,"['c', 'm']","['Clue', 'Monopoly']","[-0.15, 0.5]","[0.15, 0.5]",1,1,,,,,,,,,0,6,6,6,0,6,6,7,,,,,,,,,,,,,,,,,,,,,,,,,,,,,,,,,,,,,,,,,,,,,,,,,,,,,,,618.2874338210004,None,618.2874338210004,None,618.2874338210004,None,m,1,1.1464986599985423,619.8207308760011,None,619.8207308760011,None,619.8207308760011,None,621.0373941670005,None,621.0373941670005,None,621.0373941670005,None,621.0373941670005,None,,,,,,,,,,,,,,,,,,,,,,,,,,,,,,,,,,,,,,,,,,,,001,152,2020_Feb_20_1218,spring_faces,3.2.3,60.001365751105155,
condition files/Stage1_1.xlsx,,B3,T3,c,"['c', 'm']","['Clue', 'Monopoly']","[-0.15, 0.5]","[0.15, 0.5]",1,1,,,,,,,,,0,6,6,6,0,7,7,4,,,,,,,,,,,,,,,,,,,,,,,,,,,,,,,,,,,,,,,,,,,,,,,,,,,,,,,623.0040692920011,None,623.0040692920011,None,623.0040692920011,None,c,1,1.5499192120005318,624.5373397109997,None,624.5373397109997,None,624.5373397109997,None,626.1540572140002,None,626.1540572140002,None,626.1540572140002,None,626.1540572140002,None,,,,,,,,,,,,,,,,,,,,,,,,,,,,,,,,,,,,,,,,,,,,001,152,2020_Feb_20_1218,spring_faces,3.2.3,60.001365751105155,
condition files/Stage1_2.xlsx,,B1,T1,c,"['c', 'm']","['Clue', 'Monopoly']","[-0.15, 0.5]","[0.15, 0.5]",1,1,,,,,,,,,0,7,7,7,0,0,0,0,,,,,,,,,,,,,,,,,,,,,,,,,,,,,,,,,,,,,,,,,,,,,,,,,,,,,,,628.1374129390006,None,628.1374129390006,None,628.1374129390006,None,c,1,1.37645530699956,629.670734153,None,629.670734153,None,629.670734153,None,631.1207452449999,None,631.1207452449999,None,631.1207452449999,None,631.1207452449999,None,,,,,,,,,,,,,,,,,,,,,,,,,,,,,,,,,,,,,,,,,,,,001,152,2020_Feb_20_1218,spring_faces,3.2.3,60.001365751105155,
condition files/Stage1_2.xlsx,,T2,B1,c,"['c', 'm']","['Clue', 'Monopoly']","[-0.15, 0.5]","[0.15, 0.5]",1,1,,,,,,,,,0,7,7,7,0,1,1,1,,,,,,,,,,,,,,,,,,,,,,,,,,,,,,,,,,,,,,,,,,,,,,,,,,,,,,,633.0874355579999,None,633.0874355579999,None,633.0874355579999,None,c,1,1.2904454079998686,634.6207242140008,None,634.6207242140008,None,634.6207242140008,None,635.9874196889996,None,635.9874196889996,None,635.9874196889996,None,635.9874196889996,None,,,,,,,,,,,,,,,,,,,,,,,,,,,,,,,,,,,,,,,,,,,,001,152,2020_Feb_20_1218,spring_faces,3.2.3,60.001365751105155,
condition files/Stage1_2.xlsx,,B2,T2,m,"['c', 'm']","['Clue', 'Monopoly']","[-0.15, 0.5]","[0.15, 0.5]",1,1,,,,,,,,,0,7,7,7,0,2,2,3,,,,,,,,,,,,,,,,,,,,,,,,,,,,,,,,,,,,,,,,,,,,,,,,,,,,,,,637.954097961001,None,637.954097961001,None,637.954097961001,None,m,1,1.159754663998683,639.4874148050003,None,639.4874148050003,None,639.4874148050003,None,640.7207430340004,None,640.7207430340004,None,640.7207430340004,None,640.7207430340004,None,,,,,,,,,,,,,,,,,,,,,,,,,,,,,,,,,,,,,,,,,,,,001,152,2020_Feb_20_1218,spring_faces,3.2.3,60.001365751105155,
condition files/Stage1_2.xlsx,,T3,B3,c,"['c', 'm']","['Clue', 'Monopoly']","[-0.15, 0.5]","[0.15, 0.5]",1,1,,,,,,,,,0,7,7,7,0,3,3,4,,,,,,,,,,,,,,,,,,,,,,,,,,,,,,,,,,,,,,,,,,,,,,,,,,,,,,,642.6874321409996,None,642.6874321409996,None,642.6874321409996,None,c,1,1.4343547530006617,644.2207285010008,None,644.2207285010008,None,644.2207285010008,None,645.7373847970011,None,645.7373847970011,None,645.7373847970011,None,645.7373847970011,None,,,,,,,,,,,,,,,,,,,,,,,,,,,,,,,,,,,,,,,,,,,,001,152,2020_Feb_20_1218,spring_faces,3.2.3,60.001365751105155,
condition files/Stage1_2.xlsx,,T4,B4,m,"['c', 'm']","['Clue', 'Monopoly']","[-0.15, 0.5]","[0.15, 0.5]",1,1,,,,,,,,,0,7,7,7,0,4,4,7,,,,,,,,,,,,,,,,,,,,,,,,,,,,,,,,,,,,,,,,,,,,,,,,,,,,,,,647.703992607001,None,647.703992607001,None,647.703992607001,None,m,1,1.2016938059987297,649.237387049001,None,649.237387049001,None,649.237387049001,None,650.5204966370002,None,650.5204966370002,None,650.5204966370002,None,650.5204966370002,None,,,,,,,,,,,,,,,,,,,,,,,,,,,,,,,,,,,,,,,,,,,,001,152,2020_Feb_20_1218,spring_faces,3.2.3,60.001365751105155,
condition files/Stage1_2.xlsx,,B3,T4,m,"['c', 'm']","['Clue', 'Monopoly']","[-0.15, 0.5]","[0.15, 0.5]",1,1,,,,,,,,,0,7,7,7,0,5,5,6,,,,,,,,,,,,,,,,,,,,,,,,,,,,,,,,,,,,,,,,,,,,,,,,,,,,,,,652.4874041960011,None,652.4874041960011,None,652.4874041960011,None,m,1,0.9303832080004213,654.0207782859998,None,654.0207782859998,None,654.0207782859998,None,655.004091449,None,655.004091449,None,655.004091449,None,655.004091449,None,,,,,,,,,,,,,,,,,,,,,,,,,,,,,,,,,,,,,,,,,,,,001,152,2020_Feb_20_1218,spring_faces,3.2.3,60.001365751105155,
condition files/Stage1_2.xlsx,,T1,B2,m,"['c', 'm']","['Clue', 'Monopoly']","[-0.15, 0.5]","[0.15, 0.5]",1,1,,,,,,,,,0,7,7,7,0,6,6,2,,,,,,,,,,,,,,,,,,,,,,,,,,,,,,,,,,,,,,,,,,,,,,,,,,,,,,,656.9874157960003,None,656.9874157960003,None,656.9874157960003,None,m,1,1.1504282120004063,658.5206957499995,None,658.5206957499995,None,658.5206957499995,None,659.7374132770001,None,659.7374132770001,None,659.7374132770001,None,659.7374132770001,None,,,,,,,,,,,,,,,,,,,,,,,,,,,,,,,,,,,,,,,,,,,,001,152,2020_Feb_20_1218,spring_faces,3.2.3,60.001365751105155,
condition files/Stage1_2.xlsx,,B4,T3,c,"['c', 'm']","['Clue', 'Monopoly']","[-0.15, 0.5]","[0.15, 0.5]",1,1,,,,,,,,,0,7,7,7,0,7,7,5,,,,,,,,,,,,,,,,,,,,,,,,,,,,,,,,,,,,,,,,,,,,,,,,,,,,,,,661.7206515939997,None,661.7206515939997,None,661.7206515939997,None,c,1,1.34510934500031,663.2540667089997,None,663.2540667089997,None,663.2540667089997,None,664.6707578540008,None,664.6707578540008,None,664.6707578540008,None,664.6707578540008,None,,,,,,,,,,,,,,,,,,,,,,,,,,,,,,,,,,,,,,,,,,,,001,152,2020_Feb_20_1218,spring_faces,3.2.3,60.001365751105155,
condition files/Stage1_1.xlsx,,T1,B1,c,"['c', 'm']","['Clue', 'Monopoly']","[-0.15, 0.5]","[0.15, 0.5]",1,1,,,,,,,,,0,8,8,8,0,0,0,0,,,,,,,,,,,,,,,,,,,,,,,,,,,,,,,,,,,,,,,,,,,,,,,,,,,,,,,666.654074682001,None,666.654074682001,None,666.654074682001,None,c,1,1.3239174289992661,668.1872899120008,None,668.1872899120008,None,668.1872899120008,None,669.5706767299998,None,669.5706767299998,None,669.5706767299998,None,669.5706767299998,None,,,,,,,,,,,,,,,,,,,,,,,,,,,,,,,,,,,,,,,,,,,,001,152,2020_Feb_20_1218,spring_faces,3.2.3,60.001365751105155,
condition files/Stage1_1.xlsx,,B3,T3,c,"['c', 'm']","['Clue', 'Monopoly']","[-0.15, 0.5]","[0.15, 0.5]",1,1,,,,,,,,,0,8,8,8,0,1,1,4,,,,,,,,,,,,,,,,,,,,,,,,,,,,,,,,,,,,,,,,,,,,,,,,,,,,,,,671.5540927689999,None,671.5540927689999,None,671.5540927689999,None,c,1,1.0318690270014486,673.0873997399995,None,673.0873997399995,None,673.0873997399995,None,674.1706998000009,None,674.1706998000009,None,674.1706998000009,None,674.1706998000009,None,,,,,,,,,,,,,,,,,,,,,,,,,,,,,,,,,,,,,,,,,,,,001,152,2020_Feb_20_1218,spring_faces,3.2.3,60.001365751105155,
condition files/Stage1_1.xlsx,,B4,T4,m,"['c', 'm']","['Clue', 'Monopoly']","[-0.15, 0.5]","[0.15, 0.5]",1,1,,,,,,,,,0,8,8,8,0,2,2,7,,,,,,,,,,,,,,,,,,,,,,,,,,,,,,,,,,,,,,,,,,,,,,,,,,,,,,,676.1540952070009,None,676.1540952070009,None,676.1540952070009,None,m,1,1.0877157640006772,677.6874176630008,None,677.6874176630008,None,677.6874176630008,None,678.8540896970007,None,678.8540896970007,None,678.8540896970007,None,678.8540896970007,None,,,,,,,,,,,,,,,,,,,,,,,,,,,,,,,,,,,,,,,,,,,,001,152,2020_Feb_20_1218,spring_faces,3.2.3,60.001365751105155,
condition files/Stage1_1.xlsx,,T2,B2,m,"['c', 'm']","['Clue', 'Monopoly']","[-0.15, 0.5]","[0.15, 0.5]",1,1,,,,,,,,,0,8,8,8,0,3,3,3,,,,,,,,,,,,,,,,,,,,,,,,,,,,,,,,,,,,,,,,,,,,,,,,,,,,,,,680.820744486,None,680.820744486,None,680.820744486,None,m,1,0.8050568420003401,682.3540870050001,None,682.3540870050001,None,682.3540870050001,None,683.2207264240005,None,683.2207264240005,None,683.2207264240005,None,683.2207264240005,None,,,,,,,,,,,,,,,,,,,,,,,,,,,,,,,,,,,,,,,,,,,,001,152,2020_Feb_20_1218,spring_faces,3.2.3,60.001365751105155,
condition files/Stage1_1.xlsx,,T3,B4,c,"['c', 'm']","['Clue', 'Monopoly']","[-0.15, 0.5]","[0.15, 0.5]",1,1,,,,,,,,,0,8,8,8,0,4,4,5,,,,,,,,,,,,,,,,,,,,,,,,,,,,,,,,,,,,,,,,,,,,,,,,,,,,,,,685.2040619230011,None,685.2040619230011,None,685.2040619230011,None,c,1,1.1737232739997125,686.7374414559999,None,686.7374414559999,None,686.7374414559999,None,687.987433069,None,687.987433069,None,687.987433069,None,687.987433069,None,,,,,,,,,,,,,,,,,,,,,,,,,,,,,,,,,,,,,,,,,,,,001,152,2020_Feb_20_1218,spring_faces,3.2.3,60.001365751105155,
condition files/Stage1_1.xlsx,,T4,B3,m,"['c', 'm']","['Clue', 'Monopoly']","[-0.15, 0.5]","[0.15, 0.5]",1,1,,,,,,,,,0,8,8,8,0,5,5,6,,,,,,,,,,,,,,,,,,,,,,,,,,,,,,,,,,,,,,,,,,,,,,,,,,,,,,,689.954061411001,None,689.954061411001,None,689.954061411001,None,m,1,1.3197617280002305,691.4873944610008,None,691.4873944610008,None,691.4873944610008,None,692.8874872630004,None,692.8874872630004,None,692.8874872630004,None,692.8874872630004,None,,,,,,,,,,,,,,,,,,,,,,,,,,,,,,,,,,,,,,,,,,,,001,152,2020_Feb_20_1218,spring_faces,3.2.3,60.001365751105155,
condition files/Stage1_1.xlsx,,B1,T2,c,"['c', 'm']","['Clue', 'Monopoly']","[-0.15, 0.5]","[0.15, 0.5]",1,1,,,,,,,,,0,8,8,8,0,6,6,1,,,,,,,,,,,,,,,,,,,,,,,,,,,,,,,,,,,,,,,,,,,,,,,,,,,,,,,694.8541175549999,None,694.8541175549999,None,694.8541175549999,None,c,1,2.0037502220002352,696.3874166980004,None,696.3874166980004,None,696.3874166980004,None,698.4707460730006,None,698.4707460730006,None,698.4707460730006,None,698.4707460730006,None,,,,,,,,,,,,,,,,,,,,,,,,,,,,,,,,,,,,,,,,,,,,001,152,2020_Feb_20_1218,spring_faces,3.2.3,60.001365751105155,
condition files/Stage1_1.xlsx,,B2,T1,m,"['c', 'm']","['Clue', 'Monopoly']","[-0.15, 0.5]","[0.15, 0.5]",1,1,,,,,,,,,0,8,8,8,0,7,7,2,,,,,,,,,,,,,,,,,,,,,,,,,,,,,,,,,,,,,,,,,,,,,,,,,,,,,,,700.4374455440011,None,700.4374455440011,None,700.4374455440011,None,m,1,0.9485049900013109,701.970747673,None,701.970747673,None,701.970747673,None,702.9874201580005,None,702.9874201580005,None,702.9874201580005,None,702.9874201580005,None,,,,,,,,,,,,,,,,,,,,,,,,,,,,,,,,,,,,,,,,,,,,001,152,2020_Feb_20_1218,spring_faces,3.2.3,60.001365751105155,
condition files/Stage1_2.xlsx,,B2,T2,m,"['c', 'm']","['Clue', 'Monopoly']","[-0.15, 0.5]","[0.15, 0.5]",1,1,,,,,,,,,0,9,9,9,0,0,0,3,,,,,,,,,,,,,,,,,,,,,,,,,,,,,,,,,,,,,,,,,,,,,,,,,,,,,,,704.9707021720005,None,704.9707021720005,None,704.9707021720005,None,m,1,1.0391507410004124,706.5040353240001,None,706.5040353240001,None,706.5040353240001,None,707.6207469550009,None,707.6207469550009,None,707.6207469550009,None,707.6207469550009,None,,,,,,,,,,,,,,,,,,,,,,,,,,,,,,,,,,,,,,,,,,,,001,152,2020_Feb_20_1218,spring_faces,3.2.3,60.001365751105155,
condition files/Stage1_2.xlsx,,B3,T4,m,"['c', 'm']","['Clue', 'Monopoly']","[-0.15, 0.5]","[0.15, 0.5]",1,1,,,,,,,,,0,9,9,9,0,1,1,6,,,,,,,,,,,,,,,,,,,,,,,,,,,,,,,,,,,,,,,,,,,,,,,,,,,,,,,709.5874278440006,None,709.5874278440006,None,709.5874278440006,None,m,1,1.1584131060008076,711.120750393,None,711.120750393,None,711.120750393,None,712.3373909969996,None,712.3373909969996,None,712.3373909969996,None,712.3373909969996,None,,,,,,,,,,,,,,,,,,,,,,,,,,,,,,,,,,,,,,,,,,,,001,152,2020_Feb_20_1218,spring_faces,3.2.3,60.001365751105155,
condition files/Stage1_2.xlsx,,B4,T3,c,"['c', 'm']","['Clue', 'Monopoly']","[-0.15, 0.5]","[0.15, 0.5]",1,1,,,,,,,,,0,9,9,9,0,2,2,5,,,,,,,,,,,,,,,,,,,,,,,,,,,,,,,,,,,,,,,,,,,,,,,,,,,,,,,714.3207510779994,None,714.3207510779994,None,714.3207510779994,None,c,1,1.0651726550004241,715.8540952969997,None,715.8540952969997,None,715.8540952969997,None,716.987393509,None,716.987393509,None,716.987393509,None,716.987393509,None,,,,,,,,,,,,,,,,,,,,,,,,,,,,,,,,,,,,,,,,,,,,001,152,2020_Feb_20_1218,spring_faces,3.2.3,60.001365751105155,
condition files/Stage1_2.xlsx,,T4,B4,m,"['c', 'm']","['Clue', 'Monopoly']","[-0.15, 0.5]","[0.15, 0.5]",1,1,,,,,,,,,0,9,9,9,0,3,3,7,,,,,,,,,,,,,,,,,,,,,,,,,,,,,,,,,,,,,,,,,,,,,,,,,,,,,,,718.9539701120011,None,718.9539701120011,None,718.9539701120011,None,m,1,1.0876427349994628,720.4873677480009,None,720.4873677480009,None,720.4873677480009,None,721.6540840319994,None,721.6540840319994,None,721.6540840319994,None,721.6540840319994,None,,,,,,,,,,,,,,,,,,,,,,,,,,,,,,,,,,,,,,,,,,,,001,152,2020_Feb_20_1218,spring_faces,3.2.3,60.001365751105155,
condition files/Stage1_2.xlsx,,T3,B3,c,"['c', 'm']","['Clue', 'Monopoly']","[-0.15, 0.5]","[0.15, 0.5]",1,1,,,,,,,,,0,9,9,9,0,4,4,4,,,,,,,,,,,,,,,,,,,,,,,,,,,,,,,,,,,,,,,,,,,,,,,,,,,,,,,723.6207842309996,None,723.6207842309996,None,723.6207842309996,None,c,1,1.4451000140015822,725.1540815500011,None,725.1540815500011,None,725.1540815500011,None,726.670763133001,None,726.670763133001,None,726.670763133001,None,726.670763133001,None,,,,,,,,,,,,,,,,,,,,,,,,,,,,,,,,,,,,,,,,,,,,001,152,2020_Feb_20_1218,spring_faces,3.2.3,60.001365751105155,
condition files/Stage1_2.xlsx,,T2,B1,c,"['c', 'm']","['Clue', 'Monopoly']","[-0.15, 0.5]","[0.15, 0.5]",1,1,,,,,,,,,0,9,9,9,0,5,5,1,,,,,,,,,,,,,,,,,,,,,,,,,,,,,,,,,,,,,,,,,,,,,,,,,,,,,,,728.6374672630009,None,728.6374672630009,None,728.6374672630009,None,c,1,1.2445107759995153,730.1706961359996,None,730.1706961359996,None,730.1706961359996,None,731.4706952590004,None,731.4706952590004,None,731.4706952590004,None,731.4706952590004,None,,,,,,,,,,,,,,,,,,,,,,,,,,,,,,,,,,,,,,,,,,,,001,152,2020_Feb_20_1218,spring_faces,3.2.3,60.001365751105155,
condition files/Stage1_2.xlsx,,B1,T1,c,"['c', 'm']","['Clue', 'Monopoly']","[-0.15, 0.5]","[0.15, 0.5]",1,1,,,,,,,,,0,9,9,9,0,6,6,0,,,,,,,,,,,,,,,,,,,,,,,,,,,,,,,,,,,,,,,,,,,,,,,,,,,,,,,733.4540997280001,None,733.4540997280001,None,733.4540997280001,None,c,1,2.1877641230003064,734.9874029450002,None,734.9874029450002,None,734.9874029450002,None,737.2374364530006,None,737.2374364530006,None,737.2374364530006,None,737.2374364530006,None,,,,,,,,,,,,,,,,,,,,,,,,,,,,,,,,,,,,,,,,,,,,001,152,2020_Feb_20_1218,spring_faces,3.2.3,60.001365751105155,
condition files/Stage1_2.xlsx,,T1,B2,m,"['c', 'm']","['Clue', 'Monopoly']","[-0.15, 0.5]","[0.15, 0.5]",1,1,,,,,,,,,0,9,9,9,0,7,7,2,,,,,,,,,,,,,,,,,,,,,,,,,,,,,,,,,,,,,,,,,,,,,,,,,,,,,,,739.2207562830008,None,739.2207562830008,None,739.2207562830008,None,m,1,1.3010015259987995,740.7540713489998,None,740.7540713489998,None,740.7540713489998,None,742.1373379119996,None,742.1373379119996,None,742.1373379119996,None,742.1373379119996,None,,,,,,,,,,,,,,,,,,,,,,,,,,,,,,,,,,,,,,,,,,,,001,152,2020_Feb_20_1218,spring_faces,3.2.3,60.001365751105155,
condition files/Stage1_1.xlsx,,T2,B2,m,"['c', 'm']","['Clue', 'Monopoly']","[-0.15, 0.5]","[0.15, 0.5]",1,1,,,,,,,,,0,10,10,10,0,0,0,3,,,,,,,,,,,,,,,,,,,,,,,,,,,,,,,,,,,,,,,,,,,,,,,,,,,,,,,744.120679271,None,744.120679271,None,744.120679271,None,m,1,0.9931297670009371,745.6540666780002,None,745.6540666780002,None,745.6540666780002,None,746.7040878970001,None,746.7040878970001,None,746.7040878970001,None,746.7040878970001,None,,,,,,,,,,,,,,,,,,,,,,,,,,,,,,,,,,,,,,,,,,,,001,152,2020_Feb_20_1218,spring_faces,3.2.3,60.001365751105155,
condition files/Stage1_1.xlsx,,T3,B4,c,"['c', 'm']","['Clue', 'Monopoly']","[-0.15, 0.5]","[0.15, 0.5]",1,1,,,,,,,,,0,10,10,10,0,1,1,5,,,,,,,,,,,,,,,,,,,,,,,,,,,,,,,,,,,,,,,,,,,,,,,,,,,,,,,748.6874245150011,None,748.6874245150011,None,748.6874245150011,None,c,1,1.066483906999565,750.2207272800006,None,750.2207272800006,None,750.2207272800006,None,751.354024141001,None,751.354024141001,None,751.354024141001,None,751.354024141001,None,,,,,,,,,,,,,,,,,,,,,,,,,,,,,,,,,,,,,,,,,,,,001,152,2020_Feb_20_1218,spring_faces,3.2.3,60.001365751105155,
condition files/Stage1_1.xlsx,,T4,B3,m,"['c', 'm']","['Clue', 'Monopoly']","[-0.15, 0.5]","[0.15, 0.5]",1,1,,,,,,,,,0,10,10,10,0,2,2,6,,,,,,,,,,,,,,,,,,,,,,,,,,,,,,,,,,,,,,,,,,,,,,,,,,,,,,,753.3207866659995,None,753.3207866659995,None,753.3207866659995,None,m,1,1.2810244419997616,754.8541081300009,None,754.8541081300009,None,754.8541081300009,None,756.2040798409998,None,756.2040798409998,None,756.2040798409998,None,756.2040798409998,None,,,,,,,,,,,,,,,,,,,,,,,,,,,,,,,,,,,,,,,,,,,,001,152,2020_Feb_20_1218,spring_faces,3.2.3,60.001365751105155,
condition files/Stage1_1.xlsx,,B2,T1,m,"['c', 'm']","['Clue', 'Monopoly']","[-0.15, 0.5]","[0.15, 0.5]",1,1,,,,,,,,,0,10,10,10,0,3,3,2,,,,,,,,,,,,,,,,,,,,,,,,,,,,,,,,,,,,,,,,,,,,,,,,,,,,,,,758.170685604,None,758.170685604,None,758.170685604,None,m,1,1.007064965000609,759.7041036789997,None,759.7041036789997,None,759.7041036789997,None,760.7707533089997,None,760.7707533089997,None,760.7707533089997,None,760.7707533089997,None,,,,,,,,,,,,,,,,,,,,,,,,,,,,,,,,,,,,,,,,,,,,001,152,2020_Feb_20_1218,spring_faces,3.2.3,60.001365751105155,
condition files/Stage1_1.xlsx,,B1,T2,c,"['c', 'm']","['Clue', 'Monopoly']","[-0.15, 0.5]","[0.15, 0.5]",1,1,,,,,,,,,0,10,10,10,0,4,4,1,,,,,,,,,,,,,,,,,,,,,,,,,,,,,,,,,,,,,,,,,,,,,,,,,,,,,,,762.7540926900001,None,762.7540926900001,None,762.7540926900001,None,c,1,1.063830211000095,764.2873934510008,None,764.2873934510008,None,764.2873934510008,None,765.4207496239997,None,765.4207496239997,None,765.4207496239997,None,765.4207496239997,None,,,,,,,,,,,,,,,,,,,,,,,,,,,,,,,,,,,,,,,,,,,,001,152,2020_Feb_20_1218,spring_faces,3.2.3,60.001365751105155,
condition files/Stage1_1.xlsx,,B4,T4,m,"['c', 'm']","['Clue', 'Monopoly']","[-0.15, 0.5]","[0.15, 0.5]",1,1,,,,,,,,,0,10,10,10,0,5,5,7,,,,,,,,,,,,,,,,,,,,,,,,,,,,,,,,,,,,,,,,,,,,,,,,,,,,,,,767.3874346249995,None,767.3874346249995,None,767.3874346249995,None,m,1,0.958486408000681,768.920720303,None,768.920720303,None,768.920720303,None,769.9540674119999,None,769.9540674119999,None,769.9540674119999,None,769.9540674119999,None,,,,,,,,,,,,,,,,,,,,,,,,,,,,,,,,,,,,,,,,,,,,001,152,2020_Feb_20_1218,spring_faces,3.2.3,60.001365751105155,
condition files/Stage1_1.xlsx,,T1,B1,c,"['c', 'm']","['Clue', 'Monopoly']","[-0.15, 0.5]","[0.15, 0.5]",1,1,,,,,,,,,0,10,10,10,0,6,6,0,,,,,,,,,,,,,,,,,,,,,,,,,,,,,,,,,,,,,,,,,,,,,,,,,,,,,,,771.9207711519994,None,771.9207711519994,None,771.9207711519994,None,c,1,1.1931099199991877,773.4540693529998,None,773.4540693529998,None,773.4540693529998,None,774.7207561129999,None,774.7207561129999,None,774.7207561129999,None,774.7207561129999,None,,,,,,,,,,,,,,,,,,,,,,,,,,,,,,,,,,,,,,,,,,,,001,152,2020_Feb_20_1218,spring_faces,3.2.3,60.001365751105155,
condition files/Stage1_1.xlsx,,B3,T3,c,"['c', 'm']","['Clue', 'Monopoly']","[-0.15, 0.5]","[0.15, 0.5]",1,1,,,,,,,,,0,10,10,10,0,7,7,4,,,,,,,,,,,,,,,,,,,,,,,,,,,,,,,,,,,,,,,,,,,,,,,,,,,,,,,776.6874468669994,None,776.6874468669994,None,776.6874468669994,None,c,1,1.5304988199986838,778.2207394890011,None,778.2207394890011,None,778.2207394890011,None,779.8040474560003,None,779.8040474560003,None,779.8040474560003,None,779.8040474560003,None,,,,,,,,,,,,,,,,,,,,,,,,,,,,,,,,,,,,,,,,,,,,001,152,2020_Feb_20_1218,spring_faces,3.2.3,60.001365751105155,
condition files/Stage1_2.xlsx,,T4,B4,m,"['c', 'm']","['Clue', 'Monopoly']","[-0.15, 0.5]","[0.15, 0.5]",1,1,,,,,,,,,0,11,11,11,0,0,0,7,,,,,,,,,,,,,,,,,,,,,,,,,,,,,,,,,,,,,,,,,,,,,,,,,,,,,,,781.8040816699995,None,781.8040816699995,None,781.8040816699995,None,m,1,1.2778572810002515,783.3373611370007,None,783.3373611370007,None,783.3373611370007,None,784.687417137,None,784.687417137,None,784.687417137,None,784.687417137,None,,,,,,,,,,,,,,,,,,,,,,,,,,,,,,,,,,,,,,,,,,,,001,152,2020_Feb_20_1218,spring_faces,3.2.3,60.001365751105155,
condition files/Stage1_2.xlsx,,B3,T4,m,"['c', 'm']","['Clue', 'Monopoly']","[-0.15, 0.5]","[0.15, 0.5]",1,1,,,,,,,,,0,11,11,11,0,1,1,6,,,,,,,,,,,,,,,,,,,,,,,,,,,,,,,,,,,,,,,,,,,,,,,,,,,,,,,786.6540821489998,None,786.6540821489998,None,786.6540821489998,None,m,1,1.1637743490009598,788.1874206450011,None,788.1874206450011,None,788.1874206450011,None,789.404065572,None,789.404065572,None,789.404065572,None,789.404065572,None,,,,,,,,,,,,,,,,,,,,,,,,,,,,,,,,,,,,,,,,,,,,001,152,2020_Feb_20_1218,spring_faces,3.2.3,60.001365751105155,
condition files/Stage1_2.xlsx,,T3,B3,c,"['c', 'm']","['Clue', 'Monopoly']","[-0.15, 0.5]","[0.15, 0.5]",1,1,,,,,,,,,0,11,11,11,0,2,2,4,,,,,,,,,,,,,,,,,,,,,,,,,,,,,,,,,,,,,,,,,,,,,,,,,,,,,,,791.3874222220002,None,791.3874222220002,None,791.3874222220002,None,c,1,0.990413487999831,792.9207552030002,None,792.9207552030002,None,792.9207552030002,None,793.9873946759999,None,793.9873946759999,None,793.9873946759999,None,793.9873946759999,None,,,,,,,,,,,,,,,,,,,,,,,,,,,,,,,,,,,,,,,,,,,,001,152,2020_Feb_20_1218,spring_faces,3.2.3,60.001365751105155,
condition files/Stage1_2.xlsx,,T2,B1,c,"['c', 'm']","['Clue', 'Monopoly']","[-0.15, 0.5]","[0.15, 0.5]",1,1,,,,,,,,,0,11,11,11,0,3,3,1,,,,,,,,,,,,,,,,,,,,,,,,,,,,,,,,,,,,,,,,,,,,,,,,,,,,,,,795.9540627189999,None,795.9540627189999,None,795.9540627189999,None,c,1,1.271754236999186,797.4873994579993,None,797.4873994579993,None,797.4873994579993,None,798.820611692001,None,798.820611692001,None,798.820611692001,None,798.820611692001,None,,,,,,,,,,,,,,,,,,,,,,,,,,,,,,,,,,,,,,,,,,,,001,152,2020_Feb_20_1218,spring_faces,3.2.3,60.001365751105155,
condition files/Stage1_2.xlsx,,B2,T2,m,"['c', 'm']","['Clue', 'Monopoly']","[-0.15, 0.5]","[0.15, 0.5]",1,1,,,,,,,,,0,11,11,11,0,4,4,3,,,,,,,,,,,,,,,,,,,,,,,,,,,,,,,,,,,,,,,,,,,,,,,,,,,,,,,800.8040976200009,None,800.8040976200009,None,800.8040976200009,None,m,1,1.02981263699985,802.3374179410002,None,802.3374179410002,None,802.3374179410002,None,803.4373993480003,None,803.4373993480003,None,803.4373993480003,None,803.4373993480003,None,,,,,,,,,,,,,,,,,,,,,,,,,,,,,,,,,,,,,,,,,,,,001,152,2020_Feb_20_1218,spring_faces,3.2.3,60.001365751105155,
condition files/Stage1_2.xlsx,,B1,T1,c,"['c', 'm']","['Clue', 'Monopoly']","[-0.15, 0.5]","[0.15, 0.5]",1,1,,,,,,,,,0,11,11,11,0,5,5,0,,,,,,,,,,,,,,,,,,,,,,,,,,,,,,,,,,,,,,,,,,,,,,,,,,,,,,,805.404063082,None,805.404063082,None,805.404063082,None,c,1,1.1659598010010086,806.9373387550004,None,806.9373387550004,None,806.9373387550004,None,808.1706908249998,None,808.1706908249998,None,808.1706908249998,None,808.1706908249998,None,,,,,,,,,,,,,,,,,,,,,,,,,,,,,,,,,,,,,,,,,,,,001,152,2020_Feb_20_1218,spring_faces,3.2.3,60.001365751105155,
condition files/Stage1_2.xlsx,,B4,T3,c,"['c', 'm']","['Clue', 'Monopoly']","[-0.15, 0.5]","[0.15, 0.5]",1,1,,,,,,,,,0,11,11,11,0,6,6,5,,,,,,,,,,,,,,,,,,,,,,,,,,,,,,,,,,,,,,,,,,,,,,,,,,,,,,,810.1374532909995,None,810.1374532909995,None,810.1374532909995,None,c,1,1.6164831010009948,811.6707471560003,None,811.6707471560003,None,811.6707471560003,None,813.3540176930001,None,813.3540176930001,None,813.3540176930001,None,813.3540176930001,None,,,,,,,,,,,,,,,,,,,,,,,,,,,,,,,,,,,,,,,,,,,,001,152,2020_Feb_20_1218,spring_faces,3.2.3,60.001365751105155,
condition files/Stage1_2.xlsx,,T1,B2,m,"['c', 'm']","['Clue', 'Monopoly']","[-0.15, 0.5]","[0.15, 0.5]",1,1,,,,,,,,,0,11,11,11,0,7,7,2,,,,,,,,,,,,,,,,,,,,,,,,,,,,,,,,,,,,,,,,,,,,,,,,,,,,,,,815.320789319001,None,815.320789319001,None,815.320789319001,None,m,1,0.833140042001105,816.8540930150011,None,816.8540930150011,None,816.8540930150011,None,817.7540138309996,None,817.7540138309996,None,817.7540138309996,None,817.7540138309996,None,,,,,,,,,,,,,,,,,,,,,,,,,,,,,,,,,,,,,,,,,,,,001,152,2020_Feb_20_1218,spring_faces,3.2.3,60.001365751105155,
,,,,,,,,,,,,,,,,,,,,,,,,,,,,,,,,,,,,,,,,,,,,,,,,,,,,,,,,,,,,,,,,,,,,,,,,,,,,,,,,,,,,,,,,,,,,,,,,,,,,,,,,,,,,,,,,819.7206833559994,None,space,2.6790203579985246,824.7040853420003,None,,,,,,,,,,,,,,,,,,,,,,,,,,,,,,001,152,2020_Feb_20_1218,spring_faces,3.2.3,60.001365751105155,
condition files/Stage2_1.xlsx,,T1,B1,s,"['s', 'r']","['Stratego', 'Risk']","[-0.15, 0.5]","[0.15, 0.5]",1,1,,,,,,,,,,,,,,,,,0,0,0,0,0,0,0,2,,,,,,,,,,,,,,,,,,,,,,,,,,,,,,,,,,,,,,,,,,,,,,,827.4374224330004,None,827.4374224330004,None,827.4374224330004,None,s,1,1.293203798999457,828.9540109570007,None,828.9540109570007,None,828.9540109570007,None,830.3207560209994,None,830.3207560209994,None,830.3207560209994,None,830.3207560209994,None,,,,,,,,,,,,,,,824.7040853420003,None,,,,,,,,,,,,,,,,,,,,,,,,,,,,001,152,2020_Feb_20_1218,spring_faces,3.2.3,60.001365751105155,
condition files/Stage2_1.xlsx,,T3,B3,s,"['s', 'r']","['Stratego', 'Risk']","[-0.15, 0.5]","[0.15, 0.5]",1,1,,,,,,,,,,,,,,,,,0,0,0,0,0,1,1,4,,,,,,,,,,,,,,,,,,,,,,,,,,,,,,,,,,,,,,,,,,,,,,,832.2874502100003,None,832.2874502100003,None,832.2874502100003,None,r,0,0.5063350669988722,833.8207558819995,None,833.8207558819995,None,833.8207558819995,None,834.3874349010002,None,834.3874349010002,None,834.3874349010002,None,834.3874349010002,None,,,,,,,,,,,,,,,,,,,,,,,,,,,,,,,,,,,,,,,,,,,,001,152,2020_Feb_20_1218,spring_faces,3.2.3,60.001365751105155,
condition files/Stage2_1.xlsx,,T5,B5,s,"['s', 'r']","['Stratego', 'Risk']","[-0.15, 0.5]","[0.15, 0.5]",1,1,,,,,,,,,,,,,,,,,0,0,0,0,0,2,2,0,,,,,,,,,,,,,,,,,,,,,,,,,,,,,,,,,,,,,,,,,,,,,,,836.3707364929996,None,836.3707364929996,None,836.3707364929996,None,r,0,1.2390409270010423,837.9041068980005,None,837.9041068980005,None,837.9041068980005,None,839.2039089709997,None,839.2039089709997,None,839.2039089709997,None,839.2039089709997,None,,,,,,,,,,,,,,,,,,,,,,,,,,,,,,,,,,,,,,,,,,,,001,152,2020_Feb_20_1218,spring_faces,3.2.3,60.001365751105155,
condition files/Stage2_1.xlsx,,B2,T2,r,"['s', 'r']","['Stratego', 'Risk']","[-0.15, 0.5]","[0.15, 0.5]",1,1,,,,,,,,,,,,,,,,,0,0,0,0,0,3,3,3,,,,,,,,,,,,,,,,,,,,,,,,,,,,,,,,,,,,,,,,,,,,,,,841.1874258400003,None,841.1874258400003,None,841.1874258400003,None,r,1,0.8543956829998933,842.7207605370004,None,842.7207605370004,None,842.7207605370004,None,843.6540672770006,None,843.6540672770006,None,843.6540672770006,None,843.6540672770006,None,,,,,,,,,,,,,,,,,,,,,,,,,,,,,,,,,,,,,,,,,,,,001,152,2020_Feb_20_1218,spring_faces,3.2.3,60.001365751105155,
condition files/Stage2_1.xlsx,,B6,T6,r,"['s', 'r']","['Stratego', 'Risk']","[-0.15, 0.5]","[0.15, 0.5]",1,1,,,,,,,,,,,,,,,,,0,0,0,0,0,4,4,1,,,,,,,,,,,,,,,,,,,,,,,,,,,,,,,,,,,,,,,,,,,,,,,845.620747854,None,845.620747854,None,845.620747854,None,r,1,0.8884237780002877,847.4707314330008,None,847.4707314330008,None,847.4707314330008,None,848.4207583530006,None,848.4207583530006,None,848.4207583530006,None,848.4207583530006,None,,,,,,,,,,,,,,,,,,,,,,,,,,,,,,,,,,,,,,,,,,,,001,152,2020_Feb_20_1218,spring_faces,3.2.3,60.001365751105155,
condition files/Stage2_1.xlsx,,B4,T4,r,"['s', 'r']","['Stratego', 'Risk']","[-0.15, 0.5]","[0.15, 0.5]",1,1,,,,,,,,,,,,,,,,,0,0,0,0,0,5,5,5,,,,,,,,,,,,,,,,,,,,,,,,,,,,,,,,,,,,,,,,,,,,,,,850.4040583850001,None,850.4040583850001,None,850.4040583850001,None,s,0,1.1737632149997808,851.9374047689998,None,851.9374047689998,None,851.9374047689998,None,853.1873980460005,None,853.1873980460005,None,853.1873980460005,None,853.1873980460005,None,,,,,,,,,,,,,,,,,,,,,,,,,,,,,,,,,,,,,,,,,,,,001,152,2020_Feb_20_1218,spring_faces,3.2.3,60.001365751105155,
condition files/Stage2_2.xlsx,,T6,B6,r,"['s', 'r']","['Stratego', 'Risk']","[-0.15, 0.5]","[0.15, 0.5]",1,1,,,,,,,,,,,,,,,,,0,1,1,1,0,0,0,1,,,,,,,,,,,,,,,,,,,,,,,,,,,,,,,,,,,,,,,,,,,,,,,855.1707249120009,None,855.1707249120009,None,855.1707249120009,None,r,1,1.511130980001326,856.7040680419996,None,856.7040680419996,None,856.7040680419996,None,858.2707287550002,None,858.2707287550002,None,858.2707287550002,None,858.2707287550002,None,,,,,,,,,,,,,,,,,,,,,,,,,,,,,,,,,,,,,,,,,,,,001,152,2020_Feb_20_1218,spring_faces,3.2.3,60.001365751105155,
condition files/Stage2_2.xlsx,,T2,B2,r,"['s', 'r']","['Stratego', 'Risk']","[-0.15, 0.5]","[0.15, 0.5]",1,1,,,,,,,,,,,,,,,,,0,1,1,1,0,1,1,3,,,,,,,,,,,,,,,,,,,,,,,,,,,,,,,,,,,,,,,,,,,,,,,860.254123535,None,860.254123535,None,860.254123535,None,r,1,2.091730797999844,861.7874606219993,None,861.7874606219993,None,861.7874606219993,None,863.9374014309997,None,863.9374014309997,None,863.9374014309997,None,863.9374014309997,None,,,,,,,,,,,,,,,,,,,,,,,,,,,,,,,,,,,,,,,,,,,,001,152,2020_Feb_20_1218,spring_faces,3.2.3,60.001365751105155,
condition files/Stage2_2.xlsx,,B1,T1,s,"['s', 'r']","['Stratego', 'Risk']","[-0.15, 0.5]","[0.15, 0.5]",1,1,,,,,,,,,,,,,,,,,0,1,1,1,0,2,2,2,,,,,,,,,,,,,,,,,,,,,,,,,,,,,,,,,,,,,,,,,,,,,,,865.9207855240002,None,865.9207855240002,None,865.9207855240002,None,s,1,1.0651566099986667,867.4540924180001,None,867.4540924180001,None,867.4540924180001,None,868.5871310229995,None,868.5871310229995,None,868.5871310229995,None,868.5871310229995,None,,,,,,,,,,,,,,,,,,,,,,,,,,,,,,,,,,,,,,,,,,,,001,152,2020_Feb_20_1218,spring_faces,3.2.3,60.001365751105155,
condition files/Stage2_2.xlsx,,T4,B4,r,"['s', 'r']","['Stratego', 'Risk']","[-0.15, 0.5]","[0.15, 0.5]",1,1,,,,,,,,,,,,,,,,,0,1,1,1,0,3,3,5,,,,,,,,,,,,,,,,,,,,,,,,,,,,,,,,,,,,,,,,,,,,,,,870.55401618,None,870.55401618,None,870.55401618,None,s,0,3.295601195000927,872.0874951710011,None,872.0874951710011,None,872.0874951710011,None,875.4540882229994,None,875.4540882229994,None,875.4540882229994,None,875.4540882229994,None,,,,,,,,,,,,,,,,,,,,,,,,,,,,,,,,,,,,,,,,,,,,001,152,2020_Feb_20_1218,spring_faces,3.2.3,60.001365751105155,
condition files/Stage2_2.xlsx,,B5,T5,s,"['s', 'r']","['Stratego', 'Risk']","[-0.15, 0.5]","[0.15, 0.5]",1,1,,,,,,,,,,,,,,,,,0,1,1,1,0,4,4,0,,,,,,,,,,,,,,,,,,,,,,,,,,,,,,,,,,,,,,,,,,,,,,,877.4207910309997,None,877.4207910309997,None,877.4207910309997,None,s,1,0.9890633150007488,878.9540796969995,None,878.9540796969995,None,878.9540796969995,None,880.0207374220008,None,880.0207374220008,None,880.0207374220008,None,880.0207374220008,None,,,,,,,,,,,,,,,,,,,,,,,,,,,,,,,,,,,,,,,,,,,,001,152,2020_Feb_20_1218,spring_faces,3.2.3,60.001365751105155,
condition files/Stage2_2.xlsx,,B3,T3,s,"['s', 'r']","['Stratego', 'Risk']","[-0.15, 0.5]","[0.15, 0.5]",1,1,,,,,,,,,,,,,,,,,0,1,1,1,0,5,5,4,,,,,,,,,,,,,,,,,,,,,,,,,,,,,,,,,,,,,,,,,,,,,,,881.9874146849997,None,881.9874146849997,None,881.9874146849997,None,s,1,1.1424477660002594,883.5207368179999,None,883.5207368179999,None,883.5207368179999,None,884.7207284779997,None,884.7207284779997,None,884.7207284779997,None,884.7207284779997,None,,,,,,,,,,,,,,,,,,,,,,,,,,,,,,,,,,,,,,,,,,,,001,152,2020_Feb_20_1218,spring_faces,3.2.3,60.001365751105155,
condition files/Stage2_1.xlsx,,B4,T4,r,"['s', 'r']","['Stratego', 'Risk']","[-0.15, 0.5]","[0.15, 0.5]",1,1,,,,,,,,,,,,,,,,,0,2,2,2,0,0,0,5,,,,,,,,,,,,,,,,,,,,,,,,,,,,,,,,,,,,,,,,,,,,,,,886.7207578699999,None,886.7207578699999,None,886.7207578699999,None,r,1,0.6811084349992598,888.2540811340004,None,888.2540811340004,None,888.2540811340004,None,889.004091064,None,889.004091064,None,889.004091064,None,889.004091064,None,,,,,,,,,,,,,,,,,,,,,,,,,,,,,,,,,,,,,,,,,,,,001,152,2020_Feb_20_1218,spring_faces,3.2.3,60.001365751105155,
condition files/Stage2_1.xlsx,,T3,B3,s,"['s', 'r']","['Stratego', 'Risk']","[-0.15, 0.5]","[0.15, 0.5]",1,1,,,,,,,,,,,,,,,,,0,2,2,2,0,1,1,4,,,,,,,,,,,,,,,,,,,,,,,,,,,,,,,,,,,,,,,,,,,,,,,890.970688374,None,890.970688374,None,890.970688374,None,r,0,2.5111580490010965,892.5040361270003,None,892.5040361270003,None,892.5040361270003,None,895.0874249740009,None,895.0874249740009,None,895.0874249740009,None,895.0874249740009,None,,,,,,,,,,,,,,,,,,,,,,,,,,,,,,,,,,,,,,,,,,,,001,152,2020_Feb_20_1218,spring_faces,3.2.3,60.001365751105155,
condition files/Stage2_1.xlsx,,T5,B5,s,"['s', 'r']","['Stratego', 'Risk']","[-0.15, 0.5]","[0.15, 0.5]",1,1,,,,,,,,,,,,,,,,,0,2,2,2,0,2,2,0,,,,,,,,,,,,,,,,,,,,,,,,,,,,,,,,,,,,,,,,,,,,,,,897.0540893790003,None,897.0540893790003,None,897.0540893790003,None,s,1,1.0357174159998976,898.5874321110005,None,898.5874321110005,None,898.5874321110005,None,899.7040862760005,None,899.7040862760005,None,899.7040862760005,None,899.7040862760005,None,,,,,,,,,,,,,,,,,,,,,,,,,,,,,,,,,,,,,,,,,,,,001,152,2020_Feb_20_1218,spring_faces,3.2.3,60.001365751105155,
condition files/Stage2_1.xlsx,,T1,B1,s,"['s', 'r']","['Stratego', 'Risk']","[-0.15, 0.5]","[0.15, 0.5]",1,1,,,,,,,,,,,,,,,,,0,2,2,2,0,3,3,2,,,,,,,,,,,,,,,,,,,,,,,,,,,,,,,,,,,,,,,,,,,,,,,901.6707980280007,None,901.6707980280007,None,901.6707980280007,None,s,1,0.9151780539996253,903.2040899679996,None,903.2040899679996,None,903.2040899679996,None,904.1706743459999,None,904.1706743459999,None,904.1706743459999,None,904.1706743459999,None,,,,,,,,,,,,,,,,,,,,,,,,,,,,,,,,,,,,,,,,,,,,001,152,2020_Feb_20_1218,spring_faces,3.2.3,60.001365751105155,
condition files/Stage2_1.xlsx,,B6,T6,r,"['s', 'r']","['Stratego', 'Risk']","[-0.15, 0.5]","[0.15, 0.5]",1,1,,,,,,,,,,,,,,,,,0,2,2,2,0,4,4,1,,,,,,,,,,,,,,,,,,,,,,,,,,,,,,,,,,,,,,,,,,,,,,,906.1540216129997,None,906.1540216129997,None,906.1540216129997,None,s,0,0.7836543239991443,907.687454451001,None,907.687454451001,None,907.687454451001,None,908.5540069420003,None,908.5540069420003,None,908.5540069420003,None,908.5540069420003,None,,,,,,,,,,,,,,,,,,,,,,,,,,,,,,,,,,,,,,,,,,,,001,152,2020_Feb_20_1218,spring_faces,3.2.3,60.001365751105155,
condition files/Stage2_1.xlsx,,B2,T2,r,"['s', 'r']","['Stratego', 'Risk']","[-0.15, 0.5]","[0.15, 0.5]",1,1,,,,,,,,,,,,,,,,,0,2,2,2,0,5,5,3,,,,,,,,,,,,,,,,,,,,,,,,,,,,,,,,,,,,,,,,,,,,,,,910.5207868300004,None,910.5207868300004,None,910.5207868300004,None,r,1,0.7050740380000207,912.0540916520004,None,912.0540916520004,None,912.0540916520004,None,912.8207217140007,None,912.8207217140007,None,912.8207217140007,None,912.8207217140007,None,,,,,,,,,,,,,,,,,,,,,,,,,,,,,,,,,,,,,,,,,,,,001,152,2020_Feb_20_1218,spring_faces,3.2.3,60.001365751105155,
condition files/Stage2_2.xlsx,,T4,B4,r,"['s', 'r']","['Stratego', 'Risk']","[-0.15, 0.5]","[0.15, 0.5]",1,1,,,,,,,,,,,,,,,,,0,3,3,3,0,0,0,5,,,,,,,,,,,,,,,,,,,,,,,,,,,,,,,,,,,,,,,,,,,,,,,914.820737383001,None,914.820737383001,None,914.820737383001,None,r,1,1.2050881249997474,916.3540735999995,None,916.3540735999995,None,916.3540735999995,None,917.6374068719997,None,917.6374068719997,None,917.6374068719997,None,917.6374068719997,None,,,,,,,,,,,,,,,,,,,,,,,,,,,,,,,,,,,,,,,,,,,,001,152,2020_Feb_20_1218,spring_faces,3.2.3,60.001365751105155,
condition files/Stage2_2.xlsx,,B1,T1,s,"['s', 'r']","['Stratego', 'Risk']","[-0.15, 0.5]","[0.15, 0.5]",1,1,,,,,,,,,,,,,,,,,0,3,3,3,0,1,1,2,,,,,,,,,,,,,,,,,,,,,,,,,,,,,,,,,,,,,,,,,,,,,,,919.6040794820001,None,919.6040794820001,None,919.6040794820001,None,s,1,1.1737649790011346,921.1374081220001,None,921.1374081220001,None,921.1374081220001,None,922.3874046559995,None,922.3874046559995,None,922.3874046559995,None,922.3874046559995,None,,,,,,,,,,,,,,,,,,,,,,,,,,,,,,,,,,,,,,,,,,,,001,152,2020_Feb_20_1218,spring_faces,3.2.3,60.001365751105155,
condition files/Stage2_2.xlsx,,B5,T5,s,"['s', 'r']","['Stratego', 'Risk']","[-0.15, 0.5]","[0.15, 0.5]",1,1,,,,,,,,,,,,,,,,,0,3,3,3,0,2,2,0,,,,,,,,,,,,,,,,,,,,,,,,,,,,,,,,,,,,,,,,,,,,,,,924.3539473439996,None,924.3539473439996,None,924.3539473439996,None,s,1,1.2717133559999638,925.8874134100006,None,925.8874134100006,None,925.8874134100006,None,927.2207371610002,None,927.2207371610002,None,927.2207371610002,None,927.2207371610002,None,,,,,,,,,,,,,,,,,,,,,,,,,,,,,,,,,,,,,,,,,,,,001,152,2020_Feb_20_1218,spring_faces,3.2.3,60.001365751105155,
condition files/Stage2_2.xlsx,,T6,B6,r,"['s', 'r']","['Stratego', 'Risk']","[-0.15, 0.5]","[0.15, 0.5]",1,1,,,,,,,,,,,,,,,,,0,3,3,3,0,3,3,1,,,,,,,,,,,,,,,,,,,,,,,,,,,,,,,,,,,,,,,,,,,,,,,929.2040917440008,None,929.2040917440008,None,929.2040917440008,None,r,1,1.1577316610000707,930.7374315590005,None,930.7374315590005,None,930.7374315590005,None,931.970744092001,None,931.970744092001,None,931.970744092001,None,931.970744092001,None,,,,,,,,,,,,,,,,,,,,,,,,,,,,,,,,,,,,,,,,,,,,001,152,2020_Feb_20_1218,spring_faces,3.2.3,60.001365751105155,
condition files/Stage2_2.xlsx,,T2,B2,r,"['s', 'r']","['Stratego', 'Risk']","[-0.15, 0.5]","[0.15, 0.5]",1,1,,,,,,,,,,,,,,,,,0,3,3,3,0,4,4,3,,,,,,,,,,,,,,,,,,,,,,,,,,,,,,,,,,,,,,,,,,,,,,,933.9374178350008,None,933.9374178350008,None,933.9374178350008,None,r,1,0.5843405600007827,935.4707443170009,None,935.4707443170009,None,935.4707443170009,None,936.1207062590001,None,936.1207062590001,None,936.1207062590001,None,936.1207062590001,None,,,,,,,,,,,,,,,,,,,,,,,,,,,,,,,,,,,,,,,,,,,,001,152,2020_Feb_20_1218,spring_faces,3.2.3,60.001365751105155,
condition files/Stage2_2.xlsx,,B3,T3,s,"['s', 'r']","['Stratego', 'Risk']","[-0.15, 0.5]","[0.15, 0.5]",1,1,,,,,,,,,,,,,,,,,0,3,3,3,0,5,5,4,,,,,,,,,,,,,,,,,,,,,,,,,,,,,,,,,,,,,,,,,,,,,,,938.1040231669995,None,938.1040231669995,None,938.1040231669995,None,s,1,1.409776676000547,939.637403046001,None,939.637403046001,None,939.637403046001,None,941.1207586090004,None,941.1207586090004,None,941.1207586090004,None,941.1207586090004,None,,,,,,,,,,,,,,,,,,,,,,,,,,,,,,,,,,,,,,,,,,,,001,152,2020_Feb_20_1218,spring_faces,3.2.3,60.001365751105155,
condition files/Stage2_1.xlsx,,T3,B3,s,"['s', 'r']","['Stratego', 'Risk']","[-0.15, 0.5]","[0.15, 0.5]",1,1,,,,,,,,,,,,,,,,,0,4,4,4,0,0,0,4,,,,,,,,,,,,,,,,,,,,,,,,,,,,,,,,,,,,,,,,,,,,,,,943.1040856460004,None,943.1040856460004,None,943.1040856460004,None,r,0,2.0100026529999013,944.6371902200008,None,944.6371902200008,None,944.6371902200008,None,946.7207365480008,None,946.7207365480008,None,946.7207365480008,None,946.7207365480008,None,,,,,,,,,,,,,,,,,,,,,,,,,,,,,,,,,,,,,,,,,,,,001,152,2020_Feb_20_1218,spring_faces,3.2.3,60.001365751105155,
condition files/Stage2_1.xlsx,,T1,B1,s,"['s', 'r']","['Stratego', 'Risk']","[-0.15, 0.5]","[0.15, 0.5]",1,1,,,,,,,,,,,,,,,,,0,4,4,4,0,1,1,2,,,,,,,,,,,,,,,,,,,,,,,,,,,,,,,,,,,,,,,,,,,,,,,948.6874446519996,None,948.6874446519996,None,948.6874446519996,None,s,1,0.7623681630011561,950.2207278019996,None,950.2207278019996,None,950.2207278019996,None,951.0374219940004,None,951.0374219940004,None,951.0374219940004,None,951.0374219940004,None,,,,,,,,,,,,,,,,,,,,,,,,,,,,,,,,,,,,,,,,,,,,001,152,2020_Feb_20_1218,spring_faces,3.2.3,60.001365751105155,
condition files/Stage2_1.xlsx,,B2,T2,r,"['s', 'r']","['Stratego', 'Risk']","[-0.15, 0.5]","[0.15, 0.5]",1,1,,,,,,,,,,,,,,,,,0,4,4,4,0,2,2,3,,,,,,,,,,,,,,,,,,,,,,,,,,,,,,,,,,,,,,,,,,,,,,,953.0207471840004,None,953.0207471840004,None,953.0207471840004,None,r,1,0.7010967429996526,954.5540233270003,None,954.5540233270003,None,954.5540233270003,None,955.337396926001,None,955.337396926001,None,955.337396926001,None,955.337396926001,None,,,,,,,,,,,,,,,,,,,,,,,,,,,,,,,,,,,,,,,,,,,,001,152,2020_Feb_20_1218,spring_faces,3.2.3,60.001365751105155,
