condsFile,subStage,cue1,cue2,correct,responseKeys,responseNames,cue1Position,cue2Position,cue1Opacity,cue2Opacity,stageLoop0.thisRepN,stageLoop0.thisTrialN,stageLoop0.thisN,stageLoop0.thisIndex,blockLoop0.thisRepN,blockLoop0.thisTrialN,blockLoop0.thisN,blockLoop0.thisIndex,stage1Loop.thisRepN,stage1Loop.thisTrialN,stage1Loop.thisN,stage1Loop.thisIndex,blockLoop1.thisRepN,blockLoop1.thisTrialN,blockLoop1.thisN,blockLoop1.thisIndex,stage2Loop.thisRepN,stage2Loop.thisTrialN,stage2Loop.thisN,stage2Loop.thisIndex,blockLoop2.thisRepN,blockLoop2.thisTrialN,blockLoop2.thisN,blockLoop2.thisIndex,testLoop.thisRepN,testLoop.thisTrialN,testLoop.thisN,testLoop.thisIndex,blockLoopTest.thisRepN,blockLoopTest.thisTrialN,blockLoopTest.thisN,blockLoopTest.thisIndex,cuePics,id_instr_text.started,id_instr_text.stopped,space_to_continue_2.started,space_to_continue_2.stopped,end_instructions_resp_3.keys,end_instructions_resp_3.rt,end_instructions_resp_3.started,end_instructions_resp_3.stopped,id_input_instr.started,id_input_instr.stopped,id_input_rect.started,id_input_rect.stopped,id_input_resp.keys,id_input_resp.rt,id_input_resp.started,id_input_resp.stopped,sonaID,id_input_text.started,id_input_text.stopped,final_text.started,final_text.stopped,instructions.started,instructions.stopped,end_instructions_resp.keys,end_instructions_resp.rt,end_instructions_resp.started,end_instructions_resp.stopped,space_to_continue.started,space_to_continue.stopped,instructions_stage0.started,instructions_stage0.stopped,end_instructions_resp_stage0.keys,end_instructions_resp_stage0.rt,end_instructions_resp_stage0.started,end_instructions_resp_stage0.stopped,space_to_continue_stage0.started,space_to_continue_stage0.stopped,text.started,text.stopped,resp_text1.started,resp_text1.stopped,resp_text2.started,resp_text2.stopped,trial_resp.keys,trial_resp.corr,trial_resp.rt,trial_resp.started,trial_resp.stopped,cue1Image.started,cue1Image.stopped,cue2Image.started,cue2Image.stopped,cue1Image_fb.started,cue1Image_fb.stopped,cue2Image_fb.started,cue2Image_fb.stopped,fb_text_answer.started,fb_text_answer.stopped,feedback_image.started,feedback_image.stopped,instructions_stage1.started,instructions_stage1.stopped,end_instructions_resp_stage1.keys,end_instructions_resp_stage1.rt,end_instructions_resp_stage1.started,end_instructions_resp_stage1.stopped,space_to_continue_stage1.started,space_to_continue_stage1.stopped,instructions_2.started,instructions_2.stopped,end_instructions_resp_2.keys,end_instructions_resp_2.rt,end_instructions_resp_2.started,end_instructions_resp_2.stopped,press_space_to_continue_stage2.started,press_space_to_continue_stage2.stopped,instructions_testStage1.started,instructions_testStage1.stopped,end_instructions_resp_test1.keys,end_instructions_resp_test1.rt,end_instructions_resp_test1.started,end_instructions_resp_test1.stopped,press_space_to_continue_test1.started,press_space_to_continue_test1.stopped,cue1Image_testChoice.started,cue1Image_testChoice.stopped,cue2Image_testChoice.started,cue2Image_testChoice.stopped,test_resp.keys,test_resp.corr,test_resp.rt,test_resp.started,test_resp.stopped,cue1Image_testConf.started,cue1Image_testConf.stopped,cue2Image_testConf.started,cue2Image_testConf.stopped,conf_reminder.started,conf_reminder.stopped,conf_rating.response,conf_rating.rt,conf_rating.started,conf_rating.stopped,session,participant,date,expName,psychopyVersion,frameRate,
,,,,,,,,,,,,,,,,,,,,,,,,,,,,,,,,,,,,,,,,,,,"{'none': 'pictures/20M_AN_C.png', 'alpha': 'pictures/SHINEd_melon.png', 'beta': 'pictures/SHINEd_pepper.png', 'theta': 'pictures/SHINEd_pear.png', 'phi': 'pictures/SHINEd_apple.png', 'T1': 'pictures/20M_AN_C.png', 'T2': 'pictures/34M_AN_C.png', 'T3': 'pictures/22M_AN_C.png', 'T4': 'pictures/37M_AN_C.png', 'T5': 'pictures/23M_AN_C.png', 'T6': 'pictures/36M_AN_C.png', 'B1': 'pictures/32M_NE_C.png', 'B2': 'pictures/26M_NE_C.png', 'B3': 'pictures/31M_NE_C.png', 'B4': 'pictures/25M_NE_C.png', 'B5': 'pictures/38M_NE_C.png', 'B6': 'pictures/33M_NE_C.png'}",11.180015597999954,None,16.146767076999822,None,space,27.510445864998474,16.146767076999822,None,,,,,,,,,,,,,,,,,,,,,,,,,,,,,,,,,,,,,,,,,,,,,,,,,,,,,,,,,,,,,,,,,,,,,,,,,,,,,,,,,,,,,,,,,,,,,,,,001,153,2020_Feb_20_1255,spring_faces,3.2.3,60.041269486862284,
,,,,,,,,,,,,,,,,,,,,,,,,,,,,,,,,,,,,,,,,,,,,,,,,,,,,44.080100332001166,None,44.080100332001166,None,"['0', '6', '0', '5', 'l', 'i', 'c', 'e', 'n', '0', '6', '0', '5', 'l', 'i', 'c', 'e', 'n', '7', '7', '8', '7', '8', '7', '8', '7', '8']","[11.897150361999593, 12.42507865799962, 17.640995137000573, 18.05707464199986, 22.681157381000958, 22.969010431001152, 28.809080457000164, 29.033160715000122, 29.689072044000568, 49.54510143300104, 50.185007546000634, 50.63315888000034, 51.75298703500084, 52.72901183999966, 53.48114282900133, 54.88907546600058, 55.145102758000576, 55.64101237000068, 95.00100709500111, 95.27306942700125, 95.97708195100131, 96.36110164999991, 96.61702755599981, 97.00100624200059, 97.28906499100049, 97.56110441000055, 97.92900984900007]",44.080100332001166,None,,,,,,,,,,,,,,,,,,,,,,,,,,,,,,,,,,,,,,,,,,,,,,,,,,,,,,,,,,,,,,,,,,,,,,,,,,,,,,,,,,,,,,,,001,153,2020_Feb_20_1255,spring_faces,3.2.3,60.041269486862284,
,,,,,,,,,,,,,,,,,,,,,,,,,,,,,,,,,,,,,,,,,,,,,,,,,,,,,,,,,,,,778787878,44.080100332001166,None,44.080100332001166,None,147.06343751500026,None,space,5.178438573000676,152.04677558299954,None,,,,,,,,,,,,,,,,,,,,,,,,,,,,,,,,,,,,,,,,,,,,,,,,,,,,,,,,,,,,,,,,,,,,,,,,,,,,,001,153,2020_Feb_20_1255,spring_faces,3.2.3,60.041269486862284,
,,,,,,,,,,,,,,,,,,,,,,,,,,,,,,,,,,,,,,,,,,,,,,,,,,,,,,,,,,,,,,,,,,,,,,,152.04677558299954,None,157.24675430500065,None,space,11.87510174399904,162.2301201579994,None,,,,,,,,,,,,,,,,,,,,,,,,,,,,,,,,,,,,,,,,,,,,,,,,,,,,,,,,,,,,,,,,,,,,,001,153,2020_Feb_20_1255,spring_faces,3.2.3,60.041269486862284,
condition files/Stage0a.xlsx,0a,beta,none,g,"['h', 'g']","['Chess', 'Go']","[0, 0.5]","[0, 0]",1,0,0,0,0,0,0,0,0,1,,,,,,,,,,,,,,,,,,,,,,,,,,,,,,,,,,,,,,,,,,,,,,,,,,,,,,,,,,,,,162.2301201579994,None,174.16346418600006,None,174.16346418600006,None,174.16346418600006,None,g,1,4.886420007000197,175.74675947099968,None,175.74675947099968,None,175.74675947099968,None,180.71335592300056,None,180.71335592300056,None,180.71335592300056,None,180.71335592300056,None,,,,,,,,,,,,,,,,,,,,,,,,,,,,,,,,,,,,,,,,,,,,001,153,2020_Feb_20_1255,spring_faces,3.2.3,60.041269486862284,
condition files/Stage0a.xlsx,0a,alpha,none,h,"['h', 'g']","['Chess', 'Go']","[0, 0.5]","[0, 0]",1,0,0,0,0,0,0,1,1,0,,,,,,,,,,,,,,,,,,,,,,,,,,,,,,,,,,,,,,,,,,,,,,,,,,,,,,,,,,,,,,,182.68013566400077,None,182.68013566400077,None,182.68013566400077,None,h,1,1.459740457999942,184.21345096000005,None,184.21345096000005,None,184.21345096000005,None,185.7467646999994,None,185.7467646999994,None,185.7467646999994,None,185.7467646999994,None,,,,,,,,,,,,,,,,,,,,,,,,,,,,,,,,,,,,,,,,,,,,001,153,2020_Feb_20_1255,spring_faces,3.2.3,60.041269486862284,
condition files/Stage0a.xlsx,0a,alpha,none,h,"['h', 'g']","['Chess', 'Go']","[0, 0.5]","[0, 0]",1,0,0,1,1,1,0,0,0,0,,,,,,,,,,,,,,,,,,,,,,,,,,,,,,,,,,,,,,,,,,,,,,,,,,,,,,,,,,,,,,,187.73008833200038,None,187.73008833200038,None,187.73008833200038,None,h,1,1.6098024389993952,189.2634232370001,None,189.2634232370001,None,189.2634232370001,None,190.9301163960008,None,190.9301163960008,None,190.9301163960008,None,190.9301163960008,None,,,,,,,,,,,,,,,,,,,,,,,,,,,,,,,,,,,,,,,,,,,,001,153,2020_Feb_20_1255,spring_faces,3.2.3,60.041269486862284,
condition files/Stage0a.xlsx,0a,beta,none,g,"['h', 'g']","['Chess', 'Go']","[0, 0.5]","[0, 0]",1,0,0,1,1,1,0,1,1,1,,,,,,,,,,,,,,,,,,,,,,,,,,,,,,,,,,,,,,,,,,,,,,,,,,,,,,,,,,,,,,,192.91346426699965,None,192.91346426699965,None,192.91346426699965,None,g,1,1.930451661999541,194.4467999360004,None,194.4467999360004,None,194.4467999360004,None,196.44676073700066,None,196.44676073700066,None,196.44676073700066,None,196.44676073700066,None,,,,,,,,,,,,,,,,,,,,,,,,,,,,,,,,,,,,,,,,,,,,001,153,2020_Feb_20_1255,spring_faces,3.2.3,60.041269486862284,
condition files/Stage0a.xlsx,0a,alpha,none,h,"['h', 'g']","['Chess', 'Go']","[0, 0.5]","[0, 0]",1,0,0,2,2,2,0,0,0,0,,,,,,,,,,,,,,,,,,,,,,,,,,,,,,,,,,,,,,,,,,,,,,,,,,,,,,,,,,,,,,,198.43008683799962,None,198.43008683799962,None,198.43008683799962,None,h,1,0.9098625280003034,199.96338227200067,None,199.96338227200067,None,199.96338227200067,None,200.929932387,None,200.929932387,None,200.929932387,None,200.929932387,None,,,,,,,,,,,,,,,,,,,,,,,,,,,,,,,,,,,,,,,,,,,,001,153,2020_Feb_20_1255,spring_faces,3.2.3,60.041269486862284,
condition files/Stage0a.xlsx,0a,beta,none,g,"['h', 'g']","['Chess', 'Go']","[0, 0.5]","[0, 0]",1,0,0,2,2,2,0,1,1,1,,,,,,,,,,,,,,,,,,,,,,,,,,,,,,,,,,,,,,,,,,,,,,,,,,,,,,,,,,,,,,,202.9134383950004,None,202.9134383950004,None,202.9134383950004,None,g,1,0.6023724810002022,204.44676818100015,None,204.44676818100015,None,204.44676818100015,None,205.11337867200018,None,205.11337867200018,None,205.11337867200018,None,205.11337867200018,None,,,,,,,,,,,,,,,,,,,,,,,,,,,,,,,,,,,,,,,,,,,,001,153,2020_Feb_20_1255,spring_faces,3.2.3,60.041269486862284,
condition files/Stage0a.xlsx,0a,alpha,none,h,"['h', 'g']","['Chess', 'Go']","[0, 0.5]","[0, 0]",1,0,0,3,3,3,0,0,0,0,,,,,,,,,,,,,,,,,,,,,,,,,,,,,,,,,,,,,,,,,,,,,,,,,,,,,,,,,,,,,,,207.11339632199997,None,207.11339632199997,None,207.11339632199997,None,h,1,0.7064235929992719,208.64676956699986,None,208.64676956699986,None,208.64676956699986,None,209.43009377999988,None,209.43009377999988,None,209.43009377999988,None,209.43009377999988,None,,,,,,,,,,,,,,,,,,,,,,,,,,,,,,,,,,,,,,,,,,,,001,153,2020_Feb_20_1255,spring_faces,3.2.3,60.041269486862284,
condition files/Stage0a.xlsx,0a,beta,none,g,"['h', 'g']","['Chess', 'Go']","[0, 0.5]","[0, 0]",1,0,0,3,3,3,0,1,1,1,,,,,,,,,,,,,,,,,,,,,,,,,,,,,,,,,,,,,,,,,,,,,,,,,,,,,,,,,,,,,,,211.39662470000076,None,211.39662470000076,None,211.39662470000076,None,g,1,0.631180813001265,212.9300825219998,None,212.9300825219998,None,212.9300825219998,None,213.61329355499947,None,213.61329355499947,None,213.61329355499947,None,213.61329355499947,None,,,,,,,,,,,,,,,,,,,,,,,,,,,,,,,,,,,,,,,,,,,,001,153,2020_Feb_20_1255,spring_faces,3.2.3,60.041269486862284,
condition files/Stage0a.xlsx,0a,beta,none,g,"['h', 'g']","['Chess', 'Go']","[0, 0.5]","[0, 0]",1,0,0,4,4,4,0,0,0,1,,,,,,,,,,,,,,,,,,,,,,,,,,,,,,,,,,,,,,,,,,,,,,,,,,,,,,,,,,,,,,,215.61342345999947,None,215.61342345999947,None,215.61342345999947,None,h,0,0.5425517220010079,217.14669455500007,None,217.14669455500007,None,217.14669455500007,None,217.74678006100112,None,217.74678006100112,None,217.74678006100112,None,217.74678006100112,None,,,,,,,,,,,,,,,,,,,,,,,,,,,,,,,,,,,,,,,,,,,,001,153,2020_Feb_20_1255,spring_faces,3.2.3,60.041269486862284,
condition files/Stage0a.xlsx,0a,alpha,none,h,"['h', 'g']","['Chess', 'Go']","[0, 0.5]","[0, 0]",1,0,0,4,4,4,0,1,1,0,,,,,,,,,,,,,,,,,,,,,,,,,,,,,,,,,,,,,,,,,,,,,,,,,,,,,,,,,,,,,,,219.73010351599987,None,219.73010351599987,None,219.73010351599987,None,h,1,0.9377307220001967,221.26345368799957,None,221.26345368799957,None,221.26345368799957,None,222.2634670589996,None,222.2634670589996,None,222.2634670589996,None,222.2634670589996,None,,,,,,,,,,,,,,,,,,,,,,,,,,,,,,,,,,,,,,,,,,,,001,153,2020_Feb_20_1255,spring_faces,3.2.3,60.041269486862284,
condition files/Stage0a.xlsx,0a,alpha,none,h,"['h', 'g']","['Chess', 'Go']","[0, 0.5]","[0, 0]",1,0,0,5,5,5,0,0,0,0,,,,,,,,,,,,,,,,,,,,,,,,,,,,,,,,,,,,,,,,,,,,,,,,,,,,,,,,,,,,,,,224.26342225900044,None,224.26342225900044,None,224.26342225900044,None,h,1,0.8044195399997989,225.7967643330012,None,225.7967643330012,None,225.7967643330012,None,226.66342855900075,None,226.66342855900075,None,226.66342855900075,None,226.66342855900075,None,,,,,,,,,,,,,,,,,,,,,,,,,,,,,,,,,,,,,,,,,,,,001,153,2020_Feb_20_1255,spring_faces,3.2.3,60.041269486862284,
condition files/Stage0a.xlsx,0a,beta,none,g,"['h', 'g']","['Chess', 'Go']","[0, 0.5]","[0, 0]",1,0,0,5,5,5,0,1,1,1,,,,,,,,,,,,,,,,,,,,,,,,,,,,,,,,,,,,,,,,,,,,,,,,,,,,,,,,,,,,,,,228.64678562100016,None,228.64678562100016,None,228.64678562100016,None,g,1,0.7250705899987224,230.18012866699974,None,230.18012866699974,None,230.18012866699974,None,230.96344881699952,None,230.96344881699952,None,230.96344881699952,None,230.96344881699952,None,,,,,,,,,,,,,,,,,,,,,,,,,,,,,,,,,,,,,,,,,,,,001,153,2020_Feb_20_1255,spring_faces,3.2.3,60.041269486862284,
condition files/Stage0b_1.xlsx,0b,none,beta,g,"['h', 'g']","['Chess', 'Go']","[-0.15, 0.5]","[0.15, 0.5]",0,1,0,6,6,6,0,0,0,1,,,,,,,,,,,,,,,,,,,,,,,,,,,,,,,,,,,,,,,,,,,,,,,,,,,,,,,,,,,,,,,232.96344021699952,None,232.96344021699952,None,232.96344021699952,None,g,1,0.695845382000698,234.51330901599977,None,234.51330901599977,None,234.51330901599977,None,235.28013615999953,None,235.28013615999953,None,235.28013615999953,None,235.28013615999953,None,,,,,,,,,,,,,,,,,,,,,,,,,,,,,,,,,,,,,,,,,,,,001,153,2020_Feb_20_1255,spring_faces,3.2.3,60.041269486862284,
condition files/Stage0b_1.xlsx,0b,alpha,none,h,"['h', 'g']","['Chess', 'Go']","[-0.15, 0.5]","[0.15, 0.5]",1,0,0,6,6,6,0,1,1,0,,,,,,,,,,,,,,,,,,,,,,,,,,,,,,,,,,,,,,,,,,,,,,,,,,,,,,,,,,,,,,,237.24676005699985,None,237.24676005699985,None,237.24676005699985,None,h,1,0.605389190999631,238.77981486099998,None,238.77981486099998,None,238.77981486099998,None,239.46334539999953,None,239.46334539999953,None,239.46334539999953,None,239.46334539999953,None,,,,,,,,,,,,,,,,,,,,,,,,,,,,,,,,,,,,,,,,,,,,001,153,2020_Feb_20_1255,spring_faces,3.2.3,60.041269486862284,
condition files/Stage0b_2.xlsx,0b,beta,none,g,"['h', 'g']","['Chess', 'Go']","[-0.15, 0.5]","[0.15, 0.5]",1,0,0,7,7,7,0,0,0,1,,,,,,,,,,,,,,,,,,,,,,,,,,,,,,,,,,,,,,,,,,,,,,,,,,,,,,,,,,,,,,,241.44675457800076,None,241.44675457800076,None,241.44675457800076,None,g,1,0.9811919719995785,242.98010516000068,None,242.98010516000068,None,242.98010516000068,None,244.0300470229995,None,244.0300470229995,None,244.0300470229995,None,244.0300470229995,None,,,,,,,,,,,,,,,,,,,,,,,,,,,,,,,,,,,,,,,,,,,,001,153,2020_Feb_20_1255,spring_faces,3.2.3,60.041269486862284,
condition files/Stage0b_2.xlsx,0b,none,alpha,h,"['h', 'g']","['Chess', 'Go']","[-0.15, 0.5]","[0.15, 0.5]",0,1,0,7,7,7,0,1,1,0,,,,,,,,,,,,,,,,,,,,,,,,,,,,,,,,,,,,,,,,,,,,,,,,,,,,,,,,,,,,,,,245.99667830600083,None,245.99667830600083,None,245.99667830600083,None,h,1,1.151101555000423,247.53003861900106,None,247.53003861900106,None,247.53003861900106,None,248.76345031799974,None,248.76345031799974,None,248.76345031799974,None,248.76345031799974,None,,,,,,,,,,,,,,,,,,,,,,,,,,,,,,,,,,,,,,,,,,,,001,153,2020_Feb_20_1255,spring_faces,3.2.3,60.041269486862284,
condition files/Stage0b_1.xlsx,0b,alpha,none,h,"['h', 'g']","['Chess', 'Go']","[-0.15, 0.5]","[0.15, 0.5]",1,0,0,8,8,8,0,0,0,0,,,,,,,,,,,,,,,,,,,,,,,,,,,,,,,,,,,,,,,,,,,,,,,,,,,,,,,,,,,,,,,250.74676982300116,None,250.74676982300116,None,250.74676982300116,None,h,1,0.7530650430016976,252.28009905,None,252.28009905,None,252.28009905,None,253.11343985300118,None,253.11343985300118,None,253.11343985300118,None,253.11343985300118,None,,,,,,,,,,,,,,,,,,,,,,,,,,,,,,,,,,,,,,,,,,,,001,153,2020_Feb_20_1255,spring_faces,3.2.3,60.041269486862284,
condition files/Stage0b_1.xlsx,0b,none,beta,g,"['h', 'g']","['Chess', 'Go']","[-0.15, 0.5]","[0.15, 0.5]",0,1,0,8,8,8,0,1,1,1,,,,,,,,,,,,,,,,,,,,,,,,,,,,,,,,,,,,,,,,,,,,,,,,,,,,,,,,,,,,,,,255.08008922999943,None,255.08008922999943,None,255.08008922999943,None,g,1,0.5797976880003262,256.6134217260005,None,256.6134217260005,None,256.6134217260005,None,257.26347080599953,None,257.26347080599953,None,257.26347080599953,None,257.26347080599953,None,,,,,,,,,,,,,,,,,,,,,,,,,,,,,,,,,,,,,,,,,,,,001,153,2020_Feb_20_1255,spring_faces,3.2.3,60.041269486862284,
condition files/Stage0b_2.xlsx,0b,beta,none,g,"['h', 'g']","['Chess', 'Go']","[-0.15, 0.5]","[0.15, 0.5]",1,0,0,9,9,9,0,0,0,1,,,,,,,,,,,,,,,,,,,,,,,,,,,,,,,,,,,,,,,,,,,,,,,,,,,,,,,,,,,,,,,259.24675258299976,None,259.24675258299976,None,259.24675258299976,None,g,1,0.41342655799962813,260.77985640800034,None,260.77985640800034,None,260.77985640800034,None,261.2464908410002,None,261.2464908410002,None,261.2464908410002,None,261.2464908410002,None,,,,,,,,,,,,,,,,,,,,,,,,,,,,,,,,,,,,,,,,,,,,001,153,2020_Feb_20_1255,spring_faces,3.2.3,60.041269486862284,
condition files/Stage0b_2.xlsx,0b,none,alpha,h,"['h', 'g']","['Chess', 'Go']","[-0.15, 0.5]","[0.15, 0.5]",0,1,0,9,9,9,0,1,1,0,,,,,,,,,,,,,,,,,,,,,,,,,,,,,,,,,,,,,,,,,,,,,,,,,,,,,,,,,,,,,,,263.23013489500045,None,263.23013489500045,None,263.23013489500045,None,h,1,0.685804143000496,264.7633900680012,None,264.7633900680012,None,264.7633900680012,None,265.5300870020001,None,265.5300870020001,None,265.5300870020001,None,265.5300870020001,None,,,,,,,,,,,,,,,,,,,,,,,,,,,,,,,,,,,,,,,,,,,,001,153,2020_Feb_20_1255,spring_faces,3.2.3,60.041269486862284,
condition files/Stage0b_1.xlsx,0b,alpha,none,h,"['h', 'g']","['Chess', 'Go']","[-0.15, 0.5]","[0.15, 0.5]",1,0,0,10,10,10,0,0,0,0,,,,,,,,,,,,,,,,,,,,,,,,,,,,,,,,,,,,,,,,,,,,,,,,,,,,,,,,,,,,,,,267.51341852599944,None,267.51341852599944,None,267.51341852599944,None,h,1,0.7384653970002546,269.0467619589999,None,269.0467619589999,None,269.0467619589999,None,269.86342672200044,None,269.86342672200044,None,269.86342672200044,None,269.86342672200044,None,,,,,,,,,,,,,,,,,,,,,,,,,,,,,,,,,,,,,,,,,,,,001,153,2020_Feb_20_1255,spring_faces,3.2.3,60.041269486862284,
condition files/Stage0b_1.xlsx,0b,none,beta,g,"['h', 'g']","['Chess', 'Go']","[-0.15, 0.5]","[0.15, 0.5]",0,1,0,10,10,10,0,1,1,1,,,,,,,,,,,,,,,,,,,,,,,,,,,,,,,,,,,,,,,,,,,,,,,,,,,,,,,,,,,,,,,271.8299922360002,None,271.8299922360002,None,271.8299922360002,None,g,1,0.7256356180005241,273.363422466,None,273.363422466,None,273.363422466,None,274.16345183500016,None,274.16345183500016,None,274.16345183500016,None,274.16345183500016,None,,,,,,,,,,,,,,,,,,,,,,,,,,,,,,,,,,,,,,,,,,,,001,153,2020_Feb_20_1255,spring_faces,3.2.3,60.041269486862284,
condition files/Stage0b_2.xlsx,0b,beta,none,g,"['h', 'g']","['Chess', 'Go']","[-0.15, 0.5]","[0.15, 0.5]",1,0,0,11,11,11,0,0,0,1,,,,,,,,,,,,,,,,,,,,,,,,,,,,,,,,,,,,,,,,,,,,,,,,,,,,,,,,,,,,,,,276.1467761719996,None,276.1467761719996,None,276.1467761719996,None,g,1,0.7934011540000938,277.6798499790002,None,277.6798499790002,None,277.6798499790002,None,278.5298307430003,None,278.5298307430003,None,278.5298307430003,None,278.5298307430003,None,,,,,,,,,,,,,,,,,,,,,,,,,,,,,,,,,,,,,,,,,,,,001,153,2020_Feb_20_1255,spring_faces,3.2.3,60.041269486862284,
condition files/Stage0b_2.xlsx,0b,none,alpha,h,"['h', 'g']","['Chess', 'Go']","[-0.15, 0.5]","[0.15, 0.5]",0,1,0,11,11,11,0,1,1,0,,,,,,,,,,,,,,,,,,,,,,,,,,,,,,,,,,,,,,,,,,,,,,,,,,,,,,,,,,,,,,,280.5134743050003,None,280.5134743050003,None,280.5134743050003,None,h,1,0.5543947520000074,282.04677615699984,None,282.04677615699984,None,282.04677615699984,None,282.6801134130001,None,282.6801134130001,None,282.6801134130001,None,282.6801134130001,None,,,,,,,,,,,,,,,,,,,,,,,,,,,,,,,,,,,,,,,,,,,,001,153,2020_Feb_20_1255,spring_faces,3.2.3,60.041269486862284,
condition files/Stage0c_1.xlsx,0c,phi,beta,g,"['h', 'g']","['Chess', 'Go']","[-0.15, 0.5]","[0.15, 0.5]",1,1,0,12,12,12,0,0,0,3,,,,,,,,,,,,,,,,,,,,,,,,,,,,,,,,,,,,,,,,,,,,,,,,,,,,,,,,,,,,,,,284.663427978001,None,284.663427978001,None,284.663427978001,None,g,1,3.8925773040009517,286.1966643710002,None,286.1966643710002,None,286.1966643710002,None,290.1466184279998,None,290.1466184279998,None,290.1466184279998,None,290.1466184279998,None,,,,,,,,,,,,,,,,,,,,,,,,,,,,,,,,,,,,,,,,,,,,001,153,2020_Feb_20_1255,spring_faces,3.2.3,60.041269486862284,
condition files/Stage0c_1.xlsx,0c,alpha,phi,h,"['h', 'g']","['Chess', 'Go']","[-0.15, 0.5]","[0.15, 0.5]",1,1,0,12,12,12,0,1,1,1,,,,,,,,,,,,,,,,,,,,,,,,,,,,,,,,,,,,,,,,,,,,,,,,,,,,,,,,,,,,,,,292.1300868140006,None,292.1300868140006,None,292.1300868140006,None,h,1,0.6978379680003854,293.6634288610003,None,293.6634288610003,None,293.6634288610003,None,294.4134693220003,None,294.4134693220003,None,294.4134693220003,None,294.4134693220003,None,,,,,,,,,,,,,,,,,,,,,,,,,,,,,,,,,,,,,,,,,,,,001,153,2020_Feb_20_1255,spring_faces,3.2.3,60.041269486862284,
condition files/Stage0c_1.xlsx,0c,beta,theta,g,"['h', 'g']","['Chess', 'Go']","[-0.15, 0.5]","[0.15, 0.5]",1,1,0,12,12,12,0,2,2,2,,,,,,,,,,,,,,,,,,,,,,,,,,,,,,,,,,,,,,,,,,,,,,,,,,,,,,,,,,,,,,,296.3967986919997,None,296.3967986919997,None,296.3967986919997,None,g,1,1.0231490990008751,297.9300569549996,None,297.9300569549996,None,297.9300569549996,None,299.03011442200113,None,299.03011442200113,None,299.03011442200113,None,299.03011442200113,None,,,,,,,,,,,,,,,,,,,,,,,,,,,,,,,,,,,,,,,,,,,,001,153,2020_Feb_20_1255,spring_faces,3.2.3,60.041269486862284,
condition files/Stage0c_1.xlsx,0c,theta,alpha,h,"['h', 'g']","['Chess', 'Go']","[-0.15, 0.5]","[0.15, 0.5]",1,1,0,12,12,12,0,3,3,0,,,,,,,,,,,,,,,,,,,,,,,,,,,,,,,,,,,,,,,,,,,,,,,,,,,,,,,,,,,,,,,300.99681237299956,None,300.99681237299956,None,300.99681237299956,None,h,1,0.5519587269991462,302.5131629360003,None,302.5131629360003,None,302.5131629360003,None,303.13004119499965,None,303.13004119499965,None,303.13004119499965,None,303.13004119499965,None,,,,,,,,,,,,,,,,,,,,,,,,,,,,,,,,,,,,,,,,,,,,001,153,2020_Feb_20_1255,spring_faces,3.2.3,60.041269486862284,
condition files/Stage0c_2.xlsx,0c,phi,alpha,h,"['h', 'g']","['Chess', 'Go']","[-0.15, 0.5]","[0.15, 0.5]",1,1,0,13,13,13,0,0,0,1,,,,,,,,,,,,,,,,,,,,,,,,,,,,,,,,,,,,,,,,,,,,,,,,,,,,,,,,,,,,,,,305.13006016500003,None,305.13006016500003,None,305.13006016500003,None,h,1,0.4178139439991355,306.66333936500087,None,306.66333936500087,None,306.66333936500087,None,307.14671064899994,None,307.14671064899994,None,307.14671064899994,None,307.14671064899994,None,,,,,,,,,,,,,,,,,,,,,,,,,,,,,,,,,,,,,,,,,,,,001,153,2020_Feb_20_1255,spring_faces,3.2.3,60.041269486862284,
condition files/Stage0c_2.xlsx,0c,alpha,theta,h,"['h', 'g']","['Chess', 'Go']","[-0.15, 0.5]","[0.15, 0.5]",1,1,0,13,13,13,0,1,1,0,,,,,,,,,,,,,,,,,,,,,,,,,,,,,,,,,,,,,,,,,,,,,,,,,,,,,,,,,,,,,,,309.1301411450004,None,309.1301411450004,None,309.1301411450004,None,h,1,0.7057070699993346,310.6634618999997,None,310.6634618999997,None,310.6634618999997,None,311.4301369250006,None,311.4301369250006,None,311.4301369250006,None,311.4301369250006,None,,,,,,,,,,,,,,,,,,,,,,,,,,,,,,,,,,,,,,,,,,,,001,153,2020_Feb_20_1255,spring_faces,3.2.3,60.041269486862284,
condition files/Stage0c_2.xlsx,0c,theta,beta,g,"['h', 'g']","['Chess', 'Go']","[-0.15, 0.5]","[0.15, 0.5]",1,1,0,13,13,13,0,2,2,2,,,,,,,,,,,,,,,,,,,,,,,,,,,,,,,,,,,,,,,,,,,,,,,,,,,,,,,,,,,,,,,313.41343031200086,None,313.41343031200086,None,313.41343031200086,None,h,0,0.6155306649998238,314.92966511899976,None,314.92966511899976,None,314.92966511899976,None,315.59672381400014,None,315.59672381400014,None,315.59672381400014,None,315.59672381400014,None,,,,,,,,,,,,,,,,,,,,,,,,,,,,,,,,,,,,,,,,,,,,001,153,2020_Feb_20_1255,spring_faces,3.2.3,60.041269486862284,
condition files/Stage0c_2.xlsx,0c,beta,phi,g,"['h', 'g']","['Chess', 'Go']","[-0.15, 0.5]","[0.15, 0.5]",1,1,0,13,13,13,0,3,3,3,,,,,,,,,,,,,,,,,,,,,,,,,,,,,,,,,,,,,,,,,,,,,,,,,,,,,,,,,,,,,,,317.58005694200074,None,317.58005694200074,None,317.58005694200074,None,g,1,0.7356408819996432,319.1135145120006,None,319.1135145120006,None,319.1135145120006,None,319.91347476600095,None,319.91347476600095,None,319.91347476600095,None,319.91347476600095,None,,,,,,,,,,,,,,,,,,,,,,,,,,,,,,,,,,,,,,,,,,,,001,153,2020_Feb_20_1255,spring_faces,3.2.3,60.041269486862284,
condition files/Stage0c_1.xlsx,0c,beta,theta,g,"['h', 'g']","['Chess', 'Go']","[-0.15, 0.5]","[0.15, 0.5]",1,1,0,14,14,14,0,0,0,2,,,,,,,,,,,,,,,,,,,,,,,,,,,,,,,,,,,,,,,,,,,,,,,,,,,,,,,,,,,,,,,321.91343974200026,None,321.91343974200026,None,321.91343974200026,None,g,1,0.5305031770003552,323.4467671430011,None,323.4467671430011,None,323.4467671430011,None,324.03012629000114,None,324.03012629000114,None,324.03012629000114,None,324.03012629000114,None,,,,,,,,,,,,,,,,,,,,,,,,,,,,,,,,,,,,,,,,,,,,001,153,2020_Feb_20_1255,spring_faces,3.2.3,60.041269486862284,
condition files/Stage0c_1.xlsx,0c,alpha,phi,h,"['h', 'g']","['Chess', 'Go']","[-0.15, 0.5]","[0.15, 0.5]",1,1,0,14,14,14,0,1,1,1,,,,,,,,,,,,,,,,,,,,,,,,,,,,,,,,,,,,,,,,,,,,,,,,,,,,,,,,,,,,,,,326.0134473140006,None,326.0134473140006,None,326.0134473140006,None,h,1,0.6864804689994344,327.5467129910012,None,327.5467129910012,None,327.5467129910012,None,328.29678081900056,None,328.29678081900056,None,328.29678081900056,None,328.29678081900056,None,,,,,,,,,,,,,,,,,,,,,,,,,,,,,,,,,,,,,,,,,,,,001,153,2020_Feb_20_1255,spring_faces,3.2.3,60.041269486862284,
condition files/Stage0c_1.xlsx,0c,phi,beta,g,"['h', 'g']","['Chess', 'Go']","[-0.15, 0.5]","[0.15, 0.5]",1,1,0,14,14,14,0,2,2,3,,,,,,,,,,,,,,,,,,,,,,,,,,,,,,,,,,,,,,,,,,,,,,,,,,,,,,,,,,,,,,,330.2801182990006,None,330.2801182990006,None,330.2801182990006,None,g,1,0.9486984569994092,331.7966021430002,None,331.7966021430002,None,331.7966021430002,None,332.79670967200036,None,332.79670967200036,None,332.79670967200036,None,332.79670967200036,None,,,,,,,,,,,,,,,,,,,,,,,,,,,,,,,,,,,,,,,,,,,,001,153,2020_Feb_20_1255,spring_faces,3.2.3,60.041269486862284,
condition files/Stage0c_1.xlsx,0c,theta,alpha,h,"['h', 'g']","['Chess', 'Go']","[-0.15, 0.5]","[0.15, 0.5]",1,1,0,14,14,14,0,3,3,0,,,,,,,,,,,,,,,,,,,,,,,,,,,,,,,,,,,,,,,,,,,,,,,,,,,,,,,,,,,,,,,334.7800573100012,None,334.7800573100012,None,334.7800573100012,None,h,1,1.0236886279999453,336.3135018510002,None,336.3135018510002,None,336.3135018510002,None,337.3967628040009,None,337.3967628040009,None,337.3967628040009,None,337.3967628040009,None,,,,,,,,,,,,,,,,,,,,,,,,,,,,,,,,,,,,,,,,,,,,001,153,2020_Feb_20_1255,spring_faces,3.2.3,60.041269486862284,
condition files/Stage0c_2.xlsx,0c,theta,beta,g,"['h', 'g']","['Chess', 'Go']","[-0.15, 0.5]","[0.15, 0.5]",1,1,0,15,15,15,0,0,0,2,,,,,,,,,,,,,,,,,,,,,,,,,,,,,,,,,,,,,,,,,,,,,,,,,,,,,,,,,,,,,,,339.39677182000014,None,339.39677182000014,None,339.39677182000014,None,g,1,0.7596590869998181,340.91344201100037,None,340.91344201100037,None,340.91344201100037,None,341.7300965230006,None,341.7300965230006,None,341.7300965230006,None,341.7300965230006,None,,,,,,,,,,,,,,,,,,,,,,,,,,,,,,,,,,,,,,,,,,,,001,153,2020_Feb_20_1255,spring_faces,3.2.3,60.041269486862284,
condition files/Stage0c_2.xlsx,0c,alpha,theta,h,"['h', 'g']","['Chess', 'Go']","[-0.15, 0.5]","[0.15, 0.5]",1,1,0,15,15,15,0,1,1,0,,,,,,,,,,,,,,,,,,,,,,,,,,,,,,,,,,,,,,,,,,,,,,,,,,,,,,,,,,,,,,,343.7134911100002,None,343.7134911100002,None,343.7134911100002,None,h,1,1.0352521049990173,345.229867035001,None,345.229867035001,None,345.229867035001,None,346.330076137001,None,346.330076137001,None,346.330076137001,None,346.330076137001,None,,,,,,,,,,,,,,,,,,,,,,,,,,,,,,,,,,,,,,,,,,,,001,153,2020_Feb_20_1255,spring_faces,3.2.3,60.041269486862284,
condition files/Stage0c_2.xlsx,0c,beta,phi,g,"['h', 'g']","['Chess', 'Go']","[-0.15, 0.5]","[0.15, 0.5]",1,1,0,15,15,15,0,2,2,3,,,,,,,,,,,,,,,,,,,,,,,,,,,,,,,,,,,,,,,,,,,,,,,,,,,,,,,,,,,,,,,348.31344351900043,None,348.31344351900043,None,348.31344351900043,None,g,1,0.8824817929998972,349.84676825300085,None,349.84676825300085,None,349.84676825300085,None,350.78004352800053,None,350.78004352800053,None,350.78004352800053,None,350.78004352800053,None,,,,,,,,,,,,,,,,,,,,,,,,,,,,,,,,,,,,,,,,,,,,001,153,2020_Feb_20_1255,spring_faces,3.2.3,60.041269486862284,
condition files/Stage0c_2.xlsx,0c,phi,alpha,h,"['h', 'g']","['Chess', 'Go']","[-0.15, 0.5]","[0.15, 0.5]",1,1,0,15,15,15,0,3,3,1,,,,,,,,,,,,,,,,,,,,,,,,,,,,,,,,,,,,,,,,,,,,,,,,,,,,,,,,,,,,,,,352.76337222000075,None,352.76337222000075,None,352.76337222000075,None,h,1,0.9291580579993024,354.2799574189994,None,354.2799574189994,None,354.2799574189994,None,355.26350513800026,None,355.26350513800026,None,355.26350513800026,None,355.26350513800026,None,,,,,,,,,,,,,,,,,,,,,,,,,,,,,,,,,,,,,,,,,,,,001,153,2020_Feb_20_1255,spring_faces,3.2.3,60.041269486862284,
condition files/Stage0c_1.xlsx,0c,theta,alpha,h,"['h', 'g']","['Chess', 'Go']","[-0.15, 0.5]","[0.15, 0.5]",1,1,0,16,16,16,0,0,0,0,,,,,,,,,,,,,,,,,,,,,,,,,,,,,,,,,,,,,,,,,,,,,,,,,,,,,,,,,,,,,,,357.263460174001,None,357.263460174001,None,357.263460174001,None,h,1,1.0213104249996832,358.7799090520002,None,358.7799090520002,None,358.7799090520002,None,359.8634292879997,None,359.8634292879997,None,359.8634292879997,None,359.8634292879997,None,,,,,,,,,,,,,,,,,,,,,,,,,,,,,,,,,,,,,,,,,,,,001,153,2020_Feb_20_1255,spring_faces,3.2.3,60.041269486862284,
condition files/Stage0c_1.xlsx,0c,alpha,phi,h,"['h', 'g']","['Chess', 'Go']","[-0.15, 0.5]","[0.15, 0.5]",1,1,0,16,16,16,0,1,1,1,,,,,,,,,,,,,,,,,,,,,,,,,,,,,,,,,,,,,,,,,,,,,,,,,,,,,,,,,,,,,,,361.8468115230007,None,361.8468115230007,None,361.8468115230007,None,h,1,0.7730586899997434,363.3801127580009,None,363.3801127580009,None,363.3801127580009,None,364.21344461900117,None,364.21344461900117,None,364.21344461900117,None,364.21344461900117,None,,,,,,,,,,,,,,,,,,,,,,,,,,,,,,,,,,,,,,,,,,,,001,153,2020_Feb_20_1255,spring_faces,3.2.3,60.041269486862284,
condition files/Stage0c_1.xlsx,0c,beta,theta,g,"['h', 'g']","['Chess', 'Go']","[-0.15, 0.5]","[0.15, 0.5]",1,1,0,16,16,16,0,2,2,2,,,,,,,,,,,,,,,,,,,,,,,,,,,,,,,,,,,,,,,,,,,,,,,,,,,,,,,,,,,,,,,366.196762466001,None,366.196762466001,None,366.196762466001,None,g,1,0.7118016230015201,367.713429464,None,367.713429464,None,367.713429464,None,368.4800931310001,None,368.4800931310001,None,368.4800931310001,None,368.4800931310001,None,,,,,,,,,,,,,,,,,,,,,,,,,,,,,,,,,,,,,,,,,,,,001,153,2020_Feb_20_1255,spring_faces,3.2.3,60.041269486862284,
condition files/Stage0c_1.xlsx,0c,phi,beta,g,"['h', 'g']","['Chess', 'Go']","[-0.15, 0.5]","[0.15, 0.5]",1,1,0,16,16,16,0,3,3,3,,,,,,,,,,,,,,,,,,,,,,,,,,,,,,,,,,,,,,,,,,,,,,,,,,,,,,,,,,,,,,,370.4634997810008,None,370.4634997810008,None,370.4634997810008,None,g,1,1.004482801999984,371.99672362899946,None,371.99672362899946,None,371.99672362899946,None,373.06345029600016,None,373.06345029600016,None,373.06345029600016,None,373.06345029600016,None,,,,,,,,,,,,,,,,,,,,,,,,,,,,,,,,,,,,,,,,,,,,001,153,2020_Feb_20_1255,spring_faces,3.2.3,60.041269486862284,
condition files/Stage0c_2.xlsx,0c,phi,alpha,h,"['h', 'g']","['Chess', 'Go']","[-0.15, 0.5]","[0.15, 0.5]",1,1,0,17,17,17,0,0,0,1,,,,,,,,,,,,,,,,,,,,,,,,,,,,,,,,,,,,,,,,,,,,,,,,,,,,,,,,,,,,,,,375.08009024999956,None,375.08009024999956,None,375.08009024999956,None,h,1,0.9325184540011833,376.59678450499996,None,376.59678450499996,None,376.59678450499996,None,377.58009452700026,None,377.58009452700026,None,377.58009452700026,None,377.58009452700026,None,,,,,,,,,,,,,,,,,,,,,,,,,,,,,,,,,,,,,,,,,,,,001,153,2020_Feb_20_1255,spring_faces,3.2.3,60.041269486862284,
condition files/Stage0c_2.xlsx,0c,theta,beta,g,"['h', 'g']","['Chess', 'Go']","[-0.15, 0.5]","[0.15, 0.5]",1,1,0,17,17,17,0,1,1,2,,,,,,,,,,,,,,,,,,,,,,,,,,,,,,,,,,,,,,,,,,,,,,,,,,,,,,,,,,,,,,,379.56332305900105,None,379.56332305900105,None,379.56332305900105,None,g,1,1.0092003339996154,381.0799661860001,None,381.0799661860001,None,381.0799661860001,None,382.1467818399997,None,382.1467818399997,None,382.1467818399997,None,382.1467818399997,None,,,,,,,,,,,,,,,,,,,,,,,,,,,,,,,,,,,,,,,,,,,,001,153,2020_Feb_20_1255,spring_faces,3.2.3,60.041269486862284,
condition files/Stage0c_2.xlsx,0c,beta,phi,g,"['h', 'g']","['Chess', 'Go']","[-0.15, 0.5]","[0.15, 0.5]",1,1,0,17,17,17,0,2,2,3,,,,,,,,,,,,,,,,,,,,,,,,,,,,,,,,,,,,,,,,,,,,,,,,,,,,,,,,,,,,,,,384.1301273219997,None,384.1301273219997,None,384.1301273219997,None,g,1,0.8257502220003516,385.66343241899995,None,385.66343241899995,None,385.66343241899995,None,386.5467807120003,None,386.5467807120003,None,386.5467807120003,None,386.5467807120003,None,,,,,,,,,,,,,,,,,,,,,,,,,,,,,,,,,,,,,,,,,,,,001,153,2020_Feb_20_1255,spring_faces,3.2.3,60.041269486862284,
condition files/Stage0c_2.xlsx,0c,alpha,theta,h,"['h', 'g']","['Chess', 'Go']","[-0.15, 0.5]","[0.15, 0.5]",1,1,0,17,17,17,0,3,3,0,,,,,,,,,,,,,,,,,,,,,,,,,,,,,,,,,,,,,,,,,,,,,,,,,,,,,,,,,,,,,,,388.53009213599944,None,388.53009213599944,None,388.53009213599944,None,h,1,0.9377167889997509,390.0634353360001,None,390.0634353360001,None,390.0634353360001,None,391.0634288580004,None,391.0634288580004,None,391.0634288580004,None,391.0634288580004,None,,,,,,,,,,,,,,,,,,,,,,,,,,,,,,,,,,,,,,,,,,,,001,153,2020_Feb_20_1255,spring_faces,3.2.3,60.041269486862284,
,,,,,,,,,,,,,,,,,,,,,,,,,,,,,,,,,,,,,,,,,,,,,,,,,,,,,,,,,,,,,,,,,,,,,,,,,,,,,,,,,,,,,,,,,,,,,,,,,,,,,,,,393.046779829001,None,space,4.1071224639999855,398.0301062439994,None,,,,,,,,,,,,,,,,,,,,,,,,,,,,,,,,,,,,,,001,153,2020_Feb_20_1255,spring_faces,3.2.3,60.041269486862284,
condition files/Stage1_1.xlsx,,B3,T3,c,"['c', 'm']","['Clue', 'Monopoly']","[-0.15, 0.5]","[0.15, 0.5]",1,1,,,,,,,,,0,0,0,0,0,0,0,4,,,,,,,,,,,,,,,,,,,,,,,,,,,,,,,,,,,,,,,,,,,,,,,,,,,,,,,402.1967613180004,None,402.1967613180004,None,402.1967613180004,None,c,1,2.071098621998317,403.73011290199975,None,403.73011290199975,None,403.73011290199975,None,405.8966476810001,None,405.8966476810001,None,405.8966476810001,None,405.8966476810001,None,,,,,,,398.0301062439994,None,,,,,,,,,,,,,,,,,,,,,,,,,,,,,,,,,,,,001,153,2020_Feb_20_1255,spring_faces,3.2.3,60.041269486862284,
condition files/Stage1_1.xlsx,,T3,B4,c,"['c', 'm']","['Clue', 'Monopoly']","[-0.15, 0.5]","[0.15, 0.5]",1,1,,,,,,,,,0,0,0,0,0,1,1,5,,,,,,,,,,,,,,,,,,,,,,,,,,,,,,,,,,,,,,,,,,,,,,,,,,,,,,,407.84678491500017,None,407.84678491500017,None,407.84678491500017,None,c,1,2.053087170999788,409.38009425600103,None,409.38009425600103,None,409.38009425600103,None,411.49680011500095,None,411.49680011500095,None,411.49680011500095,None,411.49680011500095,None,,,,,,,,,,,,,,,,,,,,,,,,,,,,,,,,,,,,,,,,,,,,001,153,2020_Feb_20_1255,spring_faces,3.2.3,60.041269486862284,
condition files/Stage1_1.xlsx,,B1,T2,c,"['c', 'm']","['Clue', 'Monopoly']","[-0.15, 0.5]","[0.15, 0.5]",1,1,,,,,,,,,0,0,0,0,0,2,2,1,,,,,,,,,,,,,,,,,,,,,,,,,,,,,,,,,,,,,,,,,,,,,,,,,,,,,,,413.4801109199998,None,413.4801109199998,None,413.4801109199998,None,m,0,1.2518081750004058,415.0133001960003,None,415.0133001960003,None,415.0133001960003,None,416.3300583979999,None,416.3300583979999,None,416.3300583979999,None,416.3300583979999,None,,,,,,,,,,,,,,,,,,,,,,,,,,,,,,,,,,,,,,,,,,,,001,153,2020_Feb_20_1255,spring_faces,3.2.3,60.041269486862284,
condition files/Stage1_1.xlsx,,B4,T4,m,"['c', 'm']","['Clue', 'Monopoly']","[-0.15, 0.5]","[0.15, 0.5]",1,1,,,,,,,,,0,0,0,0,0,3,3,7,,,,,,,,,,,,,,,,,,,,,,,,,,,,,,,,,,,,,,,,,,,,,,,,,,,,,,,418.3134421850009,None,418.3134421850009,None,418.3134421850009,None,m,1,1.8770854100002907,420.1801087790009,None,420.1801087790009,None,420.1801087790009,None,422.12996380000004,None,422.12996380000004,None,422.12996380000004,None,422.12996380000004,None,,,,,,,,,,,,,,,,,,,,,,,,,,,,,,,,,,,,,,,,,,,,001,153,2020_Feb_20_1255,spring_faces,3.2.3,60.041269486862284,
condition files/Stage1_1.xlsx,,T1,B1,c,"['c', 'm']","['Clue', 'Monopoly']","[-0.15, 0.5]","[0.15, 0.5]",1,1,,,,,,,,,0,0,0,0,0,4,4,0,,,,,,,,,,,,,,,,,,,,,,,,,,,,,,,,,,,,,,,,,,,,,,,,,,,,,,,424.09678766900106,None,424.09678766900106,None,424.09678766900106,None,c,1,2.971094061000258,425.6300865000012,None,425.6300865000012,None,425.6300865000012,None,428.6800194280004,None,428.6800194280004,None,428.6800194280004,None,428.6800194280004,None,,,,,,,,,,,,,,,,,,,,,,,,,,,,,,,,,,,,,,,,,,,,001,153,2020_Feb_20_1255,spring_faces,3.2.3,60.041269486862284,
condition files/Stage1_1.xlsx,,B2,T1,m,"['c', 'm']","['Clue', 'Monopoly']","[-0.15, 0.5]","[0.15, 0.5]",1,1,,,,,,,,,0,0,0,0,0,5,5,2,,,,,,,,,,,,,,,,,,,,,,,,,,,,,,,,,,,,,,,,,,,,,,,,,,,,,,,430.64675462299965,None,430.64675462299965,None,430.64675462299965,None,m,1,1.700973540000632,432.1801106889998,None,432.1801106889998,None,432.1801106889998,None,433.963359546,None,433.963359546,None,433.963359546,None,433.963359546,None,,,,,,,,,,,,,,,,,,,,,,,,,,,,,,,,,,,,,,,,,,,,001,153,2020_Feb_20_1255,spring_faces,3.2.3,60.041269486862284,
condition files/Stage1_1.xlsx,,T4,B3,m,"['c', 'm']","['Clue', 'Monopoly']","[-0.15, 0.5]","[0.15, 0.5]",1,1,,,,,,,,,0,0,0,0,0,6,6,6,,,,,,,,,,,,,,,,,,,,,,,,,,,,,,,,,,,,,,,,,,,,,,,,,,,,,,,435.9300108490006,None,435.9300108490006,None,435.9300108490006,None,m,1,1.9057325939993461,437.4634296910008,None,437.4634296910008,None,437.4634296910008,None,439.4301041409999,None,439.4301041409999,None,439.4301041409999,None,439.4301041409999,None,,,,,,,,,,,,,,,,,,,,,,,,,,,,,,,,,,,,,,,,,,,,001,153,2020_Feb_20_1255,spring_faces,3.2.3,60.041269486862284,
condition files/Stage1_1.xlsx,,T2,B2,m,"['c', 'm']","['Clue', 'Monopoly']","[-0.15, 0.5]","[0.15, 0.5]",1,1,,,,,,,,,0,0,0,0,0,7,7,3,,,,,,,,,,,,,,,,,,,,,,,,,,,,,,,,,,,,,,,,,,,,,,,,,,,,,,,441.41343952399984,None,441.41343952399984,None,441.41343952399984,None,c,0,1.4944162400006462,442.9467844640003,None,442.9467844640003,None,442.9467844640003,None,444.513428657001,None,444.513428657001,None,444.513428657001,None,444.513428657001,None,,,,,,,,,,,,,,,,,,,,,,,,,,,,,,,,,,,,,,,,,,,,001,153,2020_Feb_20_1255,spring_faces,3.2.3,60.041269486862284,
condition files/Stage1_2.xlsx,,T1,B2,m,"['c', 'm']","['Clue', 'Monopoly']","[-0.15, 0.5]","[0.15, 0.5]",1,1,,,,,,,,,0,1,1,1,0,0,0,2,,,,,,,,,,,,,,,,,,,,,,,,,,,,,,,,,,,,,,,,,,,,,,,,,,,,,,,446.4967766940008,None,446.4967766940008,None,446.4967766940008,None,c,0,1.7712174209991645,448.03000924000116,None,448.03000924000116,None,448.03000924000116,None,449.88009523800065,None,449.88009523800065,None,449.88009523800065,None,449.88009523800065,None,,,,,,,,,,,,,,,,,,,,,,,,,,,,,,,,,,,,,,,,,,,,001,153,2020_Feb_20_1255,spring_faces,3.2.3,60.041269486862284,
condition files/Stage1_2.xlsx,,B4,T3,c,"['c', 'm']","['Clue', 'Monopoly']","[-0.15, 0.5]","[0.15, 0.5]",1,1,,,,,,,,,0,1,1,1,0,1,1,5,,,,,,,,,,,,,,,,,,,,,,,,,,,,,,,,,,,,,,,,,,,,,,,,,,,,,,,451.84676850600044,None,451.84676850600044,None,451.84676850600044,None,c,1,1.957086194999647,453.3801006779995,None,453.3801006779995,None,453.3801006779995,None,455.413457644001,None,455.413457644001,None,455.413457644001,None,455.413457644001,None,,,,,,,,,,,,,,,,,,,,,,,,,,,,,,,,,,,,,,,,,,,,001,153,2020_Feb_20_1255,spring_faces,3.2.3,60.041269486862284,
condition files/Stage1_2.xlsx,,B2,T2,m,"['c', 'm']","['Clue', 'Monopoly']","[-0.15, 0.5]","[0.15, 0.5]",1,1,,,,,,,,,0,1,1,1,0,2,2,3,,,,,,,,,,,,,,,,,,,,,,,,,,,,,,,,,,,,,,,,,,,,,,,,,,,,,,,457.3801415359994,None,457.3801415359994,None,457.3801415359994,None,m,1,1.5917905589994916,458.9134516310005,None,458.9134516310005,None,458.9134516310005,None,460.58011350200104,None,460.58011350200104,None,460.58011350200104,None,460.58011350200104,None,,,,,,,,,,,,,,,,,,,,,,,,,,,,,,,,,,,,,,,,,,,,001,153,2020_Feb_20_1255,spring_faces,3.2.3,60.041269486862284,
condition files/Stage1_2.xlsx,,B3,T4,m,"['c', 'm']","['Clue', 'Monopoly']","[-0.15, 0.5]","[0.15, 0.5]",1,1,,,,,,,,,0,1,1,1,0,3,3,6,,,,,,,,,,,,,,,,,,,,,,,,,,,,,,,,,,,,,,,,,,,,,,,,,,,,,,,462.54679583100005,None,462.54679583100005,None,462.54679583100005,None,m,1,1.3850071800006845,464.0801038410009,None,464.0801038410009,None,464.0801038410009,None,465.546749000001,None,465.546749000001,None,465.546749000001,None,465.546749000001,None,,,,,,,,,,,,,,,,,,,,,,,,,,,,,,,,,,,,,,,,,,,,001,153,2020_Feb_20_1255,spring_faces,3.2.3,60.041269486862284,
condition files/Stage1_2.xlsx,,B1,T1,c,"['c', 'm']","['Clue', 'Monopoly']","[-0.15, 0.5]","[0.15, 0.5]",1,1,,,,,,,,,0,1,1,1,0,4,4,0,,,,,,,,,,,,,,,,,,,,,,,,,,,,,,,,,,,,,,,,,,,,,,,,,,,,,,,467.51350180900045,None,467.51350180900045,None,467.51350180900045,None,c,1,2.8343392820006557,469.04677109099975,None,469.04677109099975,None,469.04677109099975,None,471.963166517,None,471.963166517,None,471.963166517,None,471.963166517,None,,,,,,,,,,,,,,,,,,,,,,,,,,,,,,,,,,,,,,,,,,,,001,153,2020_Feb_20_1255,spring_faces,3.2.3,60.041269486862284,
condition files/Stage1_2.xlsx,,T4,B4,m,"['c', 'm']","['Clue', 'Monopoly']","[-0.15, 0.5]","[0.15, 0.5]",1,1,,,,,,,,,0,1,1,1,0,5,5,7,,,,,,,,,,,,,,,,,,,,,,,,,,,,,,,,,,,,,,,,,,,,,,,,,,,,,,,473.93012960600026,None,473.93012960600026,None,473.93012960600026,None,m,1,0.8978271840005618,475.4634443310006,None,475.4634443310006,None,475.4634443310006,None,476.4301004509998,None,476.4301004509998,None,476.4301004509998,None,476.4301004509998,None,,,,,,,,,,,,,,,,,,,,,,,,,,,,,,,,,,,,,,,,,,,,001,153,2020_Feb_20_1255,spring_faces,3.2.3,60.041269486862284,
condition files/Stage1_2.xlsx,,T2,B1,c,"['c', 'm']","['Clue', 'Monopoly']","[-0.15, 0.5]","[0.15, 0.5]",1,1,,,,,,,,,0,1,1,1,0,6,6,1,,,,,,,,,,,,,,,,,,,,,,,,,,,,,,,,,,,,,,,,,,,,,,,,,,,,,,,478.396684577001,None,478.396684577001,None,478.396684577001,None,m,0,1.439163629000177,479.9300508739998,None,479.9300508739998,None,479.9300508739998,None,481.4467655130011,None,481.4467655130011,None,481.4467655130011,None,481.4467655130011,None,,,,,,,,,,,,,,,,,,,,,,,,,,,,,,,,,,,,,,,,,,,,001,153,2020_Feb_20_1255,spring_faces,3.2.3,60.041269486862284,
condition files/Stage1_2.xlsx,,T3,B3,c,"['c', 'm']","['Clue', 'Monopoly']","[-0.15, 0.5]","[0.15, 0.5]",1,1,,,,,,,,,0,1,1,1,0,7,7,4,,,,,,,,,,,,,,,,,,,,,,,,,,,,,,,,,,,,,,,,,,,,,,,,,,,,,,,483.4134239209998,None,483.4134239209998,None,483.4134239209998,None,c,1,1.5424374359990907,484.9467661990002,None,484.9467661990002,None,484.9467661990002,None,486.5467555489995,None,486.5467555489995,None,486.5467555489995,None,486.5467555489995,None,,,,,,,,,,,,,,,,,,,,,,,,,,,,,,,,,,,,,,,,,,,,001,153,2020_Feb_20_1255,spring_faces,3.2.3,60.041269486862284,
condition files/Stage1_1.xlsx,,B1,T2,c,"['c', 'm']","['Clue', 'Monopoly']","[-0.15, 0.5]","[0.15, 0.5]",1,1,,,,,,,,,0,2,2,2,0,0,0,1,,,,,,,,,,,,,,,,,,,,,,,,,,,,,,,,,,,,,,,,,,,,,,,,,,,,,,,488.54677994600024,None,488.54677994600024,None,488.54677994600024,None,c,1,1.0010167070013267,490.0801222610007,None,490.0801222610007,None,490.0801222610007,None,491.1633901620007,None,491.1633901620007,None,491.1633901620007,None,491.1633901620007,None,,,,,,,,,,,,,,,,,,,,,,,,,,,,,,,,,,,,,,,,,,,,001,153,2020_Feb_20_1255,spring_faces,3.2.3,60.041269486862284,
condition files/Stage1_1.xlsx,,B2,T1,m,"['c', 'm']","['Clue', 'Monopoly']","[-0.15, 0.5]","[0.15, 0.5]",1,1,,,,,,,,,0,2,2,2,0,1,1,2,,,,,,,,,,,,,,,,,,,,,,,,,,,,,,,,,,,,,,,,,,,,,,,,,,,,,,,493.1300612610012,None,493.1300612610012,None,493.1300612610012,None,m,1,1.5217125309991388,494.66346389700084,None,494.66346389700084,None,494.66346389700084,None,496.26344519800114,None,496.26344519800114,None,496.26344519800114,None,496.26344519800114,None,,,,,,,,,,,,,,,,,,,,,,,,,,,,,,,,,,,,,,,,,,,,001,153,2020_Feb_20_1255,spring_faces,3.2.3,60.041269486862284,
condition files/Stage1_1.xlsx,,T4,B3,m,"['c', 'm']","['Clue', 'Monopoly']","[-0.15, 0.5]","[0.15, 0.5]",1,1,,,,,,,,,0,2,2,2,0,2,2,6,,,,,,,,,,,,,,,,,,,,,,,,,,,,,,,,,,,,,,,,,,,,,,,,,,,,,,,498.2300884010001,None,498.2300884010001,None,498.2300884010001,None,m,1,1.0937871030000679,499.76343586800067,None,499.76343586800067,None,499.76343586800067,None,500.9133578830006,None,500.9133578830006,None,500.9133578830006,None,500.9133578830006,None,,,,,,,,,,,,,,,,,,,,,,,,,,,,,,,,,,,,,,,,,,,,001,153,2020_Feb_20_1255,spring_faces,3.2.3,60.041269486862284,
condition files/Stage1_1.xlsx,,T3,B4,c,"['c', 'm']","['Clue', 'Monopoly']","[-0.15, 0.5]","[0.15, 0.5]",1,1,,,,,,,,,0,2,2,2,0,3,3,5,,,,,,,,,,,,,,,,,,,,,,,,,,,,,,,,,,,,,,,,,,,,,,,,,,,,,,,502.89677395000035,None,502.89677395000035,None,502.89677395000035,None,c,1,1.1951231470011408,504.43007792000026,None,504.43007792000026,None,504.43007792000026,None,505.6967853469996,None,505.6967853469996,None,505.6967853469996,None,505.6967853469996,None,,,,,,,,,,,,,,,,,,,,,,,,,,,,,,,,,,,,,,,,,,,,001,153,2020_Feb_20_1255,spring_faces,3.2.3,60.041269486862284,
condition files/Stage1_1.xlsx,,B4,T4,m,"['c', 'm']","['Clue', 'Monopoly']","[-0.15, 0.5]","[0.15, 0.5]",1,1,,,,,,,,,0,2,2,2,0,4,4,7,,,,,,,,,,,,,,,,,,,,,,,,,,,,,,,,,,,,,,,,,,,,,,,,,,,,,,,507.6634585570009,None,507.6634585570009,None,507.6634585570009,None,c,0,0.9244987509991915,509.19673129700095,None,509.19673129700095,None,509.19673129700095,None,510.19676038299986,None,510.19676038299986,None,510.19676038299986,None,510.19676038299986,None,,,,,,,,,,,,,,,,,,,,,,,,,,,,,,,,,,,,,,,,,,,,001,153,2020_Feb_20_1255,spring_faces,3.2.3,60.041269486862284,
condition files/Stage1_1.xlsx,,T1,B1,c,"['c', 'm']","['Clue', 'Monopoly']","[-0.15, 0.5]","[0.15, 0.5]",1,1,,,,,,,,,0,2,2,2,0,5,5,0,,,,,,,,,,,,,,,,,,,,,,,,,,,,,,,,,,,,,,,,,,,,,,,,,,,,,,,512.1634219440002,None,512.1634219440002,None,512.1634219440002,None,c,1,1.2244453980001708,513.6967612389999,None,513.6967612389999,None,513.6967612389999,None,514.9967921890002,None,514.9967921890002,None,514.9967921890002,None,514.9967921890002,None,,,,,,,,,,,,,,,,,,,,,,,,,,,,,,,,,,,,,,,,,,,,001,153,2020_Feb_20_1255,spring_faces,3.2.3,60.041269486862284,
condition files/Stage1_1.xlsx,,B3,T3,c,"['c', 'm']","['Clue', 'Monopoly']","[-0.15, 0.5]","[0.15, 0.5]",1,1,,,,,,,,,0,2,2,2,0,6,6,4,,,,,,,,,,,,,,,,,,,,,,,,,,,,,,,,,,,,,,,,,,,,,,,,,,,,,,,516.963477655001,None,516.963477655001,None,516.963477655001,None,c,1,0.9683112959992286,518.4967828789995,None,518.4967828789995,None,518.4967828789995,None,519.5467545020001,None,519.5467545020001,None,519.5467545020001,None,519.5467545020001,None,,,,,,,,,,,,,,,,,,,,,,,,,,,,,,,,,,,,,,,,,,,,001,153,2020_Feb_20_1255,spring_faces,3.2.3,60.041269486862284,
condition files/Stage1_1.xlsx,,T2,B2,m,"['c', 'm']","['Clue', 'Monopoly']","[-0.15, 0.5]","[0.15, 0.5]",1,1,,,,,,,,,0,2,2,2,0,7,7,3,,,,,,,,,,,,,,,,,,,,,,,,,,,,,,,,,,,,,,,,,,,,,,,,,,,,,,,521.5134941039996,None,521.5134941039996,None,521.5134941039996,None,m,1,1.1537398020009277,523.0634274340009,None,523.0634274340009,None,523.0634274340009,None,524.2967623820005,None,524.2967623820005,None,524.2967623820005,None,524.2967623820005,None,,,,,,,,,,,,,,,,,,,,,,,,,,,,,,,,,,,,,,,,,,,,001,153,2020_Feb_20_1255,spring_faces,3.2.3,60.041269486862284,
condition files/Stage1_2.xlsx,,T3,B3,c,"['c', 'm']","['Clue', 'Monopoly']","[-0.15, 0.5]","[0.15, 0.5]",1,1,,,,,,,,,0,3,3,3,0,0,0,4,,,,,,,,,,,,,,,,,,,,,,,,,,,,,,,,,,,,,,,,,,,,,,,,,,,,,,,526.28009552,None,526.28009552,None,526.28009552,None,m,0,2.8190779609994934,527.8301046020006,None,527.8301046020006,None,527.8301046020006,None,530.7300363430004,None,530.7300363430004,None,530.7300363430004,None,530.7300363430004,None,,,,,,,,,,,,,,,,,,,,,,,,,,,,,,,,,,,,,,,,,,,,001,153,2020_Feb_20_1255,spring_faces,3.2.3,60.041269486862284,
condition files/Stage1_2.xlsx,,T1,B2,m,"['c', 'm']","['Clue', 'Monopoly']","[-0.15, 0.5]","[0.15, 0.5]",1,1,,,,,,,,,0,3,3,3,0,1,1,2,,,,,,,,,,,,,,,,,,,,,,,,,,,,,,,,,,,,,,,,,,,,,,,,,,,,,,,532.6968208819999,None,532.6968208819999,None,532.6968208819999,None,m,1,1.011078166000516,534.230111275001,None,534.230111275001,None,534.230111275001,None,535.3134665420002,None,535.3134665420002,None,535.3134665420002,None,535.3134665420002,None,,,,,,,,,,,,,,,,,,,,,,,,,,,,,,,,,,,,,,,,,,,,001,153,2020_Feb_20_1255,spring_faces,3.2.3,60.041269486862284,
condition files/Stage1_2.xlsx,,B2,T2,m,"['c', 'm']","['Clue', 'Monopoly']","[-0.15, 0.5]","[0.15, 0.5]",1,1,,,,,,,,,0,3,3,3,0,2,2,3,,,,,,,,,,,,,,,,,,,,,,,,,,,,,,,,,,,,,,,,,,,,,,,,,,,,,,,537.2801650809997,None,537.2801650809997,None,537.2801650809997,None,m,1,0.8757459489988833,538.813462039001,None,538.813462039001,None,538.813462039001,None,539.7467972630002,None,539.7467972630002,None,539.7467972630002,None,539.7467972630002,None,,,,,,,,,,,,,,,,,,,,,,,,,,,,,,,,,,,,,,,,,,,,001,153,2020_Feb_20_1255,spring_faces,3.2.3,60.041269486862284,
condition files/Stage1_2.xlsx,,T2,B1,c,"['c', 'm']","['Clue', 'Monopoly']","[-0.15, 0.5]","[0.15, 0.5]",1,1,,,,,,,,,0,3,3,3,0,3,3,1,,,,,,,,,,,,,,,,,,,,,,,,,,,,,,,,,,,,,,,,,,,,,,,,,,,,,,,541.7300733480006,None,541.7300733480006,None,541.7300733480006,None,c,1,1.369737824999902,543.2634285550012,None,543.2634285550012,None,543.2634285550012,None,544.713494691001,None,544.713494691001,None,544.713494691001,None,544.713494691001,None,,,,,,,,,,,,,,,,,,,,,,,,,,,,,,,,,,,,,,,,,,,,001,153,2020_Feb_20_1255,spring_faces,3.2.3,60.041269486862284,
condition files/Stage1_2.xlsx,,T4,B4,m,"['c', 'm']","['Clue', 'Monopoly']","[-0.15, 0.5]","[0.15, 0.5]",1,1,,,,,,,,,0,3,3,3,0,4,4,7,,,,,,,,,,,,,,,,,,,,,,,,,,,,,,,,,,,,,,,,,,,,,,,,,,,,,,,546.680100353,None,546.680100353,None,546.680100353,None,m,1,2.1956910980006796,548.2134090880008,None,548.2134090880008,None,548.2134090880008,None,550.4801172650004,None,550.4801172650004,None,550.4801172650004,None,550.4801172650004,None,,,,,,,,,,,,,,,,,,,,,,,,,,,,,,,,,,,,,,,,,,,,001,153,2020_Feb_20_1255,spring_faces,3.2.3,60.041269486862284,
condition files/Stage1_2.xlsx,,B3,T4,m,"['c', 'm']","['Clue', 'Monopoly']","[-0.15, 0.5]","[0.15, 0.5]",1,1,,,,,,,,,0,3,3,3,0,5,5,6,,,,,,,,,,,,,,,,,,,,,,,,,,,,,,,,,,,,,,,,,,,,,,,,,,,,,,,552.4468037240003,None,552.4468037240003,None,552.4468037240003,None,m,1,1.2451339239996742,553.9801129150001,None,553.9801129150001,None,553.9801129150001,None,555.2967876060011,None,555.2967876060011,None,555.2967876060011,None,555.2967876060011,None,,,,,,,,,,,,,,,,,,,,,,,,,,,,,,,,,,,,,,,,,,,,001,153,2020_Feb_20_1255,spring_faces,3.2.3,60.041269486862284,
condition files/Stage1_2.xlsx,,B4,T3,c,"['c', 'm']","['Clue', 'Monopoly']","[-0.15, 0.5]","[0.15, 0.5]",1,1,,,,,,,,,0,3,3,3,0,6,6,5,,,,,,,,,,,,,,,,,,,,,,,,,,,,,,,,,,,,,,,,,,,,,,,,,,,,,,,557.2634909339995,None,557.2634909339995,None,557.2634909339995,None,m,0,1.9326194179993763,558.7967251629998,None,558.7967251629998,None,558.7967251629998,None,560.7967007139996,None,560.7967007139996,None,560.7967007139996,None,560.7967007139996,None,,,,,,,,,,,,,,,,,,,,,,,,,,,,,,,,,,,,,,,,,,,,001,153,2020_Feb_20_1255,spring_faces,3.2.3,60.041269486862284,
condition files/Stage1_2.xlsx,,B1,T1,c,"['c', 'm']","['Clue', 'Monopoly']","[-0.15, 0.5]","[0.15, 0.5]",1,1,,,,,,,,,0,3,3,3,0,7,7,0,,,,,,,,,,,,,,,,,,,,,,,,,,,,,,,,,,,,,,,,,,,,,,,,,,,,,,,562.7634411580002,None,562.7634411580002,None,562.7634411580002,None,c,1,1.3283662210014882,564.2967673229996,None,564.2967673229996,None,564.2967673229996,None,565.6801091699999,None,565.6801091699999,None,565.6801091699999,None,565.6801091699999,None,,,,,,,,,,,,,,,,,,,,,,,,,,,,,,,,,,,,,,,,,,,,001,153,2020_Feb_20_1255,spring_faces,3.2.3,60.041269486862284,
condition files/Stage1_1.xlsx,,T2,B2,m,"['c', 'm']","['Clue', 'Monopoly']","[-0.15, 0.5]","[0.15, 0.5]",1,1,,,,,,,,,0,4,4,4,0,0,0,3,,,,,,,,,,,,,,,,,,,,,,,,,,,,,,,,,,,,,,,,,,,,,,,,,,,,,,,567.6800998150011,None,567.6800998150011,None,567.6800998150011,None,m,1,1.2918082830001367,569.213422107001,None,569.213422107001,None,569.213422107001,None,570.5801205120006,None,570.5801205120006,None,570.5801205120006,None,570.5801205120006,None,,,,,,,,,,,,,,,,,,,,,,,,,,,,,,,,,,,,,,,,,,,,001,153,2020_Feb_20_1255,spring_faces,3.2.3,60.041269486862284,
condition files/Stage1_1.xlsx,,B2,T1,m,"['c', 'm']","['Clue', 'Monopoly']","[-0.15, 0.5]","[0.15, 0.5]",1,1,,,,,,,,,0,4,4,4,0,1,1,2,,,,,,,,,,,,,,,,,,,,,,,,,,,,,,,,,,,,,,,,,,,,,,,,,,,,,,,572.5467883050005,None,572.5467883050005,None,572.5467883050005,None,m,1,0.8410645619987918,574.0801382760001,None,574.0801382760001,None,574.0801382760001,None,574.9800299270009,None,574.9800299270009,None,574.9800299270009,None,574.9800299270009,None,,,,,,,,,,,,,,,,,,,,,,,,,,,,,,,,,,,,,,,,,,,,001,153,2020_Feb_20_1255,spring_faces,3.2.3,60.041269486862284,
condition files/Stage1_1.xlsx,,B4,T4,m,"['c', 'm']","['Clue', 'Monopoly']","[-0.15, 0.5]","[0.15, 0.5]",1,1,,,,,,,,,0,4,4,4,0,2,2,7,,,,,,,,,,,,,,,,,,,,,,,,,,,,,,,,,,,,,,,,,,,,,,,,,,,,,,,576.9634257769994,None,576.9634257769994,None,576.9634257769994,None,m,1,1.2884123619987804,578.4967645300003,None,578.4967645300003,None,578.4967645300003,None,579.8634540679996,None,579.8634540679996,None,579.8634540679996,None,579.8634540679996,None,,,,,,,,,,,,,,,,,,,,,,,,,,,,,,,,,,,,,,,,,,,,001,153,2020_Feb_20_1255,spring_faces,3.2.3,60.041269486862284,
condition files/Stage1_1.xlsx,,B1,T2,c,"['c', 'm']","['Clue', 'Monopoly']","[-0.15, 0.5]","[0.15, 0.5]",1,1,,,,,,,,,0,4,4,4,0,3,3,1,,,,,,,,,,,,,,,,,,,,,,,,,,,,,,,,,,,,,,,,,,,,,,,,,,,,,,,581.8301558040002,None,581.8301558040002,None,581.8301558040002,None,c,1,1.013806121000016,583.3634501500001,None,583.3634501500001,None,583.3634501500001,None,584.4467877170009,None,584.4467877170009,None,584.4467877170009,None,584.4467877170009,None,,,,,,,,,,,,,,,,,,,,,,,,,,,,,,,,,,,,,,,,,,,,001,153,2020_Feb_20_1255,spring_faces,3.2.3,60.041269486862284,
condition files/Stage1_1.xlsx,,T3,B4,c,"['c', 'm']","['Clue', 'Monopoly']","[-0.15, 0.5]","[0.15, 0.5]",1,1,,,,,,,,,0,4,4,4,0,4,4,5,,,,,,,,,,,,,,,,,,,,,,,,,,,,,,,,,,,,,,,,,,,,,,,,,,,,,,,586.4134427970002,None,586.4134427970002,None,586.4134427970002,None,m,0,2.766590527999142,587.9467222599997,None,587.9467222599997,None,587.9467222599997,None,590.7799857200007,None,590.7799857200007,None,590.7799857200007,None,590.7799857200007,None,,,,,,,,,,,,,,,,,,,,,,,,,,,,,,,,,,,,,,,,,,,,001,153,2020_Feb_20_1255,spring_faces,3.2.3,60.041269486862284,
condition files/Stage1_1.xlsx,,T4,B3,m,"['c', 'm']","['Clue', 'Monopoly']","[-0.15, 0.5]","[0.15, 0.5]",1,1,,,,,,,,,0,4,4,4,0,5,5,6,,,,,,,,,,,,,,,,,,,,,,,,,,,,,,,,,,,,,,,,,,,,,,,,,,,,,,,592.7466938990001,None,592.7466938990001,None,592.7466938990001,None,m,1,1.233175231000132,594.2800950990004,None,594.2800950990004,None,594.2800950990004,None,595.5801291890002,None,595.5801291890002,None,595.5801291890002,None,595.5801291890002,None,,,,,,,,,,,,,,,,,,,,,,,,,,,,,,,,,,,,,,,,,,,,001,153,2020_Feb_20_1255,spring_faces,3.2.3,60.041269486862284,
condition files/Stage1_1.xlsx,,T1,B1,c,"['c', 'm']","['Clue', 'Monopoly']","[-0.15, 0.5]","[0.15, 0.5]",1,1,,,,,,,,,0,4,4,4,0,6,6,0,,,,,,,,,,,,,,,,,,,,,,,,,,,,,,,,,,,,,,,,,,,,,,,,,,,,,,,597.5467140370001,None,597.5467140370001,None,597.5467140370001,None,c,1,1.0571208260007552,599.0801277640003,None,599.0801277640003,None,599.0801277640003,None,600.2134354869995,None,600.2134354869995,None,600.2134354869995,None,600.2134354869995,None,,,,,,,,,,,,,,,,,,,,,,,,,,,,,,,,,,,,,,,,,,,,001,153,2020_Feb_20_1255,spring_faces,3.2.3,60.041269486862284,
condition files/Stage1_1.xlsx,,B3,T3,c,"['c', 'm']","['Clue', 'Monopoly']","[-0.15, 0.5]","[0.15, 0.5]",1,1,,,,,,,,,0,4,4,4,0,7,7,4,,,,,,,,,,,,,,,,,,,,,,,,,,,,,,,,,,,,,,,,,,,,,,,,,,,,,,,602.1801084609997,None,602.1801084609997,None,602.1801084609997,None,m,0,1.8956920260006882,603.7134281250001,None,603.7134281250001,None,603.7134281250001,None,605.663456364,None,605.663456364,None,605.663456364,None,605.663456364,None,,,,,,,,,,,,,,,,,,,,,,,,,,,,,,,,,,,,,,,,,,,,001,153,2020_Feb_20_1255,spring_faces,3.2.3,60.041269486862284,
condition files/Stage1_2.xlsx,,T3,B3,c,"['c', 'm']","['Clue', 'Monopoly']","[-0.15, 0.5]","[0.15, 0.5]",1,1,,,,,,,,,0,5,5,5,0,0,0,4,,,,,,,,,,,,,,,,,,,,,,,,,,,,,,,,,,,,,,,,,,,,,,,,,,,,,,,607.6634208550004,None,607.6634208550004,None,607.6634208550004,None,c,1,1.1965757010002562,609.1967104190007,None,609.1967104190007,None,609.1967104190007,None,610.4467890739998,None,610.4467890739998,None,610.4467890739998,None,610.4467890739998,None,,,,,,,,,,,,,,,,,,,,,,,,,,,,,,,,,,,,,,,,,,,,001,153,2020_Feb_20_1255,spring_faces,3.2.3,60.041269486862284,
condition files/Stage1_2.xlsx,,T2,B1,c,"['c', 'm']","['Clue', 'Monopoly']","[-0.15, 0.5]","[0.15, 0.5]",1,1,,,,,,,,,0,5,5,5,0,1,1,1,,,,,,,,,,,,,,,,,,,,,,,,,,,,,,,,,,,,,,,,,,,,,,,,,,,,,,,612.4301258539999,None,612.4301258539999,None,612.4301258539999,None,c,1,1.1177525080001942,613.9633929240008,None,613.9633929240008,None,613.9633929240008,None,615.1467173860001,None,615.1467173860001,None,615.1467173860001,None,615.1467173860001,None,,,,,,,,,,,,,,,,,,,,,,,,,,,,,,,,,,,,,,,,,,,,001,153,2020_Feb_20_1255,spring_faces,3.2.3,60.041269486862284,
condition files/Stage1_2.xlsx,,B2,T2,m,"['c', 'm']","['Clue', 'Monopoly']","[-0.15, 0.5]","[0.15, 0.5]",1,1,,,,,,,,,0,5,5,5,0,2,2,3,,,,,,,,,,,,,,,,,,,,,,,,,,,,,,,,,,,,,,,,,,,,,,,,,,,,,,,617.1300386380008,None,617.1300386380008,None,617.1300386380008,None,m,1,0.7058206130004692,618.6633908510012,None,618.6633908510012,None,618.6633908510012,None,619.4467649359995,None,619.4467649359995,None,619.4467649359995,None,619.4467649359995,None,,,,,,,,,,,,,,,,,,,,,,,,,,,,,,,,,,,,,,,,,,,,001,153,2020_Feb_20_1255,spring_faces,3.2.3,60.041269486862284,
condition files/Stage1_2.xlsx,,T1,B2,m,"['c', 'm']","['Clue', 'Monopoly']","[-0.15, 0.5]","[0.15, 0.5]",1,1,,,,,,,,,0,5,5,5,0,3,3,2,,,,,,,,,,,,,,,,,,,,,,,,,,,,,,,,,,,,,,,,,,,,,,,,,,,,,,,621.4134281820006,None,621.4134281820006,None,621.4134281820006,None,m,1,0.9664747229999193,622.9467717690004,None,622.9467717690004,None,622.9467717690004,None,623.9800670269997,None,623.9800670269997,None,623.9800670269997,None,623.9800670269997,None,,,,,,,,,,,,,,,,,,,,,,,,,,,,,,,,,,,,,,,,,,,,001,153,2020_Feb_20_1255,spring_faces,3.2.3,60.041269486862284,
condition files/Stage1_2.xlsx,,T4,B4,m,"['c', 'm']","['Clue', 'Monopoly']","[-0.15, 0.5]","[0.15, 0.5]",1,1,,,,,,,,,0,5,5,5,0,4,4,7,,,,,,,,,,,,,,,,,,,,,,,,,,,,,,,,,,,,,,,,,,,,,,,,,,,,,,,625.9466845810002,None,625.9466845810002,None,625.9466845810002,None,c,0,1.153026451000187,627.4801253679998,None,627.4801253679998,None,627.4801253679998,None,628.7133369120002,None,628.7133369120002,None,628.7133369120002,None,628.7133369120002,None,,,,,,,,,,,,,,,,,,,,,,,,,,,,,,,,,,,,,,,,,,,,001,153,2020_Feb_20_1255,spring_faces,3.2.3,60.041269486862284,
condition files/Stage1_2.xlsx,,B1,T1,c,"['c', 'm']","['Clue', 'Monopoly']","[-0.15, 0.5]","[0.15, 0.5]",1,1,,,,,,,,,0,5,5,5,0,5,5,0,,,,,,,,,,,,,,,,,,,,,,,,,,,,,,,,,,,,,,,,,,,,,,,,,,,,,,,630.680087353001,None,630.680087353001,None,630.680087353001,None,c,1,0.7716912810010399,632.2134393190008,None,632.2134393190008,None,632.2134393190008,None,633.0634370839998,None,633.0634370839998,None,633.0634370839998,None,633.0634370839998,None,,,,,,,,,,,,,,,,,,,,,,,,,,,,,,,,,,,,,,,,,,,,001,153,2020_Feb_20_1255,spring_faces,3.2.3,60.041269486862284,
condition files/Stage1_2.xlsx,,B3,T4,m,"['c', 'm']","['Clue', 'Monopoly']","[-0.15, 0.5]","[0.15, 0.5]",1,1,,,,,,,,,0,5,5,5,0,6,6,6,,,,,,,,,,,,,,,,,,,,,,,,,,,,,,,,,,,,,,,,,,,,,,,,,,,,,,,635.0301328290006,None,635.0301328290006,None,635.0301328290006,None,m,1,1.157762601000286,636.5634377389997,None,636.5634377389997,None,636.5634377389997,None,637.7967852319998,None,637.7967852319998,None,637.7967852319998,None,637.7967852319998,None,,,,,,,,,,,,,,,,,,,,,,,,,,,,,,,,,,,,,,,,,,,,001,153,2020_Feb_20_1255,spring_faces,3.2.3,60.041269486862284,
condition files/Stage1_2.xlsx,,B4,T3,c,"['c', 'm']","['Clue', 'Monopoly']","[-0.15, 0.5]","[0.15, 0.5]",1,1,,,,,,,,,0,5,5,5,0,7,7,5,,,,,,,,,,,,,,,,,,,,,,,,,,,,,,,,,,,,,,,,,,,,,,,,,,,,,,,639.7634499140004,None,639.7634499140004,None,639.7634499140004,None,m,0,4.376427502000297,641.2968201759995,None,641.2968201759995,None,641.2968201759995,None,645.746792725,None,645.746792725,None,645.746792725,None,645.746792725,None,,,,,,,,,,,,,,,,,,,,,,,,,,,,,,,,,,,,,,,,,,,,001,153,2020_Feb_20_1255,spring_faces,3.2.3,60.041269486862284,
condition files/Stage1_1.xlsx,,T4,B3,m,"['c', 'm']","['Clue', 'Monopoly']","[-0.15, 0.5]","[0.15, 0.5]",1,1,,,,,,,,,0,6,6,6,0,0,0,6,,,,,,,,,,,,,,,,,,,,,,,,,,,,,,,,,,,,,,,,,,,,,,,,,,,,,,,647.7301200490001,None,647.7301200490001,None,647.7301200490001,None,c,0,0.9537496929988265,649.2634553780008,None,649.2634553780008,None,649.2634553780008,None,650.2967762490007,None,650.2967762490007,None,650.2967762490007,None,650.2967762490007,None,,,,,,,,,,,,,,,,,,,,,,,,,,,,,,,,,,,,,,,,,,,,001,153,2020_Feb_20_1255,spring_faces,3.2.3,60.041269486862284,
condition files/Stage1_1.xlsx,,T1,B1,c,"['c', 'm']","['Clue', 'Monopoly']","[-0.15, 0.5]","[0.15, 0.5]",1,1,,,,,,,,,0,6,6,6,0,1,1,0,,,,,,,,,,,,,,,,,,,,,,,,,,,,,,,,,,,,,,,,,,,,,,,,,,,,,,,652.2634638899999,None,652.2634638899999,None,652.2634638899999,None,c,1,0.996640817998923,653.7966406390005,None,653.7966406390005,None,653.7966406390005,None,654.8634527140002,None,654.8634527140002,None,654.8634527140002,None,654.8634527140002,None,,,,,,,,,,,,,,,,,,,,,,,,,,,,,,,,,,,,,,,,,,,,001,153,2020_Feb_20_1255,spring_faces,3.2.3,60.041269486862284,
condition files/Stage1_1.xlsx,,B1,T2,c,"['c', 'm']","['Clue', 'Monopoly']","[-0.15, 0.5]","[0.15, 0.5]",1,1,,,,,,,,,0,6,6,6,0,2,2,1,,,,,,,,,,,,,,,,,,,,,,,,,,,,,,,,,,,,,,,,,,,,,,,,,,,,,,,656.8301060840004,None,656.8301060840004,None,656.8301060840004,None,c,1,0.6696973540001636,658.3634539710001,None,658.3634539710001,None,658.3634539710001,None,659.1134564229997,None,659.1134564229997,None,659.1134564229997,None,659.1134564229997,None,,,,,,,,,,,,,,,,,,,,,,,,,,,,,,,,,,,,,,,,,,,,001,153,2020_Feb_20_1255,spring_faces,3.2.3,60.041269486862284,
condition files/Stage1_1.xlsx,,T2,B2,m,"['c', 'm']","['Clue', 'Monopoly']","[-0.15, 0.5]","[0.15, 0.5]",1,1,,,,,,,,,0,6,6,6,0,3,3,3,,,,,,,,,,,,,,,,,,,,,,,,,,,,,,,,,,,,,,,,,,,,,,,,,,,,,,,661.0801308660011,None,661.0801308660011,None,661.0801308660011,None,m,1,1.1237233399988327,662.6134544430006,None,662.6134544430006,None,662.6134544430006,None,663.8134378089999,None,663.8134378089999,None,663.8134378089999,None,663.8134378089999,None,,,,,,,,,,,,,,,,,,,,,,,,,,,,,,,,,,,,,,,,,,,,001,153,2020_Feb_20_1255,spring_faces,3.2.3,60.041269486862284,
condition files/Stage1_1.xlsx,,B3,T3,c,"['c', 'm']","['Clue', 'Monopoly']","[-0.15, 0.5]","[0.15, 0.5]",1,1,,,,,,,,,0,6,6,6,0,4,4,4,,,,,,,,,,,,,,,,,,,,,,,,,,,,,,,,,,,,,,,,,,,,,,,,,,,,,,,665.7801473460004,None,665.7801473460004,None,665.7801473460004,None,c,1,1.3676780900004815,667.3134364329999,None,667.3134364329999,None,667.3134364329999,None,668.7633716300006,None,668.7633716300006,None,668.7633716300006,None,668.7633716300006,None,,,,,,,,,,,,,,,,,,,,,,,,,,,,,,,,,,,,,,,,,,,,001,153,2020_Feb_20_1255,spring_faces,3.2.3,60.041269486862284,
condition files/Stage1_1.xlsx,,B4,T4,m,"['c', 'm']","['Clue', 'Monopoly']","[-0.15, 0.5]","[0.15, 0.5]",1,1,,,,,,,,,0,6,6,6,0,5,5,7,,,,,,,,,,,,,,,,,,,,,,,,,,,,,,,,,,,,,,,,,,,,,,,,,,,,,,,670.7300286860009,None,670.7300286860009,None,670.7300286860009,None,m,1,1.0097792630003823,672.2634308140005,None,672.2634308140005,None,672.2634308140005,None,673.3467696740008,None,673.3467696740008,None,673.3467696740008,None,673.3467696740008,None,,,,,,,,,,,,,,,,,,,,,,,,,,,,,,,,,,,,,,,,,,,,001,153,2020_Feb_20_1255,spring_faces,3.2.3,60.041269486862284,
condition files/Stage1_1.xlsx,,T3,B4,c,"['c', 'm']","['Clue', 'Monopoly']","[-0.15, 0.5]","[0.15, 0.5]",1,1,,,,,,,,,0,6,6,6,0,6,6,5,,,,,,,,,,,,,,,,,,,,,,,,,,,,,,,,,,,,,,,,,,,,,,,,,,,,,,,675.3134591819999,None,675.3134591819999,None,675.3134591819999,None,c,1,1.5303981280012522,676.8467672959996,None,676.8467672959996,None,676.8467672959996,None,678.4468101069997,None,678.4468101069997,None,678.4468101069997,None,678.4468101069997,None,,,,,,,,,,,,,,,,,,,,,,,,,,,,,,,,,,,,,,,,,,,,001,153,2020_Feb_20_1255,spring_faces,3.2.3,60.041269486862284,
condition files/Stage1_1.xlsx,,B2,T1,m,"['c', 'm']","['Clue', 'Monopoly']","[-0.15, 0.5]","[0.15, 0.5]",1,1,,,,,,,,,0,6,6,6,0,7,7,2,,,,,,,,,,,,,,,,,,,,,,,,,,,,,,,,,,,,,,,,,,,,,,,,,,,,,,,680.4134565519998,None,680.4134565519998,None,680.4134565519998,None,m,1,0.6543934950004768,681.946795283,None,681.946795283,None,681.946795283,None,682.6800983640005,None,682.6800983640005,None,682.6800983640005,None,682.6800983640005,None,,,,,,,,,,,,,,,,,,,,,,,,,,,,,,,,,,,,,,,,,,,,001,153,2020_Feb_20_1255,spring_faces,3.2.3,60.041269486862284,
condition files/Stage1_2.xlsx,,B4,T3,c,"['c', 'm']","['Clue', 'Monopoly']","[-0.15, 0.5]","[0.15, 0.5]",1,1,,,,,,,,,0,7,7,7,0,0,0,5,,,,,,,,,,,,,,,,,,,,,,,,,,,,,,,,,,,,,,,,,,,,,,,,,,,,,,,684.6634326170006,None,684.6634326170006,None,684.6634326170006,None,c,1,0.8683699989996967,686.1967610930005,None,686.1967610930005,None,686.1967610930005,None,687.1465503069994,None,687.1465503069994,None,687.1465503069994,None,687.1465503069994,None,,,,,,,,,,,,,,,,,,,,,,,,,,,,,,,,,,,,,,,,,,,,001,153,2020_Feb_20_1255,spring_faces,3.2.3,60.041269486862284,
condition files/Stage1_2.xlsx,,B3,T4,m,"['c', 'm']","['Clue', 'Monopoly']","[-0.15, 0.5]","[0.15, 0.5]",1,1,,,,,,,,,0,7,7,7,0,1,1,6,,,,,,,,,,,,,,,,,,,,,,,,,,,,,,,,,,,,,,,,,,,,,,,,,,,,,,,689.1134259310002,None,689.1134259310002,None,689.1134259310002,None,m,1,1.2183448930009035,690.6467635080007,None,690.6467635080007,None,690.6467635080007,None,691.9467946050008,None,691.9467946050008,None,691.9467946050008,None,691.9467946050008,None,,,,,,,,,,,,,,,,,,,,,,,,,,,,,,,,,,,,,,,,,,,,001,153,2020_Feb_20_1255,spring_faces,3.2.3,60.041269486862284,
condition files/Stage1_2.xlsx,,T1,B2,m,"['c', 'm']","['Clue', 'Monopoly']","[-0.15, 0.5]","[0.15, 0.5]",1,1,,,,,,,,,0,7,7,7,0,2,2,2,,,,,,,,,,,,,,,,,,,,,,,,,,,,,,,,,,,,,,,,,,,,,,,,,,,,,,,693.9134657989998,None,693.9134657989998,None,693.9134657989998,None,m,1,0.9943862300006003,695.4467941880011,None,695.4467941880011,None,695.4467941880011,None,696.496783554001,None,696.496783554001,None,696.496783554001,None,696.496783554001,None,,,,,,,,,,,,,,,,,,,,,,,,,,,,,,,,,,,,,,,,,,,,001,153,2020_Feb_20_1255,spring_faces,3.2.3,60.041269486862284,
condition files/Stage1_2.xlsx,,B1,T1,c,"['c', 'm']","['Clue', 'Monopoly']","[-0.15, 0.5]","[0.15, 0.5]",1,1,,,,,,,,,0,7,7,7,0,3,3,0,,,,,,,,,,,,,,,,,,,,,,,,,,,,,,,,,,,,,,,,,,,,,,,,,,,,,,,698.4801362010003,None,698.4801362010003,None,698.4801362010003,None,c,1,0.8117281890008599,700.0134582610008,None,700.0134582610008,None,700.0134582610008,None,700.8967920390005,None,700.8967920390005,None,700.8967920390005,None,700.8967920390005,None,,,,,,,,,,,,,,,,,,,,,,,,,,,,,,,,,,,,,,,,,,,,001,153,2020_Feb_20_1255,spring_faces,3.2.3,60.041269486862284,
condition files/Stage1_2.xlsx,,T2,B1,c,"['c', 'm']","['Clue', 'Monopoly']","[-0.15, 0.5]","[0.15, 0.5]",1,1,,,,,,,,,0,7,7,7,0,4,4,1,,,,,,,,,,,,,,,,,,,,,,,,,,,,,,,,,,,,,,,,,,,,,,,,,,,,,,,702.8634803639998,None,702.8634803639998,None,702.8634803639998,None,c,1,1.1645942519990058,704.396718381,None,704.396718381,None,704.396718381,None,705.6134313359998,None,705.6134313359998,None,705.6134313359998,None,705.6134313359998,None,,,,,,,,,,,,,,,,,,,,,,,,,,,,,,,,,,,,,,,,,,,,001,153,2020_Feb_20_1255,spring_faces,3.2.3,60.041269486862284,
condition files/Stage1_2.xlsx,,T4,B4,m,"['c', 'm']","['Clue', 'Monopoly']","[-0.15, 0.5]","[0.15, 0.5]",1,1,,,,,,,,,0,7,7,7,0,5,5,7,,,,,,,,,,,,,,,,,,,,,,,,,,,,,,,,,,,,,,,,,,,,,,,,,,,,,,,707.5968127300002,None,707.5968127300002,None,707.5968127300002,None,m,1,1.7911649840007158,709.1300747549994,None,709.1300747549994,None,709.1300747549994,None,710.9967748880008,None,710.9967748880008,None,710.9967748880008,None,710.9967748880008,None,,,,,,,,,,,,,,,,,,,,,,,,,,,,,,,,,,,,,,,,,,,,001,153,2020_Feb_20_1255,spring_faces,3.2.3,60.041269486862284,
condition files/Stage1_2.xlsx,,B2,T2,m,"['c', 'm']","['Clue', 'Monopoly']","[-0.15, 0.5]","[0.15, 0.5]",1,1,,,,,,,,,0,7,7,7,0,6,6,3,,,,,,,,,,,,,,,,,,,,,,,,,,,,,,,,,,,,,,,,,,,,,,,,,,,,,,,712.963450057001,None,712.963450057001,None,712.963450057001,None,m,1,1.1604215040006238,714.4967854759998,None,714.4967854759998,None,714.4967854759998,None,715.7133487539995,None,715.7133487539995,None,715.7133487539995,None,715.7133487539995,None,,,,,,,,,,,,,,,,,,,,,,,,,,,,,,,,,,,,,,,,,,,,001,153,2020_Feb_20_1255,spring_faces,3.2.3,60.041269486862284,
condition files/Stage1_2.xlsx,,T3,B3,c,"['c', 'm']","['Clue', 'Monopoly']","[-0.15, 0.5]","[0.15, 0.5]",1,1,,,,,,,,,0,7,7,7,0,7,7,4,,,,,,,,,,,,,,,,,,,,,,,,,,,,,,,,,,,,,,,,,,,,,,,,,,,,,,,717.6968003340007,None,717.6968003340007,None,717.6968003340007,None,c,1,1.211119093999514,719.2300911180009,None,719.2300911180009,None,719.2300911180009,None,720.5134348160009,None,720.5134348160009,None,720.5134348160009,None,720.5134348160009,None,,,,,,,,,,,,,,,,,,,,,,,,,,,,,,,,,,,,,,,,,,,,001,153,2020_Feb_20_1255,spring_faces,3.2.3,60.041269486862284,
condition files/Stage1_1.xlsx,,T3,B4,c,"['c', 'm']","['Clue', 'Monopoly']","[-0.15, 0.5]","[0.15, 0.5]",1,1,,,,,,,,,0,8,8,8,0,0,0,5,,,,,,,,,,,,,,,,,,,,,,,,,,,,,,,,,,,,,,,,,,,,,,,,,,,,,,,722.4967603700006,None,722.4967603700006,None,722.4967603700006,None,c,1,1.7551188270008424,724.0300896450008,None,724.0300896450008,None,724.0300896450008,None,725.863454798,None,725.863454798,None,725.863454798,None,725.863454798,None,,,,,,,,,,,,,,,,,,,,,,,,,,,,,,,,,,,,,,,,,,,,001,153,2020_Feb_20_1255,spring_faces,3.2.3,60.041269486862284,
condition files/Stage1_1.xlsx,,B3,T3,c,"['c', 'm']","['Clue', 'Monopoly']","[-0.15, 0.5]","[0.15, 0.5]",1,1,,,,,,,,,0,8,8,8,0,1,1,4,,,,,,,,,,,,,,,,,,,,,,,,,,,,,,,,,,,,,,,,,,,,,,,,,,,,,,,727.830150107,None,727.830150107,None,727.830150107,None,c,1,1.189690936000261,729.3634546550002,None,729.3634546550002,None,729.3634546550002,None,730.6134349290005,None,730.6134349290005,None,730.6134349290005,None,730.6134349290005,None,,,,,,,,,,,,,,,,,,,,,,,,,,,,,,,,,,,,,,,,,,,,001,153,2020_Feb_20_1255,spring_faces,3.2.3,60.041269486862284,
condition files/Stage1_1.xlsx,,T2,B2,m,"['c', 'm']","['Clue', 'Monopoly']","[-0.15, 0.5]","[0.15, 0.5]",1,1,,,,,,,,,0,8,8,8,0,2,2,3,,,,,,,,,,,,,,,,,,,,,,,,,,,,,,,,,,,,,,,,,,,,,,,,,,,,,,,732.5968168939999,None,732.5968168939999,None,732.5968168939999,None,m,1,0.6789811839989852,734.1301426850005,None,734.1301426850005,None,734.1301426850005,None,734.8801204949996,None,734.8801204949996,None,734.8801204949996,None,734.8801204949996,None,,,,,,,,,,,,,,,,,,,,,,,,,,,,,,,,,,,,,,,,,,,,001,153,2020_Feb_20_1255,spring_faces,3.2.3,60.041269486862284,
condition files/Stage1_1.xlsx,,B2,T1,m,"['c', 'm']","['Clue', 'Monopoly']","[-0.15, 0.5]","[0.15, 0.5]",1,1,,,,,,,,,0,8,8,8,0,3,3,2,,,,,,,,,,,,,,,,,,,,,,,,,,,,,,,,,,,,,,,,,,,,,,,,,,,,,,,736.8467840940011,None,736.8467840940011,None,736.8467840940011,None,m,1,0.7492421499991906,738.3800676890005,None,738.3800676890005,None,738.3800676890005,None,739.1967267929995,None,739.1967267929995,None,739.1967267929995,None,739.1967267929995,None,,,,,,,,,,,,,,,,,,,,,,,,,,,,,,,,,,,,,,,,,,,,001,153,2020_Feb_20_1255,spring_faces,3.2.3,60.041269486862284,
condition files/Stage1_1.xlsx,,T4,B3,m,"['c', 'm']","['Clue', 'Monopoly']","[-0.15, 0.5]","[0.15, 0.5]",1,1,,,,,,,,,0,8,8,8,0,4,4,6,,,,,,,,,,,,,,,,,,,,,,,,,,,,,,,,,,,,,,,,,,,,,,,,,,,,,,,741.1633817180009,None,741.1633817180009,None,741.1633817180009,None,c,0,0.9123287239999627,742.6967949629998,None,742.6967949629998,None,742.6967949629998,None,743.680124085,None,743.680124085,None,743.680124085,None,743.680124085,None,,,,,,,,,,,,,,,,,,,,,,,,,,,,,,,,,,,,,,,,,,,,001,153,2020_Feb_20_1255,spring_faces,3.2.3,60.041269486862284,
condition files/Stage1_1.xlsx,,B4,T4,m,"['c', 'm']","['Clue', 'Monopoly']","[-0.15, 0.5]","[0.15, 0.5]",1,1,,,,,,,,,0,8,8,8,0,5,5,7,,,,,,,,,,,,,,,,,,,,,,,,,,,,,,,,,,,,,,,,,,,,,,,,,,,,,,,745.646831987,None,745.646831987,None,745.646831987,None,m,1,1.6290941879997263,747.1800621279999,None,747.1800621279999,None,747.1800621279999,None,748.8801062109997,None,748.8801062109997,None,748.8801062109997,None,748.8801062109997,None,,,,,,,,,,,,,,,,,,,,,,,,,,,,,,,,,,,,,,,,,,,,001,153,2020_Feb_20_1255,spring_faces,3.2.3,60.041269486862284,
condition files/Stage1_1.xlsx,,T1,B1,c,"['c', 'm']","['Clue', 'Monopoly']","[-0.15, 0.5]","[0.15, 0.5]",1,1,,,,,,,,,0,8,8,8,0,6,6,0,,,,,,,,,,,,,,,,,,,,,,,,,,,,,,,,,,,,,,,,,,,,,,,,,,,,,,,750.8468026620012,None,750.8468026620012,None,750.8468026620012,None,c,1,0.8291079650007305,752.3800511469999,None,752.3800511469999,None,752.3800511469999,None,753.2801513720005,None,753.2801513720005,None,753.2801513720005,None,753.2801513720005,None,,,,,,,,,,,,,,,,,,,,,,,,,,,,,,,,,,,,,,,,,,,,001,153,2020_Feb_20_1255,spring_faces,3.2.3,60.041269486862284,
condition files/Stage1_1.xlsx,,B1,T2,c,"['c', 'm']","['Clue', 'Monopoly']","[-0.15, 0.5]","[0.15, 0.5]",1,1,,,,,,,,,0,8,8,8,0,7,7,1,,,,,,,,,,,,,,,,,,,,,,,,,,,,,,,,,,,,,,,,,,,,,,,,,,,,,,,755.2468370810002,None,755.2468370810002,None,755.2468370810002,None,c,1,2.2531569589991705,756.7800573410004,None,756.7800573410004,None,756.7800573410004,None,759.0967728340001,None,759.0967728340001,None,759.0967728340001,None,759.0967728340001,None,,,,,,,,,,,,,,,,,,,,,,,,,,,,,,,,,,,,,,,,,,,,001,153,2020_Feb_20_1255,spring_faces,3.2.3,60.041269486862284,
condition files/Stage1_2.xlsx,,B1,T1,c,"['c', 'm']","['Clue', 'Monopoly']","[-0.15, 0.5]","[0.15, 0.5]",1,1,,,,,,,,,0,9,9,9,0,0,0,0,,,,,,,,,,,,,,,,,,,,,,,,,,,,,,,,,,,,,,,,,,,,,,,,,,,,,,,761.0968003990001,None,761.0968003990001,None,761.0968003990001,None,c,1,1.2350144560004992,762.6301258820004,None,762.6301258820004,None,762.6301258820004,None,763.9467979460005,None,763.9467979460005,None,763.9467979460005,None,763.9467979460005,None,,,,,,,,,,,,,,,,,,,,,,,,,,,,,,,,,,,,,,,,,,,,001,153,2020_Feb_20_1255,spring_faces,3.2.3,60.041269486862284,
condition files/Stage1_2.xlsx,,T2,B1,c,"['c', 'm']","['Clue', 'Monopoly']","[-0.15, 0.5]","[0.15, 0.5]",1,1,,,,,,,,,0,9,9,9,0,1,1,1,,,,,,,,,,,,,,,,,,,,,,,,,,,,,,,,,,,,,,,,,,,,,,,,,,,,,,,765.9135265160003,None,765.9135265160003,None,765.9135265160003,None,c,1,1.0584292610001285,767.4467834770003,None,767.4467834770003,None,767.4467834770003,None,768.563434271,None,768.563434271,None,768.563434271,None,768.563434271,None,,,,,,,,,,,,,,,,,,,,,,,,,,,,,,,,,,,,,,,,,,,,001,153,2020_Feb_20_1255,spring_faces,3.2.3,60.041269486862284,
condition files/Stage1_2.xlsx,,B3,T4,m,"['c', 'm']","['Clue', 'Monopoly']","[-0.15, 0.5]","[0.15, 0.5]",1,1,,,,,,,,,0,9,9,9,0,2,2,6,,,,,,,,,,,,,,,,,,,,,,,,,,,,,,,,,,,,,,,,,,,,,,,,,,,,,,,770.5468116520005,None,770.5468116520005,None,770.5468116520005,None,m,1,1.1291413830003876,772.0800162430005,None,772.0800162430005,None,772.0800162430005,None,773.2801071779995,None,773.2801071779995,None,773.2801071779995,None,773.2801071779995,None,,,,,,,,,,,,,,,,,,,,,,,,,,,,,,,,,,,,,,,,,,,,001,153,2020_Feb_20_1255,spring_faces,3.2.3,60.041269486862284,
condition files/Stage1_2.xlsx,,T4,B4,m,"['c', 'm']","['Clue', 'Monopoly']","[-0.15, 0.5]","[0.15, 0.5]",1,1,,,,,,,,,0,9,9,9,0,3,3,7,,,,,,,,,,,,,,,,,,,,,,,,,,,,,,,,,,,,,,,,,,,,,,,,,,,,,,,775.2467874020003,None,775.2467874020003,None,775.2467874020003,None,m,1,1.149274768999021,776.7800430839998,None,776.7800430839998,None,776.7800430839998,None,777.9800392460002,None,777.9800392460002,None,777.9800392460002,None,777.9800392460002,None,,,,,,,,,,,,,,,,,,,,,,,,,,,,,,,,,,,,,,,,,,,,001,153,2020_Feb_20_1255,spring_faces,3.2.3,60.041269486862284,
condition files/Stage1_2.xlsx,,B2,T2,m,"['c', 'm']","['Clue', 'Monopoly']","[-0.15, 0.5]","[0.15, 0.5]",1,1,,,,,,,,,0,9,9,9,0,4,4,3,,,,,,,,,,,,,,,,,,,,,,,,,,,,,,,,,,,,,,,,,,,,,,,,,,,,,,,779.9633773349997,None,779.9633773349997,None,779.9633773349997,None,m,1,0.9603971529995761,781.4967978660006,None,781.4967978660006,None,781.4967978660006,None,782.5125592100012,None,782.5125592100012,None,782.5125592100012,None,782.5125592100012,None,,,,,,,,,,,,,,,,,,,,,,,,,,,,,,,,,,,,,,,,,,,,001,153,2020_Feb_20_1255,spring_faces,3.2.3,60.041269486862284,
condition files/Stage1_2.xlsx,,T3,B3,c,"['c', 'm']","['Clue', 'Monopoly']","[-0.15, 0.5]","[0.15, 0.5]",1,1,,,,,,,,,0,9,9,9,0,5,5,4,,,,,,,,,,,,,,,,,,,,,,,,,,,,,,,,,,,,,,,,,,,,,,,,,,,,,,,784.4968206770009,None,784.4968206770009,None,784.4968206770009,None,c,1,1.3870728349993442,786.0301164490011,None,786.0301164490011,None,786.0301164490011,None,787.4967911620006,None,787.4967911620006,None,787.4967911620006,None,787.4967911620006,None,,,,,,,,,,,,,,,,,,,,,,,,,,,,,,,,,,,,,,,,,,,,001,153,2020_Feb_20_1255,spring_faces,3.2.3,60.041269486862284,
condition files/Stage1_2.xlsx,,T1,B2,m,"['c', 'm']","['Clue', 'Monopoly']","[-0.15, 0.5]","[0.15, 0.5]",1,1,,,,,,,,,0,9,9,9,0,6,6,2,,,,,,,,,,,,,,,,,,,,,,,,,,,,,,,,,,,,,,,,,,,,,,,,,,,,,,,789.4634303830007,None,789.4634303830007,None,789.4634303830007,None,m,1,0.788405180999689,790.9967634330005,None,790.9967634330005,None,790.9967634330005,None,791.8632919049996,None,791.8632919049996,None,791.8632919049996,None,791.8632919049996,None,,,,,,,,,,,,,,,,,,,,,,,,,,,,,,,,,,,,,,,,,,,,001,153,2020_Feb_20_1255,spring_faces,3.2.3,60.041269486862284,
condition files/Stage1_2.xlsx,,B4,T3,c,"['c', 'm']","['Clue', 'Monopoly']","[-0.15, 0.5]","[0.15, 0.5]",1,1,,,,,,,,,0,9,9,9,0,7,7,5,,,,,,,,,,,,,,,,,,,,,,,,,,,,,,,,,,,,,,,,,,,,,,,,,,,,,,,793.8301165590001,None,793.8301165590001,None,793.8301165590001,None,m,0,1.6217070860002423,795.363475043001,None,795.363475043001,None,795.363475043001,None,797.0634391540007,None,797.0634391540007,None,797.0634391540007,None,797.0634391540007,None,,,,,,,,,,,,,,,,,,,,,,,,,,,,,,,,,,,,,,,,,,,,001,153,2020_Feb_20_1255,spring_faces,3.2.3,60.041269486862284,
condition files/Stage1_1.xlsx,,T1,B1,c,"['c', 'm']","['Clue', 'Monopoly']","[-0.15, 0.5]","[0.15, 0.5]",1,1,,,,,,,,,0,10,10,10,0,0,0,0,,,,,,,,,,,,,,,,,,,,,,,,,,,,,,,,,,,,,,,,,,,,,,,,,,,,,,,799.0467848600001,None,799.0467848600001,None,799.0467848600001,None,c,1,0.8211148230002436,800.5800965180006,None,800.5800965180006,None,800.5800965180006,None,801.480123624,None,801.480123624,None,801.480123624,None,801.480123624,None,,,,,,,,,,,,,,,,,,,,,,,,,,,,,,,,,,,,,,,,,,,,001,153,2020_Feb_20_1255,spring_faces,3.2.3,60.041269486862284,
condition files/Stage1_1.xlsx,,T4,B3,m,"['c', 'm']","['Clue', 'Monopoly']","[-0.15, 0.5]","[0.15, 0.5]",1,1,,,,,,,,,0,10,10,10,0,1,1,6,,,,,,,,,,,,,,,,,,,,,,,,,,,,,,,,,,,,,,,,,,,,,,,,,,,,,,,803.4468219890005,None,803.4468219890005,None,803.4468219890005,None,m,1,1.33329684400087,804.979995482001,None,804.979995482001,None,804.979995482001,None,806.3800444059998,None,806.3800444059998,None,806.3800444059998,None,806.3800444059998,None,,,,,,,,,,,,,,,,,,,,,,,,,,,,,,,,,,,,,,,,,,,,001,153,2020_Feb_20_1255,spring_faces,3.2.3,60.041269486862284,
condition files/Stage1_1.xlsx,,B3,T3,c,"['c', 'm']","['Clue', 'Monopoly']","[-0.15, 0.5]","[0.15, 0.5]",1,1,,,,,,,,,0,10,10,10,0,2,2,4,,,,,,,,,,,,,,,,,,,,,,,,,,,,,,,,,,,,,,,,,,,,,,,,,,,,,,,808.3467097299999,None,808.3467097299999,None,808.3467097299999,None,c,1,1.2971584620008798,809.8801020610008,None,809.8801020610008,None,809.8801020610008,None,811.2468091789997,None,811.2468091789997,None,811.2468091789997,None,811.2468091789997,None,,,,,,,,,,,,,,,,,,,,,,,,,,,,,,,,,,,,,,,,,,,,001,153,2020_Feb_20_1255,spring_faces,3.2.3,60.041269486862284,
condition files/Stage1_1.xlsx,,T2,B2,m,"['c', 'm']","['Clue', 'Monopoly']","[-0.15, 0.5]","[0.15, 0.5]",1,1,,,,,,,,,0,10,10,10,0,3,3,3,,,,,,,,,,,,,,,,,,,,,,,,,,,,,,,,,,,,,,,,,,,,,,,,,,,,,,,813.2301589210001,None,813.2301589210001,None,813.2301589210001,None,m,1,1.4538306510003167,814.7633950050003,None,814.7633950050003,None,814.7633950050003,None,816.2966819619996,None,816.2966819619996,None,816.2966819619996,None,816.2966819619996,None,,,,,,,,,,,,,,,,,,,,,,,,,,,,,,,,,,,,,,,,,,,,001,153,2020_Feb_20_1255,spring_faces,3.2.3,60.041269486862284,
condition files/Stage1_1.xlsx,,B4,T4,m,"['c', 'm']","['Clue', 'Monopoly']","[-0.15, 0.5]","[0.15, 0.5]",1,1,,,,,,,,,0,10,10,10,0,4,4,7,,,,,,,,,,,,,,,,,,,,,,,,,,,,,,,,,,,,,,,,,,,,,,,,,,,,,,,818.2634649400006,None,818.2634649400006,None,818.2634649400006,None,m,1,1.1724587799999426,819.7967074450007,None,819.7967074450007,None,819.7967074450007,None,821.0467914580004,None,821.0467914580004,None,821.0467914580004,None,821.0467914580004,None,,,,,,,,,,,,,,,,,,,,,,,,,,,,,,,,,,,,,,,,,,,,001,153,2020_Feb_20_1255,spring_faces,3.2.3,60.041269486862284,
condition files/Stage1_1.xlsx,,B1,T2,c,"['c', 'm']","['Clue', 'Monopoly']","[-0.15, 0.5]","[0.15, 0.5]",1,1,,,,,,,,,0,10,10,10,0,5,5,1,,,,,,,,,,,,,,,,,,,,,,,,,,,,,,,,,,,,,,,,,,,,,,,,,,,,,,,823.0134442430008,None,823.0134442430008,None,823.0134442430008,None,c,1,0.8063864010000543,824.5467709280001,None,824.5467709280001,None,824.5467709280001,None,825.4299737290003,None,825.4299737290003,None,825.4299737290003,None,825.4299737290003,None,,,,,,,,,,,,,,,,,,,,,,,,,,,,,,,,,,,,,,,,,,,,001,153,2020_Feb_20_1255,spring_faces,3.2.3,60.041269486862284,
condition files/Stage1_1.xlsx,,B2,T1,m,"['c', 'm']","['Clue', 'Monopoly']","[-0.15, 0.5]","[0.15, 0.5]",1,1,,,,,,,,,0,10,10,10,0,6,6,2,,,,,,,,,,,,,,,,,,,,,,,,,,,,,,,,,,,,,,,,,,,,,,,,,,,,,,,827.396781331001,None,827.396781331001,None,827.396781331001,None,m,1,2.4070445580000523,828.930158485,None,828.930158485,None,828.930158485,None,831.4134456120009,None,831.4134456120009,None,831.4134456120009,None,831.4134456120009,None,,,,,,,,,,,,,,,,,,,,,,,,,,,,,,,,,,,,,,,,,,,,001,153,2020_Feb_20_1255,spring_faces,3.2.3,60.041269486862284,
condition files/Stage1_1.xlsx,,T3,B4,c,"['c', 'm']","['Clue', 'Monopoly']","[-0.15, 0.5]","[0.15, 0.5]",1,1,,,,,,,,,0,10,10,10,0,7,7,5,,,,,,,,,,,,,,,,,,,,,,,,,,,,,,,,,,,,,,,,,,,,,,,,,,,,,,,833.3800282410011,None,833.3800282410011,None,833.3800282410011,None,c,1,1.1437539029993786,834.9134398799997,None,834.9134398799997,None,834.9134398799997,None,836.1301069559995,None,836.1301069559995,None,836.1301069559995,None,836.1301069559995,None,,,,,,,,,,,,,,,,,,,,,,,,,,,,,,,,,,,,,,,,,,,,001,153,2020_Feb_20_1255,spring_faces,3.2.3,60.041269486862284,
condition files/Stage1_2.xlsx,,B2,T2,m,"['c', 'm']","['Clue', 'Monopoly']","[-0.15, 0.5]","[0.15, 0.5]",1,1,,,,,,,,,0,11,11,11,0,0,0,3,,,,,,,,,,,,,,,,,,,,,,,,,,,,,,,,,,,,,,,,,,,,,,,,,,,,,,,838.1134522049997,None,838.1134522049997,None,838.1134522049997,None,m,1,0.6825476520007214,839.6467668099995,None,839.6467668099995,None,839.6467668099995,None,840.3967156819999,None,840.3967156819999,None,840.3967156819999,None,840.3967156819999,None,,,,,,,,,,,,,,,,,,,,,,,,,,,,,,,,,,,,,,,,,,,,001,153,2020_Feb_20_1255,spring_faces,3.2.3,60.041269486862284,
condition files/Stage1_2.xlsx,,B1,T1,c,"['c', 'm']","['Clue', 'Monopoly']","[-0.15, 0.5]","[0.15, 0.5]",1,1,,,,,,,,,0,11,11,11,0,1,1,0,,,,,,,,,,,,,,,,,,,,,,,,,,,,,,,,,,,,,,,,,,,,,,,,,,,,,,,842.3633726850003,None,842.3633726850003,None,842.3633726850003,None,c,1,0.5924343140013661,843.8967746790004,None,843.8967746790004,None,843.8967746790004,None,844.5633269999998,None,844.5633269999998,None,844.5633269999998,None,844.5633269999998,None,,,,,,,,,,,,,,,,,,,,,,,,,,,,,,,,,,,,,,,,,,,,001,153,2020_Feb_20_1255,spring_faces,3.2.3,60.041269486862284,
condition files/Stage1_2.xlsx,,B3,T4,m,"['c', 'm']","['Clue', 'Monopoly']","[-0.15, 0.5]","[0.15, 0.5]",1,1,,,,,,,,,0,11,11,11,0,2,2,6,,,,,,,,,,,,,,,,,,,,,,,,,,,,,,,,,,,,,,,,,,,,,,,,,,,,,,,846.5301203630006,None,846.5301203630006,None,846.5301203630006,None,m,1,0.96972556000037,848.0634533829998,None,848.0634533829998,None,848.0634533829998,None,849.1135168599994,None,849.1135168599994,None,849.1135168599994,None,849.1135168599994,None,,,,,,,,,,,,,,,,,,,,,,,,,,,,,,,,,,,,,,,,,,,,001,153,2020_Feb_20_1255,spring_faces,3.2.3,60.041269486862284,
condition files/Stage1_2.xlsx,,B4,T3,c,"['c', 'm']","['Clue', 'Monopoly']","[-0.15, 0.5]","[0.15, 0.5]",1,1,,,,,,,,,0,11,11,11,0,3,3,5,,,,,,,,,,,,,,,,,,,,,,,,,,,,,,,,,,,,,,,,,,,,,,,,,,,,,,,851.0801531150009,None,851.0801531150009,None,851.0801531150009,None,c,1,1.0751167799990071,852.630127235001,None,852.630127235001,None,852.630127235001,None,853.7801298880004,None,853.7801298880004,None,853.7801298880004,None,853.7801298880004,None,,,,,,,,,,,,,,,,,,,,,,,,,,,,,,,,,,,,,,,,,,,,001,153,2020_Feb_20_1255,spring_faces,3.2.3,60.041269486862284,
condition files/Stage1_2.xlsx,,T3,B3,c,"['c', 'm']","['Clue', 'Monopoly']","[-0.15, 0.5]","[0.15, 0.5]",1,1,,,,,,,,,0,11,11,11,0,4,4,4,,,,,,,,,,,,,,,,,,,,,,,,,,,,,,,,,,,,,,,,,,,,,,,,,,,,,,,855.7468047929997,None,855.7468047929997,None,855.7468047929997,None,c,1,1.9450872920006077,857.2801152820011,None,857.2801152820011,None,857.2801152820011,None,859.2801365890009,None,859.2801365890009,None,859.2801365890009,None,859.2801365890009,None,,,,,,,,,,,,,,,,,,,,,,,,,,,,,,,,,,,,,,,,,,,,001,153,2020_Feb_20_1255,spring_faces,3.2.3,60.041269486862284,
condition files/Stage1_2.xlsx,,T2,B1,c,"['c', 'm']","['Clue', 'Monopoly']","[-0.15, 0.5]","[0.15, 0.5]",1,1,,,,,,,,,0,11,11,11,0,5,5,1,,,,,,,,,,,,,,,,,,,,,,,,,,,,,,,,,,,,,,,,,,,,,,,,,,,,,,,861.2634678160011,None,861.2634678160011,None,861.2634678160011,None,c,1,0.7004540079997241,862.7967153219997,None,862.7967153219997,None,862.7967153219997,None,863.5633789490003,None,863.5633789490003,None,863.5633789490003,None,863.5633789490003,None,,,,,,,,,,,,,,,,,,,,,,,,,,,,,,,,,,,,,,,,,,,,001,153,2020_Feb_20_1255,spring_faces,3.2.3,60.041269486862284,
condition files/Stage1_2.xlsx,,T1,B2,m,"['c', 'm']","['Clue', 'Monopoly']","[-0.15, 0.5]","[0.15, 0.5]",1,1,,,,,,,,,0,11,11,11,0,6,6,2,,,,,,,,,,,,,,,,,,,,,,,,,,,,,,,,,,,,,,,,,,,,,,,,,,,,,,,865.5467507699996,None,865.5467507699996,None,865.5467507699996,None,m,1,0.6250923950010474,867.0801176759996,None,867.0801176759996,None,867.0801176759996,None,867.7801020870011,None,867.7801020870011,None,867.7801020870011,None,867.7801020870011,None,,,,,,,,,,,,,,,,,,,,,,,,,,,,,,,,,,,,,,,,,,,,001,153,2020_Feb_20_1255,spring_faces,3.2.3,60.041269486862284,
condition files/Stage1_2.xlsx,,T4,B4,m,"['c', 'm']","['Clue', 'Monopoly']","[-0.15, 0.5]","[0.15, 0.5]",1,1,,,,,,,,,0,11,11,11,0,7,7,7,,,,,,,,,,,,,,,,,,,,,,,,,,,,,,,,,,,,,,,,,,,,,,,,,,,,,,,869.7468098879999,None,869.7468098879999,None,869.7468098879999,None,m,1,1.3210870240000077,871.2801138970008,None,871.2801138970008,None,871.2801138970008,None,872.6634590379999,None,872.6634590379999,None,872.6634590379999,None,872.6634590379999,None,,,,,,,,,,,,,,,,,,,,,,,,,,,,,,,,,,,,,,,,,,,,001,153,2020_Feb_20_1255,spring_faces,3.2.3,60.041269486862284,
,,,,,,,,,,,,,,,,,,,,,,,,,,,,,,,,,,,,,,,,,,,,,,,,,,,,,,,,,,,,,,,,,,,,,,,,,,,,,,,,,,,,,,,,,,,,,,,,,,,,,,,,,,,,,,,,874.6467716820007,None,space,9.083190837000075,879.6301119649997,None,,,,,,,,,,,,,,,,,,,,,,,,,,,,,,001,153,2020_Feb_20_1255,spring_faces,3.2.3,60.041269486862284,
condition files/Stage2_1.xlsx,,B4,T4,r,"['s', 'r']","['Stratego', 'Risk']","[-0.15, 0.5]","[0.15, 0.5]",1,1,,,,,,,,,,,,,,,,,0,0,0,0,0,0,0,5,,,,,,,,,,,,,,,,,,,,,,,,,,,,,,,,,,,,,,,,,,,,,,,888.7633749760007,None,888.7633749760007,None,888.7633749760007,None,s,0,1.8571240990004299,890.2801052650011,None,890.2801052650011,None,890.2801052650011,None,892.2134790870005,None,892.2134790870005,None,892.2134790870005,None,892.2134790870005,None,,,,,,,,,,,,,,,879.6301119649997,None,,,,,,,,,,,,,,,,,,,,,,,,,,,,001,153,2020_Feb_20_1255,spring_faces,3.2.3,60.041269486862284,
condition files/Stage2_1.xlsx,,T5,B5,s,"['s', 'r']","['Stratego', 'Risk']","[-0.15, 0.5]","[0.15, 0.5]",1,1,,,,,,,,,,,,,,,,,0,0,0,0,0,1,1,0,,,,,,,,,,,,,,,,,,,,,,,,,,,,,,,,,,,,,,,,,,,,,,,894.1801577410006,None,894.1801577410006,None,894.1801577410006,None,s,1,3.9757526729990786,895.7134637689996,None,895.7134637689996,None,895.7134637689996,None,899.7634734540006,None,899.7634734540006,None,899.7634734540006,None,899.7634734540006,None,,,,,,,,,,,,,,,,,,,,,,,,,,,,,,,,,,,,,,,,,,,,001,153,2020_Feb_20_1255,spring_faces,3.2.3,60.041269486862284,
condition files/Stage2_1.xlsx,,T1,B1,s,"['s', 'r']","['Stratego', 'Risk']","[-0.15, 0.5]","[0.15, 0.5]",1,1,,,,,,,,,,,,,,,,,0,0,0,0,0,2,2,2,,,,,,,,,,,,,,,,,,,,,,,,,,,,,,,,,,,,,,,,,,,,,,,901.7301592879994,None,901.7301592879994,None,901.7301592879994,None,r,0,1.161724941999637,903.263468657,None,903.263468657,None,903.263468657,None,904.4801218490011,None,904.4801218490011,None,904.4801218490011,None,904.4801218490011,None,,,,,,,,,,,,,,,,,,,,,,,,,,,,,,,,,,,,,,,,,,,,001,153,2020_Feb_20_1255,spring_faces,3.2.3,60.041269486862284,
condition files/Stage2_1.xlsx,,B2,T2,r,"['s', 'r']","['Stratego', 'Risk']","[-0.15, 0.5]","[0.15, 0.5]",1,1,,,,,,,,,,,,,,,,,0,0,0,0,0,3,3,3,,,,,,,,,,,,,,,,,,,,,,,,,,,,,,,,,,,,,,,,,,,,,,,906.4634791139997,None,906.4634791139997,None,906.4634791139997,None,r,1,1.7405072989986365,907.9967374429998,None,907.9967374429998,None,907.9967374429998,None,909.8134564600005,None,909.8134564600005,None,909.8134564600005,None,909.8134564600005,None,,,,,,,,,,,,,,,,,,,,,,,,,,,,,,,,,,,,,,,,,,,,001,153,2020_Feb_20_1255,spring_faces,3.2.3,60.041269486862284,
condition files/Stage2_1.xlsx,,B6,T6,r,"['s', 'r']","['Stratego', 'Risk']","[-0.15, 0.5]","[0.15, 0.5]",1,1,,,,,,,,,,,,,,,,,0,0,0,0,0,4,4,1,,,,,,,,,,,,,,,,,,,,,,,,,,,,,,,,,,,,,,,,,,,,,,,911.7801591120005,None,911.7801591120005,None,911.7801591120005,None,s,0,1.1437498459999915,913.3134611549995,None,913.3134611549995,None,913.3134611549995,None,914.5134782109999,None,914.5134782109999,None,914.5134782109999,None,914.5134782109999,None,,,,,,,,,,,,,,,,,,,,,,,,,,,,,,,,,,,,,,,,,,,,001,153,2020_Feb_20_1255,spring_faces,3.2.3,60.041269486862284,
condition files/Stage2_1.xlsx,,T3,B3,s,"['s', 'r']","['Stratego', 'Risk']","[-0.15, 0.5]","[0.15, 0.5]",1,1,,,,,,,,,,,,,,,,,0,0,0,0,0,5,5,4,,,,,,,,,,,,,,,,,,,,,,,,,,,,,,,,,,,,,,,,,,,,,,,916.4967988799999,None,916.4967988799999,None,916.4967988799999,None,s,1,1.0991958110007545,918.0300936000003,None,918.0300936000003,None,918.0300936000003,None,919.1967214140004,None,919.1967214140004,None,919.1967214140004,None,919.1967214140004,None,,,,,,,,,,,,,,,,,,,,,,,,,,,,,,,,,,,,,,,,,,,,001,153,2020_Feb_20_1255,spring_faces,3.2.3,60.041269486862284,
condition files/Stage2_2.xlsx,,T6,B6,r,"['s', 'r']","['Stratego', 'Risk']","[-0.15, 0.5]","[0.15, 0.5]",1,1,,,,,,,,,,,,,,,,,0,1,1,1,0,0,0,1,,,,,,,,,,,,,,,,,,,,,,,,,,,,,,,,,,,,,,,,,,,,,,,921.1800584550001,None,921.1800584550001,None,921.1800584550001,None,r,1,1.2637517399998615,922.7135230380009,None,922.7135230380009,None,922.7135230380009,None,924.046782286001,None,924.046782286001,None,924.046782286001,None,924.046782286001,None,,,,,,,,,,,,,,,,,,,,,,,,,,,,,,,,,,,,,,,,,,,,001,153,2020_Feb_20_1255,spring_faces,3.2.3,60.041269486862284,
condition files/Stage2_2.xlsx,,B3,T3,s,"['s', 'r']","['Stratego', 'Risk']","[-0.15, 0.5]","[0.15, 0.5]",1,1,,,,,,,,,,,,,,,,,0,1,1,1,0,1,1,4,,,,,,,,,,,,,,,,,,,,,,,,,,,,,,,,,,,,,,,,,,,,,,,926.0134560200004,None,926.0134560200004,None,926.0134560200004,None,s,1,1.0064073690009536,927.5467299669999,None,927.5467299669999,None,927.5467299669999,None,928.6301092760004,None,928.6301092760004,None,928.6301092760004,None,928.6301092760004,None,,,,,,,,,,,,,,,,,,,,,,,,,,,,,,,,,,,,,,,,,,,,001,153,2020_Feb_20_1255,spring_faces,3.2.3,60.041269486862284,
condition files/Stage2_2.xlsx,,B1,T1,s,"['s', 'r']","['Stratego', 'Risk']","[-0.15, 0.5]","[0.15, 0.5]",1,1,,,,,,,,,,,,,,,,,0,1,1,1,0,2,2,2,,,,,,,,,,,,,,,,,,,,,,,,,,,,,,,,,,,,,,,,,,,,,,,930.5967777229998,None,930.5967777229998,None,930.5967777229998,None,r,0,1.0790064559987513,932.1301211270002,None,932.1301211270002,None,932.1301211270002,None,933.2634337710006,None,933.2634337710006,None,933.2634337710006,None,933.2634337710006,None,,,,,,,,,,,,,,,,,,,,,,,,,,,,,,,,,,,,,,,,,,,,001,153,2020_Feb_20_1255,spring_faces,3.2.3,60.041269486862284,
condition files/Stage2_2.xlsx,,B5,T5,s,"['s', 'r']","['Stratego', 'Risk']","[-0.15, 0.5]","[0.15, 0.5]",1,1,,,,,,,,,,,,,,,,,0,1,1,1,0,3,3,0,,,,,,,,,,,,,,,,,,,,,,,,,,,,,,,,,,,,,,,,,,,,,,,935.2468130699999,None,935.2468130699999,None,935.2468130699999,None,r,0,1.53323203599939,936.7800712080007,None,936.7800712080007,None,936.7800712080007,None,938.3633957599995,None,938.3633957599995,None,938.3633957599995,None,938.3633957599995,None,,,,,,,,,,,,,,,,,,,,,,,,,,,,,,,,,,,,,,,,,,,,001,153,2020_Feb_20_1255,spring_faces,3.2.3,60.041269486862284,
condition files/Stage2_2.xlsx,,T4,B4,r,"['s', 'r']","['Stratego', 'Risk']","[-0.15, 0.5]","[0.15, 0.5]",1,1,,,,,,,,,,,,,,,,,0,1,1,1,0,4,4,5,,,,,,,,,,,,,,,,,,,,,,,,,,,,,,,,,,,,,,,,,,,,,,,940.3468200070001,None,940.3468200070001,None,940.3468200070001,None,r,1,1.0890500099994824,941.8801327639994,None,941.8801327639994,None,941.8801327639994,None,943.0467743650006,None,943.0467743650006,None,943.0467743650006,None,943.0467743650006,None,,,,,,,,,,,,,,,,,,,,,,,,,,,,,,,,,,,,,,,,,,,,001,153,2020_Feb_20_1255,spring_faces,3.2.3,60.041269486862284,
condition files/Stage2_2.xlsx,,T2,B2,r,"['s', 'r']","['Stratego', 'Risk']","[-0.15, 0.5]","[0.15, 0.5]",1,1,,,,,,,,,,,,,,,,,0,1,1,1,0,5,5,3,,,,,,,,,,,,,,,,,,,,,,,,,,,,,,,,,,,,,,,,,,,,,,,945.0134724159998,None,945.0134724159998,None,945.0134724159998,None,s,0,2.119004643000153,946.5461500149995,None,946.5461500149995,None,946.5461500149995,None,948.7300664110007,None,948.7300664110007,None,948.7300664110007,None,948.7300664110007,None,,,,,,,,,,,,,,,,,,,,,,,,,,,,,,,,,,,,,,,,,,,,001,153,2020_Feb_20_1255,spring_faces,3.2.3,60.041269486862284,
condition files/Stage2_1.xlsx,,T5,B5,s,"['s', 'r']","['Stratego', 'Risk']","[-0.15, 0.5]","[0.15, 0.5]",1,1,,,,,,,,,,,,,,,,,0,2,2,2,0,0,0,0,,,,,,,,,,,,,,,,,,,,,,,,,,,,,,,,,,,,,,,,,,,,,,,950.7300550920008,None,950.7300550920008,None,950.7300550920008,None,s,1,1.1217765839992353,952.263438035001,None,952.263438035001,None,952.263438035001,None,953.4634598760003,None,953.4634598760003,None,953.4634598760003,None,953.4634598760003,None,,,,,,,,,,,,,,,,,,,,,,,,,,,,,,,,,,,,,,,,,,,,001,153,2020_Feb_20_1255,spring_faces,3.2.3,60.041269486862284,
condition files/Stage2_1.xlsx,,T1,B1,s,"['s', 'r']","['Stratego', 'Risk']","[-0.15, 0.5]","[0.15, 0.5]",1,1,,,,,,,,,,,,,,,,,0,2,2,2,0,1,1,2,,,,,,,,,,,,,,,,,,,,,,,,,,,,,,,,,,,,,,,,,,,,,,,955.4301549089996,None,955.4301549089996,None,955.4301549089996,None,s,1,1.9417615439997462,956.963460166,None,956.963460166,None,956.963460166,None,958.9634849960003,None,958.9634849960003,None,958.9634849960003,None,958.9634849960003,None,,,,,,,,,,,,,,,,,,,,,,,,,,,,,,,,,,,,,,,,,,,,001,153,2020_Feb_20_1255,spring_faces,3.2.3,60.041269486862284,
condition files/Stage2_1.xlsx,,B2,T2,r,"['s', 'r']","['Stratego', 'Risk']","[-0.15, 0.5]","[0.15, 0.5]",1,1,,,,,,,,,,,,,,,,,0,2,2,2,0,2,2,3,,,,,,,,,,,,,,,,,,,,,,,,,,,,,,,,,,,,,,,,,,,,,,,960.9467894560003,None,960.9467894560003,None,960.9467894560003,None,r,1,0.9370691040003294,962.4801226449999,None,962.4801226449999,None,962.4801226449999,None,963.4967749970001,None,963.4967749970001,None,963.4967749970001,None,963.4967749970001,None,,,,,,,,,,,,,,,,,,,,,,,,,,,,,,,,,,,,,,,,,,,,001,153,2020_Feb_20_1255,spring_faces,3.2.3,60.041269486862284,
condition files/Stage2_1.xlsx,,T3,B3,s,"['s', 'r']","['Stratego', 'Risk']","[-0.15, 0.5]","[0.15, 0.5]",1,1,,,,,,,,,,,,,,,,,0,2,2,2,0,3,3,4,,,,,,,,,,,,,,,,,,,,,,,,,,,,,,,,,,,,,,,,,,,,,,,965.4634681570005,None,965.4634681570005,None,965.4634681570005,None,s,1,1.9244383610002842,966.9967795640005,None,966.9967795640005,None,966.9967795640005,None,968.9967995330007,None,968.9967995330007,None,968.9967995330007,None,968.9967995330007,None,,,,,,,,,,,,,,,,,,,,,,,,,,,,,,,,,,,,,,,,,,,,001,153,2020_Feb_20_1255,spring_faces,3.2.3,60.041269486862284,
condition files/Stage2_1.xlsx,,B6,T6,r,"['s', 'r']","['Stratego', 'Risk']","[-0.15, 0.5]","[0.15, 0.5]",1,1,,,,,,,,,,,,,,,,,0,2,2,2,0,4,4,1,,,,,,,,,,,,,,,,,,,,,,,,,,,,,,,,,,,,,,,,,,,,,,,970.9634920040007,None,970.9634920040007,None,970.9634920040007,None,r,1,0.9203936739995697,972.4967908199997,None,972.4967908199997,None,972.4967908199997,None,973.4967737940005,None,973.4967737940005,None,973.4967737940005,None,973.4967737940005,None,,,,,,,,,,,,,,,,,,,,,,,,,,,,,,,,,,,,,,,,,,,,001,153,2020_Feb_20_1255,spring_faces,3.2.3,60.041269486862284,
condition files/Stage2_1.xlsx,,B4,T4,r,"['s', 'r']","['Stratego', 'Risk']","[-0.15, 0.5]","[0.15, 0.5]",1,1,,,,,,,,,,,,,,,,,0,2,2,2,0,5,5,5,,,,,,,,,,,,,,,,,,,,,,,,,,,,,,,,,,,,,,,,,,,,,,,975.4634428190002,None,975.4634428190002,None,975.4634428190002,None,s,0,1.9564027870001155,976.9967725999995,None,976.9967725999995,None,976.9967725999995,None,979.0134668120008,None,979.0134668120008,None,979.0134668120008,None,979.0134668120008,None,,,,,,,,,,,,,,,,,,,,,,,,,,,,,,,,,,,,,,,,,,,,001,153,2020_Feb_20_1255,spring_faces,3.2.3,60.041269486862284,
condition files/Stage2_2.xlsx,,T6,B6,r,"['s', 'r']","['Stratego', 'Risk']","[-0.15, 0.5]","[0.15, 0.5]",1,1,,,,,,,,,,,,,,,,,0,3,3,3,0,0,0,1,,,,,,,,,,,,,,,,,,,,,,,,,,,,,,,,,,,,,,,,,,,,,,,981.0134551480005,None,981.0134551480005,None,981.0134551480005,None,r,1,1.4784673640006076,982.5467759940002,None,982.5467759940002,None,982.5467759940002,None,984.096771429,None,984.096771429,None,984.096771429,None,984.096771429,None,,,,,,,,,,,,,,,,,,,,,,,,,,,,,,,,,,,,,,,,,,,,001,153,2020_Feb_20_1255,spring_faces,3.2.3,60.041269486862284,
condition files/Stage2_2.xlsx,,B1,T1,s,"['s', 'r']","['Stratego', 'Risk']","[-0.15, 0.5]","[0.15, 0.5]",1,1,,,,,,,,,,,,,,,,,0,3,3,3,0,1,1,2,,,,,,,,,,,,,,,,,,,,,,,,,,,,,,,,,,,,,,,,,,,,,,,986.0634460780002,None,986.0634460780002,None,986.0634460780002,None,s,1,2.060549527999683,987.5967026500002,None,987.5967026500002,None,987.5967026500002,None,989.7301470069997,None,989.7301470069997,None,989.7301470069997,None,989.7301470069997,None,,,,,,,,,,,,,,,,,,,,,,,,,,,,,,,,,,,,,,,,,,,,001,153,2020_Feb_20_1255,spring_faces,3.2.3,60.041269486862284,
condition files/Stage2_2.xlsx,,B3,T3,s,"['s', 'r']","['Stratego', 'Risk']","[-0.15, 0.5]","[0.15, 0.5]",1,1,,,,,,,,,,,,,,,,,0,3,3,3,0,2,2,4,,,,,,,,,,,,,,,,,,,,,,,,,,,,,,,,,,,,,,,,,,,,,,,991.696800746,None,991.696800746,None,991.696800746,None,r,0,1.1631224499997188,993.2301285419999,None,993.2301285419999,None,993.2301285419999,None,994.4467798770002,None,994.4467798770002,None,994.4467798770002,None,994.4467798770002,None,,,,,,,,,,,,,,,,,,,,,,,,,,,,,,,,,,,,,,,,,,,,001,153,2020_Feb_20_1255,spring_faces,3.2.3,60.041269486862284,
condition files/Stage2_2.xlsx,,T4,B4,r,"['s', 'r']","['Stratego', 'Risk']","[-0.15, 0.5]","[0.15, 0.5]",1,1,,,,,,,,,,,,,,,,,0,3,3,3,0,3,3,5,,,,,,,,,,,,,,,,,,,,,,,,,,,,,,,,,,,,,,,,,,,,,,,996.4301160039995,None,996.4301160039995,None,996.4301160039995,None,r,1,1.453814198001055,997.9633955890004,None,997.9633955890004,None,997.9633955890004,None,999.4967857800002,None,999.4967857800002,None,999.4967857800002,None,999.4967857800002,None,,,,,,,,,,,,,,,,,,,,,,,,,,,,,,,,,,,,,,,,,,,,001,153,2020_Feb_20_1255,spring_faces,3.2.3,60.041269486862284,
condition files/Stage2_2.xlsx,,T2,B2,r,"['s', 'r']","['Stratego', 'Risk']","[-0.15, 0.5]","[0.15, 0.5]",1,1,,,,,,,,,,,,,,,,,0,3,3,3,0,4,4,3,,,,,,,,,,,,,,,,,,,,,,,,,,,,,,,,,,,,,,,,,,,,,,,1001.4634745530002,None,1001.4634745530002,None,1001.4634745530002,None,r,1,0.9964771909999399,1002.9967689220011,None,1002.9967689220011,None,1002.9967689220011,None,1004.0634849199996,None,1004.0634849199996,None,1004.0634849199996,None,1004.0634849199996,None,,,,,,,,,,,,,,,,,,,,,,,,,,,,,,,,,,,,,,,,,,,,001,153,2020_Feb_20_1255,spring_faces,3.2.3,60.041269486862284,
condition files/Stage2_2.xlsx,,B5,T5,s,"['s', 'r']","['Stratego', 'Risk']","[-0.15, 0.5]","[0.15, 0.5]",1,1,,,,,,,,,,,,,,,,,0,3,3,3,0,5,5,0,,,,,,,,,,,,,,,,,,,,,,,,,,,,,,,,,,,,,,,,,,,,,,,1006.0301363079998,None,1006.0301363079998,None,1006.0301363079998,None,s,1,1.261860329999763,1007.5633985590011,None,1007.5633985590011,None,1007.5633985590011,None,1008.8967730910008,None,1008.8967730910008,None,1008.8967730910008,None,1008.8967730910008,None,,,,,,,,,,,,,,,,,,,,,,,,,,,,,,,,,,,,,,,,,,,,001,153,2020_Feb_20_1255,spring_faces,3.2.3,60.041269486862284,
condition files/Stage2_1.xlsx,,T1,B1,s,"['s', 'r']","['Stratego', 'Risk']","[-0.15, 0.5]","[0.15, 0.5]",1,1,,,,,,,,,,,,,,,,,0,4,4,4,0,0,0,2,,,,,,,,,,,,,,,,,,,,,,,,,,,,,,,,,,,,,,,,,,,,,,,1010.8801070230002,None,1010.8801070230002,None,1010.8801070230002,None,s,1,0.8918077960006485,1012.4134389700012,None,1012.4134389700012,None,1012.4134389700012,None,1013.3801308710008,None,1013.3801308710008,None,1013.3801308710008,None,1013.3801308710008,None,,,,,,,,,,,,,,,,,,,,,,,,,,,,,,,,,,,,,,,,,,,,001,153,2020_Feb_20_1255,spring_faces,3.2.3,60.041269486862284,
condition files/Stage2_1.xlsx,,T5,B5,s,"['s', 'r']","['Stratego', 'Risk']","[-0.15, 0.5]","[0.15, 0.5]",1,1,,,,,,,,,,,,,,,,,0,4,4,4,0,1,1,0,,,,,,,,,,,,,,,,,,,,,,,,,,,,,,,,,,,,,,,,,,,,,,,1015.346796631,None,1015.346796631,None,1015.346796631,None,s,1,0.8730465590015228,1016.880130167001,None,1016.880130167001,None,1016.880130167001,None,1017.8301351669998,None,1017.8301351669998,None,1017.8301351669998,None,1017.8301351669998,None,,,,,,,,,,,,,,,,,,,,,,,,,,,,,,,,,,,,,,,,,,,,001,153,2020_Feb_20_1255,spring_faces,3.2.3,60.041269486862284,
condition files/Stage2_1.xlsx,,T3,B3,s,"['s', 'r']","['Stratego', 'Risk']","[-0.15, 0.5]","[0.15, 0.5]",1,1,,,,,,,,,,,,,,,,,0,4,4,4,0,2,2,4,,,,,,,,,,,,,,,,,,,,,,,,,,,,,,,,,,,,,,,,,,,,,,,1019.7967890239997,None,1019.7967890239997,None,1019.7967890239997,None,r,0,1.9750817679996544,1021.3301289770006,None,1021.3301289770006,None,1021.3301289770006,None,1023.363476949,None,1023.363476949,None,1023.363476949,None,1023.363476949,None,,,,,,,,,,,,,,,,,,,,,,,,,,,,,,,,,,,,,,,,,,,,001,153,2020_Feb_20_1255,spring_faces,3.2.3,60.041269486862284,
