condsFile,subStage,cue1,cue2,correct,responseKeys,responseNames,cue1Position,cue2Position,cue1Opacity,cue2Opacity,stageLoop0.thisRepN,stageLoop0.thisTrialN,stageLoop0.thisN,stageLoop0.thisIndex,blockLoop0.thisRepN,blockLoop0.thisTrialN,blockLoop0.thisN,blockLoop0.thisIndex,stage1Loop.thisRepN,stage1Loop.thisTrialN,stage1Loop.thisN,stage1Loop.thisIndex,blockLoop1.thisRepN,blockLoop1.thisTrialN,blockLoop1.thisN,blockLoop1.thisIndex,stage2Loop.thisRepN,stage2Loop.thisTrialN,stage2Loop.thisN,stage2Loop.thisIndex,blockLoop2.thisRepN,blockLoop2.thisTrialN,blockLoop2.thisN,blockLoop2.thisIndex,testLoop.thisRepN,testLoop.thisTrialN,testLoop.thisN,testLoop.thisIndex,blockLoopTest.thisRepN,blockLoopTest.thisTrialN,blockLoopTest.thisN,blockLoopTest.thisIndex,cuePics,id_instr_text.started,id_instr_text.stopped,space_to_continue_2.started,space_to_continue_2.stopped,end_instructions_resp_3.keys,end_instructions_resp_3.rt,end_instructions_resp_3.started,end_instructions_resp_3.stopped,id_input_instr.started,id_input_instr.stopped,id_input_rect.started,id_input_rect.stopped,id_input_resp.keys,id_input_resp.rt,id_input_resp.started,id_input_resp.stopped,sonaID,id_input_text.started,id_input_text.stopped,final_text.started,final_text.stopped,instructions.started,instructions.stopped,end_instructions_resp.keys,end_instructions_resp.rt,end_instructions_resp.started,end_instructions_resp.stopped,space_to_continue.started,space_to_continue.stopped,instructions_stage0.started,instructions_stage0.stopped,end_instructions_resp_stage0.keys,end_instructions_resp_stage0.rt,end_instructions_resp_stage0.started,end_instructions_resp_stage0.stopped,space_to_continue_stage0.started,space_to_continue_stage0.stopped,text.started,text.stopped,resp_text1.started,resp_text1.stopped,resp_text2.started,resp_text2.stopped,trial_resp.keys,trial_resp.corr,trial_resp.rt,trial_resp.started,trial_resp.stopped,cue1Image.started,cue1Image.stopped,cue2Image.started,cue2Image.stopped,cue1Image_fb.started,cue1Image_fb.stopped,cue2Image_fb.started,cue2Image_fb.stopped,fb_text_answer.started,fb_text_answer.stopped,feedback_image.started,feedback_image.stopped,instructions_stage1.started,instructions_stage1.stopped,end_instructions_resp_stage1.keys,end_instructions_resp_stage1.rt,end_instructions_resp_stage1.started,end_instructions_resp_stage1.stopped,space_to_continue_stage1.started,space_to_continue_stage1.stopped,instructions_2.started,instructions_2.stopped,end_instructions_resp_2.keys,end_instructions_resp_2.rt,end_instructions_resp_2.started,end_instructions_resp_2.stopped,press_space_to_continue_stage2.started,press_space_to_continue_stage2.stopped,instructions_testStage1.started,instructions_testStage1.stopped,end_instructions_resp_test1.keys,end_instructions_resp_test1.rt,end_instructions_resp_test1.started,end_instructions_resp_test1.stopped,press_space_to_continue_test1.started,press_space_to_continue_test1.stopped,cue1Image_testChoice.started,cue1Image_testChoice.stopped,cue2Image_testChoice.started,cue2Image_testChoice.stopped,test_resp.keys,test_resp.corr,test_resp.rt,test_resp.started,test_resp.stopped,cue1Image_testConf.started,cue1Image_testConf.stopped,cue2Image_testConf.started,cue2Image_testConf.stopped,conf_reminder.started,conf_reminder.stopped,conf_rating.response,conf_rating.rt,conf_rating.started,conf_rating.stopped,session,participant,date,expName,psychopyVersion,frameRate,
,,,,,,,,,,,,,,,,,,,,,,,,,,,,,,,,,,,,,,,,,,,"{'none': 'pictures/20M_AN_C.png', 'alpha': 'pictures/SHINEd_pear.png', 'beta': 'pictures/SHINEd_melon.png', 'theta': 'pictures/SHINEd_apple.png', 'phi': 'pictures/SHINEd_pepper.png', 'T1': 'pictures/25M_AN_C.png', 'T2': 'pictures/22M_AN_C.png', 'T3': 'pictures/31M_AN_C.png', 'T4': 'pictures/26M_AN_C.png', 'T5': 'pictures/20M_AN_C.png', 'T6': 'pictures/37M_AN_C.png', 'B1': 'pictures/34M_NE_C.png', 'B2': 'pictures/38M_NE_C.png', 'B3': 'pictures/23M_NE_C.png', 'B4': 'pictures/36M_NE_C.png', 'B5': 'pictures/33M_NE_C.png', 'B6': 'pictures/32M_NE_C.png'}",11.899633863999043,None,16.88295927299987,None,space,277.91112414000054,16.88295927299987,None,,,,,,,,,,,,,,,,,,,,,,,,,,,,,,,,,,,,,,,,,,,,,,,,,,,,,,,,,,,,,,,,,,,,,,,,,,,,,,,,,,,,,,,,,,,,,,,,001,154,2020_Feb_20_1320,spring_faces,3.2.3,60.005434932799844,
,,,,,,,,,,,,,,,,,,,,,,,,,,,,,,,,,,,,,,,,,,,,,,,,,,,,295.2162983769995,None,295.2162983769995,None,"['backspace', 'backspace', 'backspace', 'backspace', 'backspace', '0', '1', '3', '0', 'n', 'i', 'c', 'e', 'n', 'backspace', '0', '1', '3', '0', 'n', 'i', 's', 't', 'p', 'backspace', '0', '1', '3', '0', 'n', 'i', 'c', 'e', 'n']","[14.137741683000058, 14.233688203999918, 14.393773886000417, 14.537747578999188, 14.72981112600064, 33.84982501000013, 34.937747009000304, 36.05764780999925, 36.40977285199915, 37.00167617400075, 37.14568811500067, 41.91382636799972, 42.16966440299984, 42.585683900999356, 47.19377961999999, 51.385684466000384, 52.009770957, 52.74568804299997, 53.14568268000039, 53.81767458499962, 54.08974117099933, 58.18567602700023, 58.69783884299977, 59.06583672300076, 61.81776316600008, 67.86585390099935, 67.94568910899943, 69.5937729670004, 69.72174885499953, 70.3777751510006, 70.50575635099995, 73.75372633199913, 73.92979879000086, 74.32974353399914]",295.2162983769995,None,,,,,,,,,,,,,,,,,,,,,,,,,,,,,,,,,,,,,,,,,,,,,,,,,,,,,,,,,,,,,,,,,,,,,,,,,,,,,,,,,,,,,,,,001,154,2020_Feb_20_1320,spring_faces,3.2.3,60.005434932799844,
,,,,,,,,,,,,,,,,,,,,,,,,,,,,,,,,,,,,,,,,,,,,,,,,,,,,,,,,,,,,0130nicen,295.2162983769995,None,295.2162983769995,None,374.59964612099975,None,space,0.6030841679985315,379.5829426679993,None,,,,,,,,,,,,,,,,,,,,,,,,,,,,,,,,,,,,,,,,,,,,,,,,,,,,,,,,,,,,,,,,,,,,,,,,,,,,,001,154,2020_Feb_20_1320,spring_faces,3.2.3,60.005434932799844,
,,,,,,,,,,,,,,,,,,,,,,,,,,,,,,,,,,,,,,,,,,,,,,,,,,,,,,,,,,,,,,,,,,,,,,,379.5829426679993,None,380.2163031019991,None,space,1.3544209669998963,385.1996399109994,None,,,,,,,,,,,,,,,,,,,,,,,,,,,,,,,,,,,,,,,,,,,,,,,,,,,,,,,,,,,,,,,,,,,,,001,154,2020_Feb_20_1320,spring_faces,3.2.3,60.005434932799844,
condition files/Stage0a.xlsx,0a,alpha,none,h,"['h', 'g']","['Chess', 'Go']","[0, 0.5]","[0, 0]",1,0,0,0,0,0,0,0,0,0,,,,,,,,,,,,,,,,,,,,,,,,,,,,,,,,,,,,,,,,,,,,,,,,,,,,,,,,,,,,,385.1996399109994,None,386.6162938489997,None,386.6162938489997,None,386.6162938489997,None,g,0,2.9304886720001377,388.1996428069997,None,388.1996428069997,None,388.1996428069997,None,391.1996263679994,None,391.1996263679994,None,391.1996263679994,None,391.1996263679994,None,,,,,,,,,,,,,,,,,,,,,,,,,,,,,,,,,,,,,,,,,,,,001,154,2020_Feb_20_1320,spring_faces,3.2.3,60.005434932799844,
condition files/Stage0a.xlsx,0a,beta,none,g,"['h', 'g']","['Chess', 'Go']","[0, 0.5]","[0, 0]",1,0,0,0,0,0,0,1,1,1,,,,,,,,,,,,,,,,,,,,,,,,,,,,,,,,,,,,,,,,,,,,,,,,,,,,,,,,,,,,,,,393.1662994669987,None,393.1662994669987,None,393.1662994669987,None,h,0,1.1666304979989945,394.6995277219994,None,394.6995277219994,None,394.6995277219994,None,395.9329264459993,None,395.9329264459993,None,395.9329264459993,None,395.9329264459993,None,,,,,,,,,,,,,,,,,,,,,,,,,,,,,,,,,,,,,,,,,,,,001,154,2020_Feb_20_1320,spring_faces,3.2.3,60.005434932799844,
condition files/Stage0a.xlsx,0a,alpha,none,h,"['h', 'g']","['Chess', 'Go']","[0, 0.5]","[0, 0]",1,0,0,1,1,1,0,0,0,0,,,,,,,,,,,,,,,,,,,,,,,,,,,,,,,,,,,,,,,,,,,,,,,,,,,,,,,,,,,,,,,397.9163265070001,None,397.9163265070001,None,397.9163265070001,None,g,0,0.7683129010001721,399.449671888,None,399.449671888,None,399.449671888,None,400.29965169499883,None,400.29965169499883,None,400.29965169499883,None,400.29965169499883,None,,,,,,,,,,,,,,,,,,,,,,,,,,,,,,,,,,,,,,,,,,,,001,154,2020_Feb_20_1320,spring_faces,3.2.3,60.005434932799844,
condition files/Stage0a.xlsx,0a,beta,none,g,"['h', 'g']","['Chess', 'Go']","[0, 0.5]","[0, 0]",1,0,0,1,1,1,0,1,1,1,,,,,,,,,,,,,,,,,,,,,,,,,,,,,,,,,,,,,,,,,,,,,,,,,,,,,,,,,,,,,,,402.2663113999988,None,402.2663113999988,None,402.2663113999988,None,g,1,1.2503478909984551,403.79964880899934,None,403.79964880899934,None,403.79964880899934,None,405.11577816799945,None,405.11577816799945,None,405.11577816799945,None,405.11577816799945,None,,,,,,,,,,,,,,,,,,,,,,,,,,,,,,,,,,,,,,,,,,,,001,154,2020_Feb_20_1320,spring_faces,3.2.3,60.005434932799844,
condition files/Stage0a.xlsx,0a,alpha,none,h,"['h', 'g']","['Chess', 'Go']","[0, 0.5]","[0, 0]",1,0,0,2,2,2,0,0,0,0,,,,,,,,,,,,,,,,,,,,,,,,,,,,,,,,,,,,,,,,,,,,,,,,,,,,,,,,,,,,,,,407.11627041799875,None,407.11627041799875,None,407.11627041799875,None,g,0,1.3444454860000405,408.6496455469987,None,408.6496455469987,None,408.6496455469987,None,410.0663162059991,None,410.0663162059991,None,410.0663162059991,None,410.0663162059991,None,,,,,,,,,,,,,,,,,,,,,,,,,,,,,,,,,,,,,,,,,,,,001,154,2020_Feb_20_1320,spring_faces,3.2.3,60.005434932799844,
condition files/Stage0a.xlsx,0a,beta,none,g,"['h', 'g']","['Chess', 'Go']","[0, 0.5]","[0, 0]",1,0,0,2,2,2,0,1,1,1,,,,,,,,,,,,,,,,,,,,,,,,,,,,,,,,,,,,,,,,,,,,,,,,,,,,,,,,,,,,,,,412.03298239799915,None,412.03298239799915,None,412.03298239799915,None,g,1,0.939744466000775,413.56629221899857,None,413.56629221899857,None,413.56629221899857,None,414.582965915999,None,414.582965915999,None,414.582965915999,None,414.582965915999,None,,,,,,,,,,,,,,,,,,,,,,,,,,,,,,,,,,,,,,,,,,,,001,154,2020_Feb_20_1320,spring_faces,3.2.3,60.005434932799844,
condition files/Stage0a.xlsx,0a,beta,none,g,"['h', 'g']","['Chess', 'Go']","[0, 0.5]","[0, 0]",1,0,0,3,3,3,0,0,0,1,,,,,,,,,,,,,,,,,,,,,,,,,,,,,,,,,,,,,,,,,,,,,,,,,,,,,,,,,,,,,,,416.56628724999973,None,416.56628724999973,None,416.56628724999973,None,g,1,0.7744539329996769,418.0996254519996,None,418.0996254519996,None,418.0996254519996,None,418.9329577009994,None,418.9329577009994,None,418.9329577009994,None,418.9329577009994,None,,,,,,,,,,,,,,,,,,,,,,,,,,,,,,,,,,,,,,,,,,,,001,154,2020_Feb_20_1320,spring_faces,3.2.3,60.005434932799844,
condition files/Stage0a.xlsx,0a,alpha,none,h,"['h', 'g']","['Chess', 'Go']","[0, 0.5]","[0, 0]",1,0,0,3,3,3,0,1,1,0,,,,,,,,,,,,,,,,,,,,,,,,,,,,,,,,,,,,,,,,,,,,,,,,,,,,,,,,,,,,,,,420.91635779399985,None,420.91635779399985,None,420.91635779399985,None,h,1,0.9043902350003918,422.4496510969984,None,422.4496510969984,None,422.4496510969984,None,423.43298592499923,None,423.43298592499923,None,423.43298592499923,None,423.43298592499923,None,,,,,,,,,,,,,,,,,,,,,,,,,,,,,,,,,,,,,,,,,,,,001,154,2020_Feb_20_1320,spring_faces,3.2.3,60.005434932799844,
condition files/Stage0a.xlsx,0a,alpha,none,h,"['h', 'g']","['Chess', 'Go']","[0, 0.5]","[0, 0]",1,0,0,4,4,4,0,0,0,0,,,,,,,,,,,,,,,,,,,,,,,,,,,,,,,,,,,,,,,,,,,,,,,,,,,,,,,,,,,,,,,425.4163041849988,None,425.4163041849988,None,425.4163041849988,None,h,1,1.2364009960001567,426.9496524999995,None,426.9496524999995,None,426.9496524999995,None,428.2496453139993,None,428.2496453139993,None,428.2496453139993,None,428.2496453139993,None,,,,,,,,,,,,,,,,,,,,,,,,,,,,,,,,,,,,,,,,,,,,001,154,2020_Feb_20_1320,spring_faces,3.2.3,60.005434932799844,
condition files/Stage0a.xlsx,0a,beta,none,g,"['h', 'g']","['Chess', 'Go']","[0, 0.5]","[0, 0]",1,0,0,4,4,4,0,1,1,1,,,,,,,,,,,,,,,,,,,,,,,,,,,,,,,,,,,,,,,,,,,,,,,,,,,,,,,,,,,,,,,430.2329882670001,None,430.2329882670001,None,430.2329882670001,None,g,1,0.6277691839986801,431.76629595599843,None,431.76629595599843,None,431.76629595599843,None,432.46631463799895,None,432.46631463799895,None,432.46631463799895,None,432.46631463799895,None,,,,,,,,,,,,,,,,,,,,,,,,,,,,,,,,,,,,,,,,,,,,001,154,2020_Feb_20_1320,spring_faces,3.2.3,60.005434932799844,
condition files/Stage0a.xlsx,0a,alpha,none,h,"['h', 'g']","['Chess', 'Go']","[0, 0.5]","[0, 0]",1,0,0,5,5,5,0,0,0,0,,,,,,,,,,,,,,,,,,,,,,,,,,,,,,,,,,,,,,,,,,,,,,,,,,,,,,,,,,,,,,,434.44964464499935,None,434.44964464499935,None,434.44964464499935,None,h,1,0.6669997749995673,435.98302101399895,None,435.98302101399895,None,435.98302101399895,None,436.7161597999984,None,436.7161597999984,None,436.7161597999984,None,436.7161597999984,None,,,,,,,,,,,,,,,,,,,,,,,,,,,,,,,,,,,,,,,,,,,,001,154,2020_Feb_20_1320,spring_faces,3.2.3,60.005434932799844,
condition files/Stage0a.xlsx,0a,beta,none,g,"['h', 'g']","['Chess', 'Go']","[0, 0.5]","[0, 0]",1,0,0,5,5,5,0,1,1,1,,,,,,,,,,,,,,,,,,,,,,,,,,,,,,,,,,,,,,,,,,,,,,,,,,,,,,,,,,,,,,,438.69955254699926,None,438.69955254699926,None,438.69955254699926,None,g,1,0.9451118880006106,440.232966521,None,440.232966521,None,440.232966521,None,441.232817393,None,441.232817393,None,441.232817393,None,441.232817393,None,,,,,,,,,,,,,,,,,,,,,,,,,,,,,,,,,,,,,,,,,,,,001,154,2020_Feb_20_1320,spring_faces,3.2.3,60.005434932799844,
condition files/Stage0b_1.xlsx,0b,alpha,none,h,"['h', 'g']","['Chess', 'Go']","[-0.15, 0.5]","[0.15, 0.5]",1,0,0,6,6,6,0,0,0,0,,,,,,,,,,,,,,,,,,,,,,,,,,,,,,,,,,,,,,,,,,,,,,,,,,,,,,,,,,,,,,,443.2329788139996,None,443.2329788139996,None,443.2329788139996,None,h,1,1.4197578709990921,444.76630550999835,None,444.76630550999835,None,444.76630550999835,None,446.2663608499988,None,446.2663608499988,None,446.2663608499988,None,446.2663608499988,None,,,,,,,,,,,,,,,,,,,,,,,,,,,,,,,,,,,,,,,,,,,,001,154,2020_Feb_20_1320,spring_faces,3.2.3,60.005434932799844,
condition files/Stage0b_1.xlsx,0b,none,beta,g,"['h', 'g']","['Chess', 'Go']","[-0.15, 0.5]","[0.15, 0.5]",0,1,0,6,6,6,0,1,1,1,,,,,,,,,,,,,,,,,,,,,,,,,,,,,,,,,,,,,,,,,,,,,,,,,,,,,,,,,,,,,,,448.2329706679993,None,448.2329706679993,None,448.2329706679993,None,g,1,0.8837551860015083,449.7662874479993,None,449.7662874479993,None,449.7662874479993,None,450.73289584099984,None,450.73289584099984,None,450.73289584099984,None,450.73289584099984,None,,,,,,,,,,,,,,,,,,,,,,,,,,,,,,,,,,,,,,,,,,,,001,154,2020_Feb_20_1320,spring_faces,3.2.3,60.005434932799844,
condition files/Stage0b_2.xlsx,0b,beta,none,g,"['h', 'g']","['Chess', 'Go']","[-0.15, 0.5]","[0.15, 0.5]",1,0,0,7,7,7,0,0,0,1,,,,,,,,,,,,,,,,,,,,,,,,,,,,,,,,,,,,,,,,,,,,,,,,,,,,,,,,,,,,,,,452.71630536299926,None,452.71630536299926,None,452.71630536299926,None,g,1,0.6556912169999123,454.266375539999,None,454.266375539999,None,454.266375539999,None,454.999627575,None,454.999627575,None,454.999627575,None,454.999627575,None,,,,,,,,,,,,,,,,,,,,,,,,,,,,,,,,,,,,,,,,,,,,001,154,2020_Feb_20_1320,spring_faces,3.2.3,60.005434932799844,
condition files/Stage0b_2.xlsx,0b,none,alpha,h,"['h', 'g']","['Chess', 'Go']","[-0.15, 0.5]","[0.15, 0.5]",0,1,0,7,7,7,0,1,1,0,,,,,,,,,,,,,,,,,,,,,,,,,,,,,,,,,,,,,,,,,,,,,,,,,,,,,,,,,,,,,,,456.96628669799975,None,456.96628669799975,None,456.96628669799975,None,h,1,0.8704077029997279,458.49962540399974,None,458.49962540399974,None,458.49962540399974,None,459.44963785099935,None,459.44963785099935,None,459.44963785099935,None,459.44963785099935,None,,,,,,,,,,,,,,,,,,,,,,,,,,,,,,,,,,,,,,,,,,,,001,154,2020_Feb_20_1320,spring_faces,3.2.3,60.005434932799844,
condition files/Stage0b_1.xlsx,0b,alpha,none,h,"['h', 'g']","['Chess', 'Go']","[-0.15, 0.5]","[0.15, 0.5]",1,0,0,8,8,8,0,0,0,0,,,,,,,,,,,,,,,,,,,,,,,,,,,,,,,,,,,,,,,,,,,,,,,,,,,,,,,,,,,,,,,461.4329597429987,None,461.4329597429987,None,461.4329597429987,None,h,1,0.7078185539994593,462.96629114299867,None,462.96629114299867,None,462.96629114299867,None,463.74962969199987,None,463.74962969199987,None,463.74962969199987,None,463.74962969199987,None,,,,,,,,,,,,,,,,,,,,,,,,,,,,,,,,,,,,,,,,,,,,001,154,2020_Feb_20_1320,spring_faces,3.2.3,60.005434932799844,
condition files/Stage0b_1.xlsx,0b,none,beta,g,"['h', 'g']","['Chess', 'Go']","[-0.15, 0.5]","[0.15, 0.5]",0,1,0,8,8,8,0,1,1,1,,,,,,,,,,,,,,,,,,,,,,,,,,,,,,,,,,,,,,,,,,,,,,,,,,,,,,,,,,,,,,,465.7163063629996,None,465.7163063629996,None,465.7163063629996,None,g,1,1.128428136000366,467.2496486179989,None,467.2496486179989,None,467.2496486179989,None,468.44965743899957,None,468.44965743899957,None,468.44965743899957,None,468.44965743899957,None,,,,,,,,,,,,,,,,,,,,,,,,,,,,,,,,,,,,,,,,,,,,001,154,2020_Feb_20_1320,spring_faces,3.2.3,60.005434932799844,
condition files/Stage0b_2.xlsx,0b,beta,none,g,"['h', 'g']","['Chess', 'Go']","[-0.15, 0.5]","[0.15, 0.5]",1,0,0,9,9,9,0,0,0,1,,,,,,,,,,,,,,,,,,,,,,,,,,,,,,,,,,,,,,,,,,,,,,,,,,,,,,,,,,,,,,,470.4329750649995,None,470.4329750649995,None,470.4329750649995,None,g,1,0.539969976998691,471.96611082099844,None,471.96611082099844,None,471.96611082099844,None,472.583002329,None,472.583002329,None,472.583002329,None,472.583002329,None,,,,,,,,,,,,,,,,,,,,,,,,,,,,,,,,,,,,,,,,,,,,001,154,2020_Feb_20_1320,spring_faces,3.2.3,60.005434932799844,
condition files/Stage0b_2.xlsx,0b,none,alpha,h,"['h', 'g']","['Chess', 'Go']","[-0.15, 0.5]","[0.15, 0.5]",0,1,0,9,9,9,0,1,1,0,,,,,,,,,,,,,,,,,,,,,,,,,,,,,,,,,,,,,,,,,,,,,,,,,,,,,,,,,,,,,,,474.5496392719997,None,474.5496392719997,None,474.5496392719997,None,h,1,0.5831483180008945,476.0829816859987,None,476.0829816859987,None,476.0829816859987,None,476.7329217229999,None,476.7329217229999,None,476.7329217229999,None,476.7329217229999,None,,,,,,,,,,,,,,,,,,,,,,,,,,,,,,,,,,,,,,,,,,,,001,154,2020_Feb_20_1320,spring_faces,3.2.3,60.005434932799844,
condition files/Stage0b_1.xlsx,0b,none,beta,g,"['h', 'g']","['Chess', 'Go']","[-0.15, 0.5]","[0.15, 0.5]",0,1,0,10,10,10,0,0,0,1,,,,,,,,,,,,,,,,,,,,,,,,,,,,,,,,,,,,,,,,,,,,,,,,,,,,,,,,,,,,,,,478.716261947,None,478.716261947,None,478.716261947,None,g,1,1.2804759589998866,480.2496695849986,None,480.2496695849986,None,480.2496695849986,None,481.5996441110001,None,481.5996441110001,None,481.5996441110001,None,481.5996441110001,None,,,,,,,,,,,,,,,,,,,,,,,,,,,,,,,,,,,,,,,,,,,,001,154,2020_Feb_20_1320,spring_faces,3.2.3,60.005434932799844,
condition files/Stage0b_1.xlsx,0b,alpha,none,h,"['h', 'g']","['Chess', 'Go']","[-0.15, 0.5]","[0.15, 0.5]",1,0,0,10,10,10,0,1,1,0,,,,,,,,,,,,,,,,,,,,,,,,,,,,,,,,,,,,,,,,,,,,,,,,,,,,,,,,,,,,,,,483.56634641099845,None,483.56634641099845,None,483.56634641099845,None,g,0,0.894765909999478,485.09934012899976,None,485.09934012899976,None,485.09934012899976,None,486.0663095789987,None,486.0663095789987,None,486.0663095789987,None,486.0663095789987,None,,,,,,,,,,,,,,,,,,,,,,,,,,,,,,,,,,,,,,,,,,,,001,154,2020_Feb_20_1320,spring_faces,3.2.3,60.005434932799844,
condition files/Stage0b_2.xlsx,0b,none,alpha,h,"['h', 'g']","['Chess', 'Go']","[-0.15, 0.5]","[0.15, 0.5]",0,1,0,11,11,11,0,0,0,0,,,,,,,,,,,,,,,,,,,,,,,,,,,,,,,,,,,,,,,,,,,,,,,,,,,,,,,,,,,,,,,488.0496415609996,None,488.0496415609996,None,488.0496415609996,None,h,1,0.6992046640007175,489.5829627610001,None,489.5829627610001,None,489.5829627610001,None,490.3329794019992,None,490.3329794019992,None,490.3329794019992,None,490.3329794019992,None,,,,,,,,,,,,,,,,,,,,,,,,,,,,,,,,,,,,,,,,,,,,001,154,2020_Feb_20_1320,spring_faces,3.2.3,60.005434932799844,
condition files/Stage0b_2.xlsx,0b,beta,none,g,"['h', 'g']","['Chess', 'Go']","[-0.15, 0.5]","[0.15, 0.5]",1,0,0,11,11,11,0,1,1,1,,,,,,,,,,,,,,,,,,,,,,,,,,,,,,,,,,,,,,,,,,,,,,,,,,,,,,,,,,,,,,,492.31632423299925,None,492.31632423299925,None,492.31632423299925,None,g,1,0.5607322679989011,493.8493782049991,None,493.8493782049991,None,493.8493782049991,None,494.48300073599967,None,494.48300073599967,None,494.48300073599967,None,494.48300073599967,None,,,,,,,,,,,,,,,,,,,,,,,,,,,,,,,,,,,,,,,,,,,,001,154,2020_Feb_20_1320,spring_faces,3.2.3,60.005434932799844,
condition files/Stage0c_1.xlsx,0c,beta,theta,g,"['h', 'g']","['Chess', 'Go']","[-0.15, 0.5]","[0.15, 0.5]",1,1,0,12,12,12,0,0,0,2,,,,,,,,,,,,,,,,,,,,,,,,,,,,,,,,,,,,,,,,,,,,,,,,,,,,,,,,,,,,,,,496.46637626699885,None,496.46637626699885,None,496.46637626699885,None,h,0,1.338403609001034,497.9996692659988,None,497.9996692659988,None,497.9996692659988,None,499.3996529039996,None,499.3996529039996,None,499.3996529039996,None,499.3996529039996,None,,,,,,,,,,,,,,,,,,,,,,,,,,,,,,,,,,,,,,,,,,,,001,154,2020_Feb_20_1320,spring_faces,3.2.3,60.005434932799844,
condition files/Stage0c_1.xlsx,0c,alpha,phi,h,"['h', 'g']","['Chess', 'Go']","[-0.15, 0.5]","[0.15, 0.5]",1,1,0,12,12,12,0,1,1,1,,,,,,,,,,,,,,,,,,,,,,,,,,,,,,,,,,,,,,,,,,,,,,,,,,,,,,,,,,,,,,,501.3829903249989,None,501.3829903249989,None,501.3829903249989,None,h,1,1.2537452449996636,502.9162998619995,None,502.9162998619995,None,502.9162998619995,None,504.23298051799975,None,504.23298051799975,None,504.23298051799975,None,504.23298051799975,None,,,,,,,,,,,,,,,,,,,,,,,,,,,,,,,,,,,,,,,,,,,,001,154,2020_Feb_20_1320,spring_faces,3.2.3,60.005434932799844,
condition files/Stage0c_1.xlsx,0c,theta,alpha,h,"['h', 'g']","['Chess', 'Go']","[-0.15, 0.5]","[0.15, 0.5]",1,1,0,12,12,12,0,2,2,0,,,,,,,,,,,,,,,,,,,,,,,,,,,,,,,,,,,,,,,,,,,,,,,,,,,,,,,,,,,,,,,506.2163279749984,None,506.2163279749984,None,506.2163279749984,None,h,1,1.220415279000008,507.749629897,None,507.749629897,None,507.749629897,None,509.0329812029995,None,509.0329812029995,None,509.0329812029995,None,509.0329812029995,None,,,,,,,,,,,,,,,,,,,,,,,,,,,,,,,,,,,,,,,,,,,,001,154,2020_Feb_20_1320,spring_faces,3.2.3,60.005434932799844,
condition files/Stage0c_1.xlsx,0c,phi,beta,g,"['h', 'g']","['Chess', 'Go']","[-0.15, 0.5]","[0.15, 0.5]",1,1,0,12,12,12,0,3,3,3,,,,,,,,,,,,,,,,,,,,,,,,,,,,,,,,,,,,,,,,,,,,,,,,,,,,,,,,,,,,,,,511.01632912399873,None,511.01632912399873,None,511.01632912399873,None,g,1,0.9325155480000831,512.549638086999,None,512.549638086999,None,512.549638086999,None,513.549461957,None,513.549461957,None,513.549461957,None,513.549461957,None,,,,,,,,,,,,,,,,,,,,,,,,,,,,,,,,,,,,,,,,,,,,001,154,2020_Feb_20_1320,spring_faces,3.2.3,60.005434932799844,
condition files/Stage0c_2.xlsx,0c,theta,beta,g,"['h', 'g']","['Chess', 'Go']","[-0.15, 0.5]","[0.15, 0.5]",1,1,0,13,13,13,0,0,0,2,,,,,,,,,,,,,,,,,,,,,,,,,,,,,,,,,,,,,,,,,,,,,,,,,,,,,,,,,,,,,,,515.5329188479991,None,515.5329188479991,None,515.5329188479991,None,h,0,1.0397486109995953,517.0663186759994,None,517.0663186759994,None,517.0663186759994,None,518.1663381989983,None,518.1663381989983,None,518.1663381989983,None,518.1663381989983,None,,,,,,,,,,,,,,,,,,,,,,,,,,,,,,,,,,,,,,,,,,,,001,154,2020_Feb_20_1320,spring_faces,3.2.3,60.005434932799844,
condition files/Stage0c_2.xlsx,0c,alpha,theta,h,"['h', 'g']","['Chess', 'Go']","[-0.15, 0.5]","[0.15, 0.5]",1,1,0,13,13,13,0,1,1,0,,,,,,,,,,,,,,,,,,,,,,,,,,,,,,,,,,,,,,,,,,,,,,,,,,,,,,,,,,,,,,,520.1496551299988,None,520.1496551299988,None,520.1496551299988,None,h,1,1.1111024000001635,521.6829607109994,None,521.6829607109994,None,521.6829607109994,None,522.8496448779988,None,522.8496448779988,None,522.8496448779988,None,522.8496448779988,None,,,,,,,,,,,,,,,,,,,,,,,,,,,,,,,,,,,,,,,,,,,,001,154,2020_Feb_20_1320,spring_faces,3.2.3,60.005434932799844,
condition files/Stage0c_2.xlsx,0c,beta,phi,g,"['h', 'g']","['Chess', 'Go']","[-0.15, 0.5]","[0.15, 0.5]",1,1,0,13,13,13,0,2,2,3,,,,,,,,,,,,,,,,,,,,,,,,,,,,,,,,,,,,,,,,,,,,,,,,,,,,,,,,,,,,,,,524.8330129719998,None,524.8330129719998,None,524.8330129719998,None,g,1,1.1165511639992474,526.3495741789993,None,526.3495741789993,None,526.3495741789993,None,527.5163386859986,None,527.5163386859986,None,527.5163386859986,None,527.5163386859986,None,,,,,,,,,,,,,,,,,,,,,,,,,,,,,,,,,,,,,,,,,,,,001,154,2020_Feb_20_1320,spring_faces,3.2.3,60.005434932799844,
condition files/Stage0c_2.xlsx,0c,phi,alpha,h,"['h', 'g']","['Chess', 'Go']","[-0.15, 0.5]","[0.15, 0.5]",1,1,0,13,13,13,0,3,3,1,,,,,,,,,,,,,,,,,,,,,,,,,,,,,,,,,,,,,,,,,,,,,,,,,,,,,,,,,,,,,,,529.4995803699985,None,529.4995803699985,None,529.4995803699985,None,h,1,1.218149378999442,531.0158374160001,None,531.0158374160001,None,531.0158374160001,None,532.299585634999,None,532.299585634999,None,532.299585634999,None,532.299585634999,None,,,,,,,,,,,,,,,,,,,,,,,,,,,,,,,,,,,,,,,,,,,,001,154,2020_Feb_20_1320,spring_faces,3.2.3,60.005434932799844,
condition files/Stage0c_1.xlsx,0c,beta,theta,g,"['h', 'g']","['Chess', 'Go']","[-0.15, 0.5]","[0.15, 0.5]",1,1,0,14,14,14,0,0,0,2,,,,,,,,,,,,,,,,,,,,,,,,,,,,,,,,,,,,,,,,,,,,,,,,,,,,,,,,,,,,,,,534.2996230729987,None,534.2996230729987,None,534.2996230729987,None,g,1,1.6811129930010793,535.8329626639988,None,535.8329626639988,None,535.8329626639988,None,537.5663110269998,None,537.5663110269998,None,537.5663110269998,None,537.5663110269998,None,,,,,,,,,,,,,,,,,,,,,,,,,,,,,,,,,,,,,,,,,,,,001,154,2020_Feb_20_1320,spring_faces,3.2.3,60.005434932799844,
condition files/Stage0c_1.xlsx,0c,theta,alpha,h,"['h', 'g']","['Chess', 'Go']","[-0.15, 0.5]","[0.15, 0.5]",1,1,0,14,14,14,0,1,1,0,,,,,,,,,,,,,,,,,,,,,,,,,,,,,,,,,,,,,,,,,,,,,,,,,,,,,,,,,,,,,,,539.5495617429988,None,539.5495617429988,None,539.5495617429988,None,h,1,0.8002848120013368,541.0658582549986,None,541.0658582549986,None,541.0658582549986,None,541.9163007070001,None,541.9163007070001,None,541.9163007070001,None,541.9163007070001,None,,,,,,,,,,,,,,,,,,,,,,,,,,,,,,,,,,,,,,,,,,,,001,154,2020_Feb_20_1320,spring_faces,3.2.3,60.005434932799844,
condition files/Stage0c_1.xlsx,0c,phi,beta,g,"['h', 'g']","['Chess', 'Go']","[-0.15, 0.5]","[0.15, 0.5]",1,1,0,14,14,14,0,2,2,3,,,,,,,,,,,,,,,,,,,,,,,,,,,,,,,,,,,,,,,,,,,,,,,,,,,,,,,,,,,,,,,543.8995096819999,None,543.8995096819999,None,543.8995096819999,None,h,0,0.849857115001214,545.416262875,None,545.416262875,None,545.416262875,None,546.3161554519993,None,546.3161554519993,None,546.3161554519993,None,546.3161554519993,None,,,,,,,,,,,,,,,,,,,,,,,,,,,,,,,,,,,,,,,,,,,,001,154,2020_Feb_20_1320,spring_faces,3.2.3,60.005434932799844,
condition files/Stage0c_1.xlsx,0c,alpha,phi,h,"['h', 'g']","['Chess', 'Go']","[-0.15, 0.5]","[0.15, 0.5]",1,1,0,14,14,14,0,3,3,1,,,,,,,,,,,,,,,,,,,,,,,,,,,,,,,,,,,,,,,,,,,,,,,,,,,,,,,,,,,,,,,548.2996565839985,None,548.2996565839985,None,548.2996565839985,None,g,0,0.8330708950015833,549.8329560579987,None,549.8329560579987,None,549.8329560579987,None,550.716316987,None,550.716316987,None,550.716316987,None,550.716316987,None,,,,,,,,,,,,,,,,,,,,,,,,,,,,,,,,,,,,,,,,,,,,001,154,2020_Feb_20_1320,spring_faces,3.2.3,60.005434932799844,
condition files/Stage0c_2.xlsx,0c,alpha,theta,h,"['h', 'g']","['Chess', 'Go']","[-0.15, 0.5]","[0.15, 0.5]",1,1,0,15,15,15,0,0,0,0,,,,,,,,,,,,,,,,,,,,,,,,,,,,,,,,,,,,,,,,,,,,,,,,,,,,,,,,,,,,,,,552.7162769949991,None,552.7162769949991,None,552.7162769949991,None,h,1,0.9444460810009332,554.2496392979992,None,554.2496392979992,None,554.2496392979992,None,555.2496217479984,None,555.2496217479984,None,555.2496217479984,None,555.2496217479984,None,,,,,,,,,,,,,,,,,,,,,,,,,,,,,,,,,,,,,,,,,,,,001,154,2020_Feb_20_1320,spring_faces,3.2.3,60.005434932799844,
condition files/Stage0c_2.xlsx,0c,theta,beta,g,"['h', 'g']","['Chess', 'Go']","[-0.15, 0.5]","[0.15, 0.5]",1,1,0,15,15,15,0,1,1,2,,,,,,,,,,,,,,,,,,,,,,,,,,,,,,,,,,,,,,,,,,,,,,,,,,,,,,,,,,,,,,,557.2330013379997,None,557.2330013379997,None,557.2330013379997,None,h,0,0.6997964969996247,558.7663254539984,None,558.7663254539984,None,558.7663254539984,None,559.5162946209985,None,559.5162946209985,None,559.5162946209985,None,559.5162946209985,None,,,,,,,,,,,,,,,,,,,,,,,,,,,,,,,,,,,,,,,,,,,,001,154,2020_Feb_20_1320,spring_faces,3.2.3,60.005434932799844,
condition files/Stage0c_2.xlsx,0c,beta,phi,g,"['h', 'g']","['Chess', 'Go']","[-0.15, 0.5]","[0.15, 0.5]",1,1,0,15,15,15,0,2,2,3,,,,,,,,,,,,,,,,,,,,,,,,,,,,,,,,,,,,,,,,,,,,,,,,,,,,,,,,,,,,,,,561.4995749509999,None,561.4995749509999,None,561.4995749509999,None,g,1,0.9930919649996213,563.0329854889987,None,563.0329854889987,None,563.0329854889987,None,564.082965607,None,564.082965607,None,564.082965607,None,564.082965607,None,,,,,,,,,,,,,,,,,,,,,,,,,,,,,,,,,,,,,,,,,,,,001,154,2020_Feb_20_1320,spring_faces,3.2.3,60.005434932799844,
condition files/Stage0c_2.xlsx,0c,phi,alpha,h,"['h', 'g']","['Chess', 'Go']","[-0.15, 0.5]","[0.15, 0.5]",1,1,0,15,15,15,0,3,3,1,,,,,,,,,,,,,,,,,,,,,,,,,,,,,,,,,,,,,,,,,,,,,,,,,,,,,,,,,,,,,,,566.0663509839997,None,566.0663509839997,None,566.0663509839997,None,h,1,0.74725410100109,567.582869463,None,567.582869463,None,567.582869463,None,568.3829738019995,None,568.3829738019995,None,568.3829738019995,None,568.3829738019995,None,,,,,,,,,,,,,,,,,,,,,,,,,,,,,,,,,,,,,,,,,,,,001,154,2020_Feb_20_1320,spring_faces,3.2.3,60.005434932799844,
condition files/Stage0c_1.xlsx,0c,theta,alpha,h,"['h', 'g']","['Chess', 'Go']","[-0.15, 0.5]","[0.15, 0.5]",1,1,0,16,16,16,0,0,0,0,,,,,,,,,,,,,,,,,,,,,,,,,,,,,,,,,,,,,,,,,,,,,,,,,,,,,,,,,,,,,,,570.3828603189995,None,570.3828603189995,None,570.3828603189995,None,h,1,1.0858148239985894,571.916241642999,None,571.916241642999,None,571.916241642999,None,573.0663954889988,None,573.0663954889988,None,573.0663954889988,None,573.0663954889988,None,,,,,,,,,,,,,,,,,,,,,,,,,,,,,,,,,,,,,,,,,,,,001,154,2020_Feb_20_1320,spring_faces,3.2.3,60.005434932799844,
condition files/Stage0c_1.xlsx,0c,beta,theta,g,"['h', 'g']","['Chess', 'Go']","[-0.15, 0.5]","[0.15, 0.5]",1,1,0,16,16,16,0,1,1,2,,,,,,,,,,,,,,,,,,,,,,,,,,,,,,,,,,,,,,,,,,,,,,,,,,,,,,,,,,,,,,,575.0496328319987,None,575.0496328319987,None,575.0496328319987,None,g,1,0.8510287819990481,576.5829608240001,None,576.5829608240001,None,576.5829608240001,None,577.4995876519988,None,577.4995876519988,None,577.4995876519988,None,577.4995876519988,None,,,,,,,,,,,,,,,,,,,,,,,,,,,,,,,,,,,,,,,,,,,,001,154,2020_Feb_20_1320,spring_faces,3.2.3,60.005434932799844,
condition files/Stage0c_1.xlsx,0c,alpha,phi,h,"['h', 'g']","['Chess', 'Go']","[-0.15, 0.5]","[0.15, 0.5]",1,1,0,16,16,16,0,2,2,1,,,,,,,,,,,,,,,,,,,,,,,,,,,,,,,,,,,,,,,,,,,,,,,,,,,,,,,,,,,,,,,579.4828920429991,None,579.4828920429991,None,579.4828920429991,None,g,0,0.6257887140000093,581.016293744,None,581.016293744,None,581.016293744,None,581.6996534519985,None,581.6996534519985,None,581.6996534519985,None,581.6996534519985,None,,,,,,,,,,,,,,,,,,,,,,,,,,,,,,,,,,,,,,,,,,,,001,154,2020_Feb_20_1320,spring_faces,3.2.3,60.005434932799844,
condition files/Stage0c_1.xlsx,0c,phi,beta,g,"['h', 'g']","['Chess', 'Go']","[-0.15, 0.5]","[0.15, 0.5]",1,1,0,16,16,16,0,3,3,3,,,,,,,,,,,,,,,,,,,,,,,,,,,,,,,,,,,,,,,,,,,,,,,,,,,,,,,,,,,,,,,583.6829898329997,None,583.6829898329997,None,583.6829898329997,None,g,1,1.257817106999937,585.2162975189985,None,585.2162975189985,None,585.2162975189985,None,586.5330027719992,None,586.5330027719992,None,586.5330027719992,None,586.5330027719992,None,,,,,,,,,,,,,,,,,,,,,,,,,,,,,,,,,,,,,,,,,,,,001,154,2020_Feb_20_1320,spring_faces,3.2.3,60.005434932799844,
condition files/Stage0c_2.xlsx,0c,theta,beta,g,"['h', 'g']","['Chess', 'Go']","[-0.15, 0.5]","[0.15, 0.5]",1,1,0,17,17,17,0,0,0,2,,,,,,,,,,,,,,,,,,,,,,,,,,,,,,,,,,,,,,,,,,,,,,,,,,,,,,,,,,,,,,,588.5329576389995,None,588.5329576389995,None,588.5329576389995,None,g,1,0.9517077010004868,590.0662961979997,None,590.0662961979997,None,590.0662961979997,None,591.0829346889986,None,591.0829346889986,None,591.0829346889986,None,591.0829346889986,None,,,,,,,,,,,,,,,,,,,,,,,,,,,,,,,,,,,,,,,,,,,,001,154,2020_Feb_20_1320,spring_faces,3.2.3,60.005434932799844,
condition files/Stage0c_2.xlsx,0c,phi,alpha,h,"['h', 'g']","['Chess', 'Go']","[-0.15, 0.5]","[0.15, 0.5]",1,1,0,17,17,17,0,1,1,1,,,,,,,,,,,,,,,,,,,,,,,,,,,,,,,,,,,,,,,,,,,,,,,,,,,,,,,,,,,,,,,593.0662618049992,None,593.0662618049992,None,593.0662618049992,None,h,1,1.0104356779993395,594.5996451729989,None,594.5996451729989,None,594.5996451729989,None,595.6663002239984,None,595.6663002239984,None,595.6663002239984,None,595.6663002239984,None,,,,,,,,,,,,,,,,,,,,,,,,,,,,,,,,,,,,,,,,,,,,001,154,2020_Feb_20_1320,spring_faces,3.2.3,60.005434932799844,
condition files/Stage0c_2.xlsx,0c,beta,phi,g,"['h', 'g']","['Chess', 'Go']","[-0.15, 0.5]","[0.15, 0.5]",1,1,0,17,17,17,0,2,2,3,,,,,,,,,,,,,,,,,,,,,,,,,,,,,,,,,,,,,,,,,,,,,,,,,,,,,,,,,,,,,,,597.6496581769989,None,597.6496581769989,None,597.6496581769989,None,g,1,0.8270881360003841,599.1829876920001,None,599.1829876920001,None,599.1829876920001,None,600.066295876999,None,600.066295876999,None,600.066295876999,None,600.066295876999,None,,,,,,,,,,,,,,,,,,,,,,,,,,,,,,,,,,,,,,,,,,,,001,154,2020_Feb_20_1320,spring_faces,3.2.3,60.005434932799844,
condition files/Stage0c_2.xlsx,0c,alpha,theta,h,"['h', 'g']","['Chess', 'Go']","[-0.15, 0.5]","[0.15, 0.5]",1,1,0,17,17,17,0,3,3,0,,,,,,,,,,,,,,,,,,,,,,,,,,,,,,,,,,,,,,,,,,,,,,,,,,,,,,,,,,,,,,,602.0496878919985,None,602.0496878919985,None,602.0496878919985,None,h,1,1.3078335320005863,603.5662360449987,None,603.5662360449987,None,603.5662360449987,None,604.9329887559998,None,604.9329887559998,None,604.9329887559998,None,604.9329887559998,None,,,,,,,,,,,,,,,,,,,,,,,,,,,,,,,,,,,,,,,,,,,,001,154,2020_Feb_20_1320,spring_faces,3.2.3,60.005434932799844,
,,,,,,,,,,,,,,,,,,,,,,,,,,,,,,,,,,,,,,,,,,,,,,,,,,,,,,,,,,,,,,,,,,,,,,,,,,,,,,,,,,,,,,,,,,,,,,,,,,,,,,,,606.9163588880001,None,space,1.2465579839990824,611.8995897479999,None,,,,,,,,,,,,,,,,,,,,,,,,,,,,,,,,,,,,,,001,154,2020_Feb_20_1320,spring_faces,3.2.3,60.005434932799844,
condition files/Stage1_1.xlsx,,T4,B3,m,"['c', 'm']","['Clue', 'Monopoly']","[-0.15, 0.5]","[0.15, 0.5]",1,1,,,,,,,,,0,0,0,0,0,0,0,6,,,,,,,,,,,,,,,,,,,,,,,,,,,,,,,,,,,,,,,,,,,,,,,,,,,,,,,613.2163168970001,None,613.2163168970001,None,613.2163168970001,None,c,0,1.1971193850004056,614.7330203139991,None,614.7330203139991,None,614.7330203139991,None,616.016299388999,None,616.016299388999,None,616.016299388999,None,616.016299388999,None,,,,,,,611.8995897479999,None,,,,,,,,,,,,,,,,,,,,,,,,,,,,,,,,,,,,001,154,2020_Feb_20_1320,spring_faces,3.2.3,60.005434932799844,
condition files/Stage1_1.xlsx,,B4,T4,m,"['c', 'm']","['Clue', 'Monopoly']","[-0.15, 0.5]","[0.15, 0.5]",1,1,,,,,,,,,0,0,0,0,0,1,1,7,,,,,,,,,,,,,,,,,,,,,,,,,,,,,,,,,,,,,,,,,,,,,,,,,,,,,,,617.9663355119992,None,617.9663355119992,None,617.9663355119992,None,c,0,0.8785124990008626,619.4995954259994,None,619.4995954259994,None,619.4995954259994,None,620.4329988369991,None,620.4329988369991,None,620.4329988369991,None,620.4329988369991,None,,,,,,,,,,,,,,,,,,,,,,,,,,,,,,,,,,,,,,,,,,,,001,154,2020_Feb_20_1320,spring_faces,3.2.3,60.005434932799844,
condition files/Stage1_1.xlsx,,B2,T1,m,"['c', 'm']","['Clue', 'Monopoly']","[-0.15, 0.5]","[0.15, 0.5]",1,1,,,,,,,,,0,0,0,0,0,2,2,2,,,,,,,,,,,,,,,,,,,,,,,,,,,,,,,,,,,,,,,,,,,,,,,,,,,,,,,622.4162939439993,None,622.4162939439993,None,622.4162939439993,None,m,1,2.0284427870010404,623.9496301109994,None,623.9496301109994,None,623.9496301109994,None,626.0496623620002,None,626.0496623620002,None,626.0496623620002,None,626.0496623620002,None,,,,,,,,,,,,,,,,,,,,,,,,,,,,,,,,,,,,,,,,,,,,001,154,2020_Feb_20_1320,spring_faces,3.2.3,60.005434932799844,
condition files/Stage1_1.xlsx,,B1,T2,c,"['c', 'm']","['Clue', 'Monopoly']","[-0.15, 0.5]","[0.15, 0.5]",1,1,,,,,,,,,0,0,0,0,0,3,3,1,,,,,,,,,,,,,,,,,,,,,,,,,,,,,,,,,,,,,,,,,,,,,,,,,,,,,,,628.0163464779998,None,628.0163464779998,None,628.0163464779998,None,m,0,0.7003696209994814,629.5496189179994,None,629.5496189179994,None,629.5496189179994,None,630.332989519,None,630.332989519,None,630.332989519,None,630.332989519,None,,,,,,,,,,,,,,,,,,,,,,,,,,,,,,,,,,,,,,,,,,,,001,154,2020_Feb_20_1320,spring_faces,3.2.3,60.005434932799844,
condition files/Stage1_1.xlsx,,T2,B2,m,"['c', 'm']","['Clue', 'Monopoly']","[-0.15, 0.5]","[0.15, 0.5]",1,1,,,,,,,,,0,0,0,0,0,4,4,3,,,,,,,,,,,,,,,,,,,,,,,,,,,,,,,,,,,,,,,,,,,,,,,,,,,,,,,632.2996014889995,None,632.2996014889995,None,632.2996014889995,None,c,0,1.5210267389993533,633.8330151310001,None,633.8330151310001,None,633.8330151310001,None,635.4329719130001,None,635.4329719130001,None,635.4329719130001,None,635.4329719130001,None,,,,,,,,,,,,,,,,,,,,,,,,,,,,,,,,,,,,,,,,,,,,001,154,2020_Feb_20_1320,spring_faces,3.2.3,60.005434932799844,
condition files/Stage1_1.xlsx,,B3,T3,c,"['c', 'm']","['Clue', 'Monopoly']","[-0.15, 0.5]","[0.15, 0.5]",1,1,,,,,,,,,0,0,0,0,0,5,5,4,,,,,,,,,,,,,,,,,,,,,,,,,,,,,,,,,,,,,,,,,,,,,,,,,,,,,,,637.399677293999,None,637.399677293999,None,637.399677293999,None,c,1,1.5730810340010066,638.932964837999,None,638.932964837999,None,638.932964837999,None,640.5829668400002,None,640.5829668400002,None,640.5829668400002,None,640.5829668400002,None,,,,,,,,,,,,,,,,,,,,,,,,,,,,,,,,,,,,,,,,,,,,001,154,2020_Feb_20_1320,spring_faces,3.2.3,60.005434932799844,
condition files/Stage1_1.xlsx,,T1,B1,c,"['c', 'm']","['Clue', 'Monopoly']","[-0.15, 0.5]","[0.15, 0.5]",1,1,,,,,,,,,0,0,0,0,0,6,6,0,,,,,,,,,,,,,,,,,,,,,,,,,,,,,,,,,,,,,,,,,,,,,,,,,,,,,,,642.549636632999,None,642.549636632999,None,642.549636632999,None,c,1,1.1911804569990636,644.0829610209985,None,644.0829610209985,None,644.0829610209985,None,645.3329865340002,None,645.3329865340002,None,645.3329865340002,None,645.3329865340002,None,,,,,,,,,,,,,,,,,,,,,,,,,,,,,,,,,,,,,,,,,,,,001,154,2020_Feb_20_1320,spring_faces,3.2.3,60.005434932799844,
condition files/Stage1_1.xlsx,,T3,B4,c,"['c', 'm']","['Clue', 'Monopoly']","[-0.15, 0.5]","[0.15, 0.5]",1,1,,,,,,,,,0,0,0,0,0,7,7,5,,,,,,,,,,,,,,,,,,,,,,,,,,,,,,,,,,,,,,,,,,,,,,,,,,,,,,,647.3163134879997,None,647.3163134879997,None,647.3163134879997,None,m,0,1.6084023889998207,648.8496607599991,None,648.8496607599991,None,648.8496607599991,None,650.5162966089993,None,650.5162966089993,None,650.5162966089993,None,650.5162966089993,None,,,,,,,,,,,,,,,,,,,,,,,,,,,,,,,,,,,,,,,,,,,,001,154,2020_Feb_20_1320,spring_faces,3.2.3,60.005434932799844,
condition files/Stage1_2.xlsx,,T2,B1,c,"['c', 'm']","['Clue', 'Monopoly']","[-0.15, 0.5]","[0.15, 0.5]",1,1,,,,,,,,,0,1,1,1,0,0,0,1,,,,,,,,,,,,,,,,,,,,,,,,,,,,,,,,,,,,,,,,,,,,,,,,,,,,,,,652.5163142419988,None,652.5163142419988,None,652.5163142419988,None,m,0,1.5764394319994608,654.0496505800002,None,654.0496505800002,None,654.0496505800002,None,655.6829132919993,None,655.6829132919993,None,655.6829132919993,None,655.6829132919993,None,,,,,,,,,,,,,,,,,,,,,,,,,,,,,,,,,,,,,,,,,,,,001,154,2020_Feb_20_1320,spring_faces,3.2.3,60.005434932799844,
condition files/Stage1_2.xlsx,,B2,T2,m,"['c', 'm']","['Clue', 'Monopoly']","[-0.15, 0.5]","[0.15, 0.5]",1,1,,,,,,,,,0,1,1,1,0,1,1,3,,,,,,,,,,,,,,,,,,,,,,,,,,,,,,,,,,,,,,,,,,,,,,,,,,,,,,,657.6662897249989,None,657.6662897249989,None,657.6662897249989,None,c,0,1.5145101430007344,659.1996319959999,None,659.1996319959999,None,659.1996319959999,None,660.7829582589984,None,660.7829582589984,None,660.7829582589984,None,660.7829582589984,None,,,,,,,,,,,,,,,,,,,,,,,,,,,,,,,,,,,,,,,,,,,,001,154,2020_Feb_20_1320,spring_faces,3.2.3,60.005434932799844,
condition files/Stage1_2.xlsx,,T3,B3,c,"['c', 'm']","['Clue', 'Monopoly']","[-0.15, 0.5]","[0.15, 0.5]",1,1,,,,,,,,,0,1,1,1,0,2,2,4,,,,,,,,,,,,,,,,,,,,,,,,,,,,,,,,,,,,,,,,,,,,,,,,,,,,,,,662.7495721719988,None,662.7495721719988,None,662.7495721719988,None,c,1,1.295202891998997,664.2829130459995,None,664.2829130459995,None,664.2829130459995,None,665.6496699489999,None,665.6496699489999,None,665.6496699489999,None,665.6496699489999,None,,,,,,,,,,,,,,,,,,,,,,,,,,,,,,,,,,,,,,,,,,,,001,154,2020_Feb_20_1320,spring_faces,3.2.3,60.005434932799844,
condition files/Stage1_2.xlsx,,T1,B2,m,"['c', 'm']","['Clue', 'Monopoly']","[-0.15, 0.5]","[0.15, 0.5]",1,1,,,,,,,,,0,1,1,1,0,3,3,2,,,,,,,,,,,,,,,,,,,,,,,,,,,,,,,,,,,,,,,,,,,,,,,,,,,,,,,667.6163430519991,None,667.6163430519991,None,667.6163430519991,None,c,0,1.9485960339989106,669.1496013719989,None,669.1496013719989,None,669.1496013719989,None,671.166333404999,None,671.166333404999,None,671.166333404999,None,671.166333404999,None,,,,,,,,,,,,,,,,,,,,,,,,,,,,,,,,,,,,,,,,,,,,001,154,2020_Feb_20_1320,spring_faces,3.2.3,60.005434932799844,
condition files/Stage1_2.xlsx,,T4,B4,m,"['c', 'm']","['Clue', 'Monopoly']","[-0.15, 0.5]","[0.15, 0.5]",1,1,,,,,,,,,0,1,1,1,0,4,4,7,,,,,,,,,,,,,,,,,,,,,,,,,,,,,,,,,,,,,,,,,,,,,,,,,,,,,,,673.132925766,None,673.132925766,None,673.132925766,None,c,0,1.1836267409998982,674.6663638269983,None,674.6663638269983,None,674.6663638269983,None,675.9162353839984,None,675.9162353839984,None,675.9162353839984,None,675.9162353839984,None,,,,,,,,,,,,,,,,,,,,,,,,,,,,,,,,,,,,,,,,,,,,001,154,2020_Feb_20_1320,spring_faces,3.2.3,60.005434932799844,
condition files/Stage1_2.xlsx,,B3,T4,m,"['c', 'm']","['Clue', 'Monopoly']","[-0.15, 0.5]","[0.15, 0.5]",1,1,,,,,,,,,0,1,1,1,0,5,5,6,,,,,,,,,,,,,,,,,,,,,,,,,,,,,,,,,,,,,,,,,,,,,,,,,,,,,,,677.899690762999,None,677.899690762999,None,677.899690762999,None,m,1,1.2651853800016397,679.4329891739999,None,679.4329891739999,None,679.4329891739999,None,680.749585308,None,680.749585308,None,680.749585308,None,680.749585308,None,,,,,,,,,,,,,,,,,,,,,,,,,,,,,,,,,,,,,,,,,,,,001,154,2020_Feb_20_1320,spring_faces,3.2.3,60.005434932799844,
condition files/Stage1_2.xlsx,,B4,T3,c,"['c', 'm']","['Clue', 'Monopoly']","[-0.15, 0.5]","[0.15, 0.5]",1,1,,,,,,,,,0,1,1,1,0,6,6,5,,,,,,,,,,,,,,,,,,,,,,,,,,,,,,,,,,,,,,,,,,,,,,,,,,,,,,,682.732872343,None,682.732872343,None,682.732872343,None,m,0,1.5836626580003212,684.2663255379994,None,684.2663255379994,None,684.2663255379994,None,685.9329709059984,None,685.9329709059984,None,685.9329709059984,None,685.9329709059984,None,,,,,,,,,,,,,,,,,,,,,,,,,,,,,,,,,,,,,,,,,,,,001,154,2020_Feb_20_1320,spring_faces,3.2.3,60.005434932799844,
condition files/Stage1_2.xlsx,,B1,T1,c,"['c', 'm']","['Clue', 'Monopoly']","[-0.15, 0.5]","[0.15, 0.5]",1,1,,,,,,,,,0,1,1,1,0,7,7,0,,,,,,,,,,,,,,,,,,,,,,,,,,,,,,,,,,,,,,,,,,,,,,,,,,,,,,,687.8995880459988,None,687.8995880459988,None,687.8995880459988,None,m,0,0.92901566799992,689.4329664359993,None,689.4329664359993,None,689.4329664359993,None,690.4163400159996,None,690.4163400159996,None,690.4163400159996,None,690.4163400159996,None,,,,,,,,,,,,,,,,,,,,,,,,,,,,,,,,,,,,,,,,,,,,001,154,2020_Feb_20_1320,spring_faces,3.2.3,60.005434932799844,
condition files/Stage1_1.xlsx,,B1,T2,c,"['c', 'm']","['Clue', 'Monopoly']","[-0.15, 0.5]","[0.15, 0.5]",1,1,,,,,,,,,0,2,2,2,0,0,0,1,,,,,,,,,,,,,,,,,,,,,,,,,,,,,,,,,,,,,,,,,,,,,,,,,,,,,,,692.4162948559988,None,692.4162948559988,None,692.4162948559988,None,c,1,0.7486184089993912,693.9495680199998,None,693.9495680199998,None,693.9495680199998,None,694.7495642129998,None,694.7495642129998,None,694.7495642129998,None,694.7495642129998,None,,,,,,,,,,,,,,,,,,,,,,,,,,,,,,,,,,,,,,,,,,,,001,154,2020_Feb_20_1320,spring_faces,3.2.3,60.005434932799844,
condition files/Stage1_1.xlsx,,B4,T4,m,"['c', 'm']","['Clue', 'Monopoly']","[-0.15, 0.5]","[0.15, 0.5]",1,1,,,,,,,,,0,2,2,2,0,1,1,7,,,,,,,,,,,,,,,,,,,,,,,,,,,,,,,,,,,,,,,,,,,,,,,,,,,,,,,696.7329341669993,None,696.7329341669993,None,696.7329341669993,None,c,0,1.0396432310008095,698.2663251659997,None,698.2663251659997,None,698.2663251659997,None,699.3829846600001,None,699.3829846600001,None,699.3829846600001,None,699.3829846600001,None,,,,,,,,,,,,,,,,,,,,,,,,,,,,,,,,,,,,,,,,,,,,001,154,2020_Feb_20_1320,spring_faces,3.2.3,60.005434932799844,
condition files/Stage1_1.xlsx,,T4,B3,m,"['c', 'm']","['Clue', 'Monopoly']","[-0.15, 0.5]","[0.15, 0.5]",1,1,,,,,,,,,0,2,2,2,0,2,2,6,,,,,,,,,,,,,,,,,,,,,,,,,,,,,,,,,,,,,,,,,,,,,,,,,,,,,,,701.349691808,None,701.349691808,None,701.349691808,None,m,1,0.4390310189992306,702.8829890439993,None,702.8829890439993,None,702.8829890439993,None,703.3996548409996,None,703.3996548409996,None,703.3996548409996,None,703.3996548409996,None,,,,,,,,,,,,,,,,,,,,,,,,,,,,,,,,,,,,,,,,,,,,001,154,2020_Feb_20_1320,spring_faces,3.2.3,60.005434932799844,
condition files/Stage1_1.xlsx,,B2,T1,m,"['c', 'm']","['Clue', 'Monopoly']","[-0.15, 0.5]","[0.15, 0.5]",1,1,,,,,,,,,0,2,2,2,0,3,3,2,,,,,,,,,,,,,,,,,,,,,,,,,,,,,,,,,,,,,,,,,,,,,,,,,,,,,,,705.3663307859988,None,705.3663307859988,None,705.3663307859988,None,m,1,0.8223780090011132,706.8996738279984,None,706.8996738279984,None,706.8996738279984,None,707.7996215799994,None,707.7996215799994,None,707.7996215799994,None,707.7996215799994,None,,,,,,,,,,,,,,,,,,,,,,,,,,,,,,,,,,,,,,,,,,,,001,154,2020_Feb_20_1320,spring_faces,3.2.3,60.005434932799844,
condition files/Stage1_1.xlsx,,T1,B1,c,"['c', 'm']","['Clue', 'Monopoly']","[-0.15, 0.5]","[0.15, 0.5]",1,1,,,,,,,,,0,2,2,2,0,4,4,0,,,,,,,,,,,,,,,,,,,,,,,,,,,,,,,,,,,,,,,,,,,,,,,,,,,,,,,709.7661907509992,None,709.7661907509992,None,709.7661907509992,None,c,1,0.31041794599877903,711.2996375399998,None,711.2996375399998,None,711.2996375399998,None,711.682967626999,None,711.682967626999,None,711.682967626999,None,711.682967626999,None,,,,,,,,,,,,,,,,,,,,,,,,,,,,,,,,,,,,,,,,,,,,001,154,2020_Feb_20_1320,spring_faces,3.2.3,60.005434932799844,
condition files/Stage1_1.xlsx,,T3,B4,c,"['c', 'm']","['Clue', 'Monopoly']","[-0.15, 0.5]","[0.15, 0.5]",1,1,,,,,,,,,0,2,2,2,0,5,5,5,,,,,,,,,,,,,,,,,,,,,,,,,,,,,,,,,,,,,,,,,,,,,,,,,,,,,,,713.6496418469997,None,713.6496418469997,None,713.6496418469997,None,m,0,0.3312026160001551,715.1829559749985,None,715.1829559749985,None,715.1829559749985,None,715.5661157429986,None,715.5661157429986,None,715.5661157429986,None,715.5661157429986,None,,,,,,,,,,,,,,,,,,,,,,,,,,,,,,,,,,,,,,,,,,,,001,154,2020_Feb_20_1320,spring_faces,3.2.3,60.005434932799844,
condition files/Stage1_1.xlsx,,T2,B2,m,"['c', 'm']","['Clue', 'Monopoly']","[-0.15, 0.5]","[0.15, 0.5]",1,1,,,,,,,,,0,2,2,2,0,6,6,3,,,,,,,,,,,,,,,,,,,,,,,,,,,,,,,,,,,,,,,,,,,,,,,,,,,,,,,717.5495674589984,None,717.5495674589984,None,717.5495674589984,None,m,1,0.3191316390002612,719.0829190709992,None,719.0829190709992,None,719.0829190709992,None,719.482851548999,None,719.482851548999,None,719.482851548999,None,719.482851548999,None,,,,,,,,,,,,,,,,,,,,,,,,,,,,,,,,,,,,,,,,,,,,001,154,2020_Feb_20_1320,spring_faces,3.2.3,60.005434932799844,
condition files/Stage1_1.xlsx,,B3,T3,c,"['c', 'm']","['Clue', 'Monopoly']","[-0.15, 0.5]","[0.15, 0.5]",1,1,,,,,,,,,0,2,2,2,0,7,7,4,,,,,,,,,,,,,,,,,,,,,,,,,,,,,,,,,,,,,,,,,,,,,,,,,,,,,,,721.4495510899997,None,721.4495510899997,None,721.4495510899997,None,c,1,0.2910853719986335,722.9829895739986,None,722.9829895739986,None,722.9829895739986,None,723.3496349819998,None,723.3496349819998,None,723.3496349819998,None,723.3496349819998,None,,,,,,,,,,,,,,,,,,,,,,,,,,,,,,,,,,,,,,,,,,,,001,154,2020_Feb_20_1320,spring_faces,3.2.3,60.005434932799844,
condition files/Stage1_2.xlsx,,B2,T2,m,"['c', 'm']","['Clue', 'Monopoly']","[-0.15, 0.5]","[0.15, 0.5]",1,1,,,,,,,,,0,3,3,3,0,0,0,3,,,,,,,,,,,,,,,,,,,,,,,,,,,,,,,,,,,,,,,,,,,,,,,,,,,,,,,725.3328996229993,None,725.3328996229993,None,725.3328996229993,None,c,0,0.3117918789994292,726.8663086959987,None,726.8663086959987,None,726.8663086959987,None,727.2496359739998,None,727.2496359739998,None,727.2496359739998,None,727.2496359739998,None,,,,,,,,,,,,,,,,,,,,,,,,,,,,,,,,,,,,,,,,,,,,001,154,2020_Feb_20_1320,spring_faces,3.2.3,60.005434932799844,
condition files/Stage1_2.xlsx,,T1,B2,m,"['c', 'm']","['Clue', 'Monopoly']","[-0.15, 0.5]","[0.15, 0.5]",1,1,,,,,,,,,0,3,3,3,0,1,1,2,,,,,,,,,,,,,,,,,,,,,,,,,,,,,,,,,,,,,,,,,,,,,,,,,,,,,,,729.2163484140001,None,729.2163484140001,None,729.2163484140001,None,c,0,0.31666923299962946,730.7495216539992,None,730.7495216539992,None,730.7495216539992,None,731.1163028209994,None,731.1163028209994,None,731.1163028209994,None,731.1163028209994,None,,,,,,,,,,,,,,,,,,,,,,,,,,,,,,,,,,,,,,,,,,,,001,154,2020_Feb_20_1320,spring_faces,3.2.3,60.005434932799844,
condition files/Stage1_2.xlsx,,B1,T1,c,"['c', 'm']","['Clue', 'Monopoly']","[-0.15, 0.5]","[0.15, 0.5]",1,1,,,,,,,,,0,3,3,3,0,2,2,0,,,,,,,,,,,,,,,,,,,,,,,,,,,,,,,,,,,,,,,,,,,,,,,,,,,,,,,733.0996834229991,None,733.0996834229991,None,733.0996834229991,None,m,0,0.3370366709987138,734.6330147389999,None,734.6330147389999,None,734.6330147389999,None,735.04966375,None,735.04966375,None,735.04966375,None,735.04966375,None,,,,,,,,,,,,,,,,,,,,,,,,,,,,,,,,,,,,,,,,,,,,001,154,2020_Feb_20_1320,spring_faces,3.2.3,60.005434932799844,
condition files/Stage1_2.xlsx,,T4,B4,m,"['c', 'm']","['Clue', 'Monopoly']","[-0.15, 0.5]","[0.15, 0.5]",1,1,,,,,,,,,0,3,3,3,0,3,3,7,,,,,,,,,,,,,,,,,,,,,,,,,,,,,,,,,,,,,,,,,,,,,,,,,,,,,,,737.0163730759996,None,737.0163730759996,None,737.0163730759996,None,c,0,0.4363761919994431,738.5496552539989,None,738.5496552539989,None,738.5496552539989,None,739.0663839069985,None,739.0663839069985,None,739.0663839069985,None,739.0663839069985,None,,,,,,,,,,,,,,,,,,,,,,,,,,,,,,,,,,,,,,,,,,,,001,154,2020_Feb_20_1320,spring_faces,3.2.3,60.005434932799844,
condition files/Stage1_2.xlsx,,B4,T3,c,"['c', 'm']","['Clue', 'Monopoly']","[-0.15, 0.5]","[0.15, 0.5]",1,1,,,,,,,,,0,3,3,3,0,4,4,5,,,,,,,,,,,,,,,,,,,,,,,,,,,,,,,,,,,,,,,,,,,,,,,,,,,,,,,741.032985251999,None,741.032985251999,None,741.032985251999,None,c,1,1.0917034930007503,742.5663613910001,None,742.5663613910001,None,742.5663613910001,None,743.7329676310001,None,743.7329676310001,None,743.7329676310001,None,743.7329676310001,None,,,,,,,,,,,,,,,,,,,,,,,,,,,,,,,,,,,,,,,,,,,,001,154,2020_Feb_20_1320,spring_faces,3.2.3,60.005434932799844,
condition files/Stage1_2.xlsx,,T3,B3,c,"['c', 'm']","['Clue', 'Monopoly']","[-0.15, 0.5]","[0.15, 0.5]",1,1,,,,,,,,,0,3,3,3,0,5,5,4,,,,,,,,,,,,,,,,,,,,,,,,,,,,,,,,,,,,,,,,,,,,,,,,,,,,,,,745.6996594550001,None,745.6996594550001,None,745.6996594550001,None,c,1,0.6811736839990772,747.2329745679999,None,747.2329745679999,None,747.2329745679999,None,747.9661782699986,None,747.9661782699986,None,747.9661782699986,None,747.9661782699986,None,,,,,,,,,,,,,,,,,,,,,,,,,,,,,,,,,,,,,,,,,,,,001,154,2020_Feb_20_1320,spring_faces,3.2.3,60.005434932799844,
condition files/Stage1_2.xlsx,,B3,T4,m,"['c', 'm']","['Clue', 'Monopoly']","[-0.15, 0.5]","[0.15, 0.5]",1,1,,,,,,,,,0,3,3,3,0,6,6,6,,,,,,,,,,,,,,,,,,,,,,,,,,,,,,,,,,,,,,,,,,,,,,,,,,,,,,,749.9496858629991,None,749.9496858629991,None,749.9496858629991,None,m,1,0.6071733659991878,751.4829335670001,None,751.4829335670001,None,751.4829335670001,None,752.1663218449994,None,752.1663218449994,None,752.1663218449994,None,752.1663218449994,None,,,,,,,,,,,,,,,,,,,,,,,,,,,,,,,,,,,,,,,,,,,,001,154,2020_Feb_20_1320,spring_faces,3.2.3,60.005434932799844,
condition files/Stage1_2.xlsx,,T2,B1,c,"['c', 'm']","['Clue', 'Monopoly']","[-0.15, 0.5]","[0.15, 0.5]",1,1,,,,,,,,,0,3,3,3,0,7,7,1,,,,,,,,,,,,,,,,,,,,,,,,,,,,,,,,,,,,,,,,,,,,,,,,,,,,,,,754.1330252619991,None,754.1330252619991,None,754.1330252619991,None,c,1,0.4557106180000119,755.666329226,None,755.666329226,None,755.666329226,None,756.1996333169991,None,756.1996333169991,None,756.1996333169991,None,756.1996333169991,None,,,,,,,,,,,,,,,,,,,,,,,,,,,,,,,,,,,,,,,,,,,,001,154,2020_Feb_20_1320,spring_faces,3.2.3,60.005434932799844,
condition files/Stage1_1.xlsx,,T1,B1,c,"['c', 'm']","['Clue', 'Monopoly']","[-0.15, 0.5]","[0.15, 0.5]",1,1,,,,,,,,,0,4,4,4,0,0,0,0,,,,,,,,,,,,,,,,,,,,,,,,,,,,,,,,,,,,,,,,,,,,,,,,,,,,,,,758.1829792129993,None,758.1829792129993,None,758.1829792129993,None,c,1,0.7897159479998663,759.7163039949992,None,759.7163039949992,None,759.7163039949992,None,760.5661056499994,None,760.5661056499994,None,760.5661056499994,None,760.5661056499994,None,,,,,,,,,,,,,,,,,,,,,,,,,,,,,,,,,,,,,,,,,,,,001,154,2020_Feb_20_1320,spring_faces,3.2.3,60.005434932799844,
condition files/Stage1_1.xlsx,,B3,T3,c,"['c', 'm']","['Clue', 'Monopoly']","[-0.15, 0.5]","[0.15, 0.5]",1,1,,,,,,,,,0,4,4,4,0,1,1,4,,,,,,,,,,,,,,,,,,,,,,,,,,,,,,,,,,,,,,,,,,,,,,,,,,,,,,,762.5496440329989,None,762.5496440329989,None,762.5496440329989,None,m,0,0.26312760499968135,764.0829903239992,None,764.0829903239992,None,764.0829903239992,None,764.3996727189988,None,764.3996727189988,None,764.3996727189988,None,764.3996727189988,None,,,,,,,,,,,,,,,,,,,,,,,,,,,,,,,,,,,,,,,,,,,,001,154,2020_Feb_20_1320,spring_faces,3.2.3,60.005434932799844,
condition files/Stage1_1.xlsx,,T3,B4,c,"['c', 'm']","['Clue', 'Monopoly']","[-0.15, 0.5]","[0.15, 0.5]",1,1,,,,,,,,,0,4,4,4,0,2,2,5,,,,,,,,,,,,,,,,,,,,,,,,,,,,,,,,,,,,,,,,,,,,,,,,,,,,,,,766.3829677479989,None,766.3829677479989,None,766.3829677479989,None,c,1,0.8618512140001258,767.9162595589987,None,767.9162595589987,None,767.9162595589987,None,768.8329881589998,None,768.8329881589998,None,768.8329881589998,None,768.8329881589998,None,,,,,,,,,,,,,,,,,,,,,,,,,,,,,,,,,,,,,,,,,,,,001,154,2020_Feb_20_1320,spring_faces,3.2.3,60.005434932799844,
condition files/Stage1_1.xlsx,,B1,T2,c,"['c', 'm']","['Clue', 'Monopoly']","[-0.15, 0.5]","[0.15, 0.5]",1,1,,,,,,,,,0,4,4,4,0,3,3,1,,,,,,,,,,,,,,,,,,,,,,,,,,,,,,,,,,,,,,,,,,,,,,,,,,,,,,,770.8163047419985,None,770.8163047419985,None,770.8163047419985,None,c,1,1.324500138998701,772.3495923350001,None,772.3495923350001,None,772.3495923350001,None,773.7329898519984,None,773.7329898519984,None,773.7329898519984,None,773.7329898519984,None,,,,,,,,,,,,,,,,,,,,,,,,,,,,,,,,,,,,,,,,,,,,001,154,2020_Feb_20_1320,spring_faces,3.2.3,60.005434932799844,
condition files/Stage1_1.xlsx,,T2,B2,m,"['c', 'm']","['Clue', 'Monopoly']","[-0.15, 0.5]","[0.15, 0.5]",1,1,,,,,,,,,0,4,4,4,0,4,4,3,,,,,,,,,,,,,,,,,,,,,,,,,,,,,,,,,,,,,,,,,,,,,,,,,,,,,,,775.7163020449989,None,775.7163020449989,None,775.7163020449989,None,c,0,0.5044246529996599,777.2496259339987,None,777.2496259339987,None,777.2496259339987,None,777.8329698739999,None,777.8329698739999,None,777.8329698739999,None,777.8329698739999,None,,,,,,,,,,,,,,,,,,,,,,,,,,,,,,,,,,,,,,,,,,,,001,154,2020_Feb_20_1320,spring_faces,3.2.3,60.005434932799844,
condition files/Stage1_1.xlsx,,T4,B3,m,"['c', 'm']","['Clue', 'Monopoly']","[-0.15, 0.5]","[0.15, 0.5]",1,1,,,,,,,,,0,4,4,4,0,5,5,6,,,,,,,,,,,,,,,,,,,,,,,,,,,,,,,,,,,,,,,,,,,,,,,,,,,,,,,779.7996676679995,None,779.7996676679995,None,779.7996676679995,None,c,0,0.34115554699928907,781.332967753,None,781.332967753,None,781.332967753,None,781.732975212999,None,781.732975212999,None,781.732975212999,None,781.732975212999,None,,,,,,,,,,,,,,,,,,,,,,,,,,,,,,,,,,,,,,,,,,,,001,154,2020_Feb_20_1320,spring_faces,3.2.3,60.005434932799844,
condition files/Stage1_1.xlsx,,B4,T4,m,"['c', 'm']","['Clue', 'Monopoly']","[-0.15, 0.5]","[0.15, 0.5]",1,1,,,,,,,,,0,4,4,4,0,6,6,7,,,,,,,,,,,,,,,,,,,,,,,,,,,,,,,,,,,,,,,,,,,,,,,,,,,,,,,783.7163510699993,None,783.7163510699993,None,783.7163510699993,None,m,1,0.37642418299947167,785.249653851999,None,785.249653851999,None,785.249653851999,None,785.6830047610001,None,785.6830047610001,None,785.6830047610001,None,785.6830047610001,None,,,,,,,,,,,,,,,,,,,,,,,,,,,,,,,,,,,,,,,,,,,,001,154,2020_Feb_20_1320,spring_faces,3.2.3,60.005434932799844,
condition files/Stage1_1.xlsx,,B2,T1,m,"['c', 'm']","['Clue', 'Monopoly']","[-0.15, 0.5]","[0.15, 0.5]",1,1,,,,,,,,,0,4,4,4,0,7,7,2,,,,,,,,,,,,,,,,,,,,,,,,,,,,,,,,,,,,,,,,,,,,,,,,,,,,,,,787.6663422349993,None,787.6663422349993,None,787.6663422349993,None,c,0,1.0665190130002884,789.1996230999994,None,789.1996230999994,None,789.1996230999994,None,790.3163216419998,None,790.3163216419998,None,790.3163216419998,None,790.3163216419998,None,,,,,,,,,,,,,,,,,,,,,,,,,,,,,,,,,,,,,,,,,,,,001,154,2020_Feb_20_1320,spring_faces,3.2.3,60.005434932799844,
condition files/Stage1_2.xlsx,,T3,B3,c,"['c', 'm']","['Clue', 'Monopoly']","[-0.15, 0.5]","[0.15, 0.5]",1,1,,,,,,,,,0,5,5,5,0,0,0,4,,,,,,,,,,,,,,,,,,,,,,,,,,,,,,,,,,,,,,,,,,,,,,,,,,,,,,,792.3162575499991,None,792.3162575499991,None,792.3162575499991,None,m,0,3.3924891280003067,793.8496274399986,None,793.8496274399986,None,793.8496274399986,None,797.3163335169993,None,797.3163335169993,None,797.3163335169993,None,797.3163335169993,None,,,,,,,,,,,,,,,,,,,,,,,,,,,,,,,,,,,,,,,,,,,,001,154,2020_Feb_20_1320,spring_faces,3.2.3,60.005434932799844,
condition files/Stage1_2.xlsx,,B2,T2,m,"['c', 'm']","['Clue', 'Monopoly']","[-0.15, 0.5]","[0.15, 0.5]",1,1,,,,,,,,,0,5,5,5,0,1,1,3,,,,,,,,,,,,,,,,,,,,,,,,,,,,,,,,,,,,,,,,,,,,,,,,,,,,,,,799.283026907,None,799.283026907,None,799.283026907,None,c,0,0.8896060440001747,800.8163271289995,None,800.8163271289995,None,800.8163271289995,None,801.7829622009995,None,801.7829622009995,None,801.7829622009995,None,801.7829622009995,None,,,,,,,,,,,,,,,,,,,,,,,,,,,,,,,,,,,,,,,,,,,,001,154,2020_Feb_20_1320,spring_faces,3.2.3,60.005434932799844,
condition files/Stage1_2.xlsx,,B3,T4,m,"['c', 'm']","['Clue', 'Monopoly']","[-0.15, 0.5]","[0.15, 0.5]",1,1,,,,,,,,,0,5,5,5,0,2,2,6,,,,,,,,,,,,,,,,,,,,,,,,,,,,,,,,,,,,,,,,,,,,,,,,,,,,,,,803.7496312359999,None,803.7496312359999,None,803.7496312359999,None,c,0,0.32711299800030247,805.2829665249992,None,805.2829665249992,None,805.2829665249992,None,805.6661878039995,None,805.6661878039995,None,805.6661878039995,None,805.6661878039995,None,,,,,,,,,,,,,,,,,,,,,,,,,,,,,,,,,,,,,,,,,,,,001,154,2020_Feb_20_1320,spring_faces,3.2.3,60.005434932799844,
condition files/Stage1_2.xlsx,,T1,B2,m,"['c', 'm']","['Clue', 'Monopoly']","[-0.15, 0.5]","[0.15, 0.5]",1,1,,,,,,,,,0,5,5,5,0,3,3,2,,,,,,,,,,,,,,,,,,,,,,,,,,,,,,,,,,,,,,,,,,,,,,,,,,,,,,,807.6496396980001,None,807.6496396980001,None,807.6496396980001,None,m,1,0.23514990099829447,809.182865630999,None,809.182865630999,None,809.182865630999,None,809.4827857319997,None,809.4827857319997,None,809.4827857319997,None,809.4827857319997,None,,,,,,,,,,,,,,,,,,,,,,,,,,,,,,,,,,,,,,,,,,,,001,154,2020_Feb_20_1320,spring_faces,3.2.3,60.005434932799844,
condition files/Stage1_2.xlsx,,T4,B4,m,"['c', 'm']","['Clue', 'Monopoly']","[-0.15, 0.5]","[0.15, 0.5]",1,1,,,,,,,,,0,5,5,5,0,4,4,7,,,,,,,,,,,,,,,,,,,,,,,,,,,,,,,,,,,,,,,,,,,,,,,,,,,,,,,811.4662959629986,None,811.4662959629986,None,811.4662959629986,None,c,0,0.2737504959986836,813.0163456219998,None,813.0163456219998,None,813.0163456219998,None,813.3663299939999,None,813.3663299939999,None,813.3663299939999,None,813.3663299939999,None,,,,,,,,,,,,,,,,,,,,,,,,,,,,,,,,,,,,,,,,,,,,001,154,2020_Feb_20_1320,spring_faces,3.2.3,60.005434932799844,
condition files/Stage1_2.xlsx,,B4,T3,c,"['c', 'm']","['Clue', 'Monopoly']","[-0.15, 0.5]","[0.15, 0.5]",1,1,,,,,,,,,0,5,5,5,0,5,5,5,,,,,,,,,,,,,,,,,,,,,,,,,,,,,,,,,,,,,,,,,,,,,,,,,,,,,,,815.3329851919989,None,815.3329851919989,None,815.3329851919989,None,m,0,0.4077147900006821,816.8663638809994,None,816.8663638809994,None,816.8663638809994,None,817.3496771099999,None,817.3496771099999,None,817.3496771099999,None,817.3496771099999,None,,,,,,,,,,,,,,,,,,,,,,,,,,,,,,,,,,,,,,,,,,,,001,154,2020_Feb_20_1320,spring_faces,3.2.3,60.005434932799844,
condition files/Stage1_2.xlsx,,T2,B1,c,"['c', 'm']","['Clue', 'Monopoly']","[-0.15, 0.5]","[0.15, 0.5]",1,1,,,,,,,,,0,5,5,5,0,6,6,1,,,,,,,,,,,,,,,,,,,,,,,,,,,,,,,,,,,,,,,,,,,,,,,,,,,,,,,819.3163564549995,None,819.3163564549995,None,819.3163564549995,None,c,1,0.42441907600004924,820.8496618419995,None,820.8496618419995,None,820.8496618419995,None,821.332966557,None,821.332966557,None,821.332966557,None,821.332966557,None,,,,,,,,,,,,,,,,,,,,,,,,,,,,,,,,,,,,,,,,,,,,001,154,2020_Feb_20_1320,spring_faces,3.2.3,60.005434932799844,
condition files/Stage1_2.xlsx,,B1,T1,c,"['c', 'm']","['Clue', 'Monopoly']","[-0.15, 0.5]","[0.15, 0.5]",1,1,,,,,,,,,0,5,5,5,0,7,7,0,,,,,,,,,,,,,,,,,,,,,,,,,,,,,,,,,,,,,,,,,,,,,,,,,,,,,,,823.3163534769992,None,823.3163534769992,None,823.3163534769992,None,m,0,1.20774208200055,824.866340523,None,824.866340523,None,824.866340523,None,826.1329818319991,None,826.1329818319991,None,826.1329818319991,None,826.1329818319991,None,,,,,,,,,,,,,,,,,,,,,,,,,,,,,,,,,,,,,,,,,,,,001,154,2020_Feb_20_1320,spring_faces,3.2.3,60.005434932799844,
condition files/Stage1_1.xlsx,,T1,B1,c,"['c', 'm']","['Clue', 'Monopoly']","[-0.15, 0.5]","[0.15, 0.5]",1,1,,,,,,,,,0,6,6,6,0,0,0,0,,,,,,,,,,,,,,,,,,,,,,,,,,,,,,,,,,,,,,,,,,,,,,,,,,,,,,,828.1329350460001,None,828.1329350460001,None,828.1329350460001,None,c,1,0.31177501100137306,829.6663265379993,None,829.6663265379993,None,829.6663265379993,None,830.0495355629992,None,830.0495355629992,None,830.0495355629992,None,830.0495355629992,None,,,,,,,,,,,,,,,,,,,,,,,,,,,,,,,,,,,,,,,,,,,,001,154,2020_Feb_20_1320,spring_faces,3.2.3,60.005434932799844,
condition files/Stage1_1.xlsx,,B2,T1,m,"['c', 'm']","['Clue', 'Monopoly']","[-0.15, 0.5]","[0.15, 0.5]",1,1,,,,,,,,,0,6,6,6,0,1,1,2,,,,,,,,,,,,,,,,,,,,,,,,,,,,,,,,,,,,,,,,,,,,,,,,,,,,,,,832.0163404809991,None,832.0163404809991,None,832.0163404809991,None,c,0,0.684431884001242,833.5495859309995,None,833.5495859309995,None,833.5495859309995,None,834.3162802930001,None,834.3162802930001,None,834.3162802930001,None,834.3162802930001,None,,,,,,,,,,,,,,,,,,,,,,,,,,,,,,,,,,,,,,,,,,,,001,154,2020_Feb_20_1320,spring_faces,3.2.3,60.005434932799844,
condition files/Stage1_1.xlsx,,T2,B2,m,"['c', 'm']","['Clue', 'Monopoly']","[-0.15, 0.5]","[0.15, 0.5]",1,1,,,,,,,,,0,6,6,6,0,2,2,3,,,,,,,,,,,,,,,,,,,,,,,,,,,,,,,,,,,,,,,,,,,,,,,,,,,,,,,836.2829320729998,None,836.2829320729998,None,836.2829320729998,None,m,1,0.5297453599996516,837.8163113039991,None,837.8163113039991,None,837.8163113039991,None,838.4163117959997,None,838.4163117959997,None,838.4163117959997,None,838.4163117959997,None,,,,,,,,,,,,,,,,,,,,,,,,,,,,,,,,,,,,,,,,,,,,001,154,2020_Feb_20_1320,spring_faces,3.2.3,60.005434932799844,
condition files/Stage1_1.xlsx,,T4,B3,m,"['c', 'm']","['Clue', 'Monopoly']","[-0.15, 0.5]","[0.15, 0.5]",1,1,,,,,,,,,0,6,6,6,0,3,3,6,,,,,,,,,,,,,,,,,,,,,,,,,,,,,,,,,,,,,,,,,,,,,,,,,,,,,,,840.3829516249989,None,840.3829516249989,None,840.3829516249989,None,m,1,0.5257869779998146,841.9162967989996,None,841.9162967989996,None,841.9162967989996,None,842.5163249469988,None,842.5163249469988,None,842.5163249469988,None,842.5163249469988,None,,,,,,,,,,,,,,,,,,,,,,,,,,,,,,,,,,,,,,,,,,,,001,154,2020_Feb_20_1320,spring_faces,3.2.3,60.005434932799844,
condition files/Stage1_1.xlsx,,B3,T3,c,"['c', 'm']","['Clue', 'Monopoly']","[-0.15, 0.5]","[0.15, 0.5]",1,1,,,,,,,,,0,6,6,6,0,4,4,4,,,,,,,,,,,,,,,,,,,,,,,,,,,,,,,,,,,,,,,,,,,,,,,,,,,,,,,844.4830262919986,None,844.4830262919986,None,844.4830262919986,None,c,1,1.1138007740009925,846.0163278939999,None,846.0163278939999,None,846.0163278939999,None,847.1996868289989,None,847.1996868289989,None,847.1996868289989,None,847.1996868289989,None,,,,,,,,,,,,,,,,,,,,,,,,,,,,,,,,,,,,,,,,,,,,001,154,2020_Feb_20_1320,spring_faces,3.2.3,60.005434932799844,
condition files/Stage1_1.xlsx,,T3,B4,c,"['c', 'm']","['Clue', 'Monopoly']","[-0.15, 0.5]","[0.15, 0.5]",1,1,,,,,,,,,0,6,6,6,0,5,5,5,,,,,,,,,,,,,,,,,,,,,,,,,,,,,,,,,,,,,,,,,,,,,,,,,,,,,,,849.1663409699995,None,849.1663409699995,None,849.1663409699995,None,m,0,1.5504209940008877,850.6996089559998,None,850.6996089559998,None,850.6996089559998,None,852.3162492389984,None,852.3162492389984,None,852.3162492389984,None,852.3162492389984,None,,,,,,,,,,,,,,,,,,,,,,,,,,,,,,,,,,,,,,,,,,,,001,154,2020_Feb_20_1320,spring_faces,3.2.3,60.005434932799844,
condition files/Stage1_1.xlsx,,B1,T2,c,"['c', 'm']","['Clue', 'Monopoly']","[-0.15, 0.5]","[0.15, 0.5]",1,1,,,,,,,,,0,6,6,6,0,6,6,1,,,,,,,,,,,,,,,,,,,,,,,,,,,,,,,,,,,,,,,,,,,,,,,,,,,,,,,854.2996924939998,None,854.2996924939998,None,854.2996924939998,None,c,1,0.6410802430000331,855.8329902179994,None,855.8329902179994,None,855.8329902179994,None,856.533002623999,None,856.533002623999,None,856.533002623999,None,856.533002623999,None,,,,,,,,,,,,,,,,,,,,,,,,,,,,,,,,,,,,,,,,,,,,001,154,2020_Feb_20_1320,spring_faces,3.2.3,60.005434932799844,
condition files/Stage1_1.xlsx,,B4,T4,m,"['c', 'm']","['Clue', 'Monopoly']","[-0.15, 0.5]","[0.15, 0.5]",1,1,,,,,,,,,0,6,6,6,0,7,7,7,,,,,,,,,,,,,,,,,,,,,,,,,,,,,,,,,,,,,,,,,,,,,,,,,,,,,,,858.5163400860001,None,858.5163400860001,None,858.5163400860001,None,c,0,0.7604433670003345,860.0496414009995,None,860.0496414009995,None,860.0496414009995,None,860.8829928499999,None,860.8829928499999,None,860.8829928499999,None,860.8829928499999,None,,,,,,,,,,,,,,,,,,,,,,,,,,,,,,,,,,,,,,,,,,,,001,154,2020_Feb_20_1320,spring_faces,3.2.3,60.005434932799844,
condition files/Stage1_2.xlsx,,B2,T2,m,"['c', 'm']","['Clue', 'Monopoly']","[-0.15, 0.5]","[0.15, 0.5]",1,1,,,,,,,,,0,7,7,7,0,0,0,3,,,,,,,,,,,,,,,,,,,,,,,,,,,,,,,,,,,,,,,,,,,,,,,,,,,,,,,862.8663282159996,None,862.8663282159996,None,862.8663282159996,None,m,1,0.3623436750003748,864.3996642659986,None,864.3996642659986,None,864.3996642659986,None,864.8163094279989,None,864.8163094279989,None,864.8163094279989,None,864.8163094279989,None,,,,,,,,,,,,,,,,,,,,,,,,,,,,,,,,,,,,,,,,,,,,001,154,2020_Feb_20_1320,spring_faces,3.2.3,60.005434932799844,
condition files/Stage1_2.xlsx,,B4,T3,c,"['c', 'm']","['Clue', 'Monopoly']","[-0.15, 0.5]","[0.15, 0.5]",1,1,,,,,,,,,0,7,7,7,0,1,1,5,,,,,,,,,,,,,,,,,,,,,,,,,,,,,,,,,,,,,,,,,,,,,,,,,,,,,,,866.7996496719988,None,866.7996496719988,None,866.7996496719988,None,m,0,0.46118412199939485,868.3329307859985,None,868.3329307859985,None,868.3329307859985,None,868.8663010889995,None,868.8663010889995,None,868.8663010889995,None,868.8663010889995,None,,,,,,,,,,,,,,,,,,,,,,,,,,,,,,,,,,,,,,,,,,,,001,154,2020_Feb_20_1320,spring_faces,3.2.3,60.005434932799844,
condition files/Stage1_2.xlsx,,T2,B1,c,"['c', 'm']","['Clue', 'Monopoly']","[-0.15, 0.5]","[0.15, 0.5]",1,1,,,,,,,,,0,7,7,7,0,2,2,1,,,,,,,,,,,,,,,,,,,,,,,,,,,,,,,,,,,,,,,,,,,,,,,,,,,,,,,870.8329863409999,None,870.8329863409999,None,870.8329863409999,None,c,1,0.47576213700085646,872.3662986709987,None,872.3662986709987,None,872.3662986709987,None,872.8996433439988,None,872.8996433439988,None,872.8996433439988,None,872.8996433439988,None,,,,,,,,,,,,,,,,,,,,,,,,,,,,,,,,,,,,,,,,,,,,001,154,2020_Feb_20_1320,spring_faces,3.2.3,60.005434932799844,
condition files/Stage1_2.xlsx,,T3,B3,c,"['c', 'm']","['Clue', 'Monopoly']","[-0.15, 0.5]","[0.15, 0.5]",1,1,,,,,,,,,0,7,7,7,0,3,3,4,,,,,,,,,,,,,,,,,,,,,,,,,,,,,,,,,,,,,,,,,,,,,,,,,,,,,,,874.8830011139999,None,874.8830011139999,None,874.8830011139999,None,c,1,0.5856862110013026,876.4163290299985,None,876.4163290299985,None,876.4163290299985,None,877.0663222959993,None,877.0663222959993,None,877.0663222959993,None,877.0663222959993,None,,,,,,,,,,,,,,,,,,,,,,,,,,,,,,,,,,,,,,,,,,,,001,154,2020_Feb_20_1320,spring_faces,3.2.3,60.005434932799844,
condition files/Stage1_2.xlsx,,B1,T1,c,"['c', 'm']","['Clue', 'Monopoly']","[-0.15, 0.5]","[0.15, 0.5]",1,1,,,,,,,,,0,7,7,7,0,4,4,0,,,,,,,,,,,,,,,,,,,,,,,,,,,,,,,,,,,,,,,,,,,,,,,,,,,,,,,879.0496772159986,None,879.0496772159986,None,879.0496772159986,None,m,0,1.2350204809990828,880.5829821589996,None,880.5829821589996,None,880.5829821589996,None,881.882927617,None,881.882927617,None,881.882927617,None,881.882927617,None,,,,,,,,,,,,,,,,,,,,,,,,,,,,,,,,,,,,,,,,,,,,001,154,2020_Feb_20_1320,spring_faces,3.2.3,60.005434932799844,
condition files/Stage1_2.xlsx,,T4,B4,m,"['c', 'm']","['Clue', 'Monopoly']","[-0.15, 0.5]","[0.15, 0.5]",1,1,,,,,,,,,0,7,7,7,0,5,5,7,,,,,,,,,,,,,,,,,,,,,,,,,,,,,,,,,,,,,,,,,,,,,,,,,,,,,,,883.8663067459984,None,883.8663067459984,None,883.8663067459984,None,m,1,0.48251222600083565,885.399640779,None,885.399640779,None,885.399640779,None,885.9495883799991,None,885.9495883799991,None,885.9495883799991,None,885.9495883799991,None,,,,,,,,,,,,,,,,,,,,,,,,,,,,,,,,,,,,,,,,,,,,001,154,2020_Feb_20_1320,spring_faces,3.2.3,60.005434932799844,
condition files/Stage1_2.xlsx,,B3,T4,m,"['c', 'm']","['Clue', 'Monopoly']","[-0.15, 0.5]","[0.15, 0.5]",1,1,,,,,,,,,0,7,7,7,0,6,6,6,,,,,,,,,,,,,,,,,,,,,,,,,,,,,,,,,,,,,,,,,,,,,,,,,,,,,,,887.9162648439997,None,887.9162648439997,None,887.9162648439997,None,m,1,0.7364042200006224,889.4496455529988,None,889.4496455529988,None,889.4496455529988,None,890.2494880799986,None,890.2494880799986,None,890.2494880799986,None,890.2494880799986,None,,,,,,,,,,,,,,,,,,,,,,,,,,,,,,,,,,,,,,,,,,,,001,154,2020_Feb_20_1320,spring_faces,3.2.3,60.005434932799844,
condition files/Stage1_2.xlsx,,T1,B2,m,"['c', 'm']","['Clue', 'Monopoly']","[-0.15, 0.5]","[0.15, 0.5]",1,1,,,,,,,,,0,7,7,7,0,7,7,2,,,,,,,,,,,,,,,,,,,,,,,,,,,,,,,,,,,,,,,,,,,,,,,,,,,,,,,892.233008055,None,892.233008055,None,892.233008055,None,m,1,0.33968345999892335,893.7663385999986,None,893.7663385999986,None,893.7663385999986,None,894.1659353089999,None,894.1659353089999,None,894.1659353089999,None,894.1659353089999,None,,,,,,,,,,,,,,,,,,,,,,,,,,,,,,,,,,,,,,,,,,,,001,154,2020_Feb_20_1320,spring_faces,3.2.3,60.005434932799844,
condition files/Stage1_1.xlsx,,B1,T2,c,"['c', 'm']","['Clue', 'Monopoly']","[-0.15, 0.5]","[0.15, 0.5]",1,1,,,,,,,,,0,8,8,8,0,0,0,1,,,,,,,,,,,,,,,,,,,,,,,,,,,,,,,,,,,,,,,,,,,,,,,,,,,,,,,896.1663046449994,None,896.1663046449994,None,896.1663046449994,None,m,0,0.45443108799918264,897.6996464449985,None,897.6996464449985,None,897.6996464449985,None,898.2323616559988,None,898.2323616559988,None,898.2323616559988,None,898.2323616559988,None,,,,,,,,,,,,,,,,,,,,,,,,,,,,,,,,,,,,,,,,,,,,001,154,2020_Feb_20_1320,spring_faces,3.2.3,60.005434932799844,
condition files/Stage1_1.xlsx,,B3,T3,c,"['c', 'm']","['Clue', 'Monopoly']","[-0.15, 0.5]","[0.15, 0.5]",1,1,,,,,,,,,0,8,8,8,0,1,1,4,,,,,,,,,,,,,,,,,,,,,,,,,,,,,,,,,,,,,,,,,,,,,,,,,,,,,,,900.1996693729998,None,900.1996693729998,None,900.1996693729998,None,c,1,1.1570347670003684,901.7330048240001,None,901.7330048240001,None,901.7330048240001,None,902.9663050089985,None,902.9663050089985,None,902.9663050089985,None,902.9663050089985,None,,,,,,,,,,,,,,,,,,,,,,,,,,,,,,,,,,,,,,,,,,,,001,154,2020_Feb_20_1320,spring_faces,3.2.3,60.005434932799844,
condition files/Stage1_1.xlsx,,T1,B1,c,"['c', 'm']","['Clue', 'Monopoly']","[-0.15, 0.5]","[0.15, 0.5]",1,1,,,,,,,,,0,8,8,8,0,2,2,0,,,,,,,,,,,,,,,,,,,,,,,,,,,,,,,,,,,,,,,,,,,,,,,,,,,,,,,904.9330104159999,None,904.9330104159999,None,904.9330104159999,None,c,1,0.3757628060011484,906.4663091949988,None,906.4663091949988,None,906.4663091949988,None,906.8995253149988,None,906.8995253149988,None,906.8995253149988,None,906.8995253149988,None,,,,,,,,,,,,,,,,,,,,,,,,,,,,,,,,,,,,,,,,,,,,001,154,2020_Feb_20_1320,spring_faces,3.2.3,60.005434932799844,
condition files/Stage1_1.xlsx,,T2,B2,m,"['c', 'm']","['Clue', 'Monopoly']","[-0.15, 0.5]","[0.15, 0.5]",1,1,,,,,,,,,0,8,8,8,0,3,3,3,,,,,,,,,,,,,,,,,,,,,,,,,,,,,,,,,,,,,,,,,,,,,,,,,,,,,,,908.8829996209988,None,908.8829996209988,None,908.8829996209988,None,m,1,0.313816150999628,910.4163199539998,None,910.4163199539998,None,910.4163199539998,None,910.7996647879991,None,910.7996647879991,None,910.7996647879991,None,910.7996647879991,None,,,,,,,,,,,,,,,,,,,,,,,,,,,,,,,,,,,,,,,,,,,,001,154,2020_Feb_20_1320,spring_faces,3.2.3,60.005434932799844,
condition files/Stage1_1.xlsx,,B4,T4,m,"['c', 'm']","['Clue', 'Monopoly']","[-0.15, 0.5]","[0.15, 0.5]",1,1,,,,,,,,,0,8,8,8,0,4,4,7,,,,,,,,,,,,,,,,,,,,,,,,,,,,,,,,,,,,,,,,,,,,,,,,,,,,,,,912.7663246859993,None,912.7663246859993,None,912.7663246859993,None,m,1,0.46231779499976255,914.2996726699985,None,914.2996726699985,None,914.2996726699985,None,914.8163042059987,None,914.8163042059987,None,914.8163042059987,None,914.8163042059987,None,,,,,,,,,,,,,,,,,,,,,,,,,,,,,,,,,,,,,,,,,,,,001,154,2020_Feb_20_1320,spring_faces,3.2.3,60.005434932799844,
condition files/Stage1_1.xlsx,,T3,B4,c,"['c', 'm']","['Clue', 'Monopoly']","[-0.15, 0.5]","[0.15, 0.5]",1,1,,,,,,,,,0,8,8,8,0,5,5,5,,,,,,,,,,,,,,,,,,,,,,,,,,,,,,,,,,,,,,,,,,,,,,,,,,,,,,,916.799686499,None,916.799686499,None,916.799686499,None,c,1,0.3332273609994445,918.3329376479996,None,918.3329376479996,None,918.3329376479996,None,918.7329238149996,None,918.7329238149996,None,918.7329238149996,None,918.7329238149996,None,,,,,,,,,,,,,,,,,,,,,,,,,,,,,,,,,,,,,,,,,,,,001,154,2020_Feb_20_1320,spring_faces,3.2.3,60.005434932799844,
condition files/Stage1_1.xlsx,,B2,T1,m,"['c', 'm']","['Clue', 'Monopoly']","[-0.15, 0.5]","[0.15, 0.5]",1,1,,,,,,,,,0,8,8,8,0,6,6,2,,,,,,,,,,,,,,,,,,,,,,,,,,,,,,,,,,,,,,,,,,,,,,,,,,,,,,,920.6995697229995,None,920.6995697229995,None,920.6995697229995,None,m,1,1.1850184930008254,922.2329700959999,None,922.2329700959999,None,922.2329700959999,None,923.4994185309988,None,923.4994185309988,None,923.4994185309988,None,923.4994185309988,None,,,,,,,,,,,,,,,,,,,,,,,,,,,,,,,,,,,,,,,,,,,,001,154,2020_Feb_20_1320,spring_faces,3.2.3,60.005434932799844,
condition files/Stage1_1.xlsx,,T4,B3,m,"['c', 'm']","['Clue', 'Monopoly']","[-0.15, 0.5]","[0.15, 0.5]",1,1,,,,,,,,,0,8,8,8,0,7,7,6,,,,,,,,,,,,,,,,,,,,,,,,,,,,,,,,,,,,,,,,,,,,,,,,,,,,,,,925.4663231329996,None,925.4663231329996,None,925.4663231329996,None,m,1,0.29039435900085664,926.9996739649996,None,926.9996739649996,None,926.9996739649996,None,927.3495322119998,None,927.3495322119998,None,927.3495322119998,None,927.3495322119998,None,,,,,,,,,,,,,,,,,,,,,,,,,,,,,,,,,,,,,,,,,,,,001,154,2020_Feb_20_1320,spring_faces,3.2.3,60.005434932799844,
condition files/Stage1_2.xlsx,,B2,T2,m,"['c', 'm']","['Clue', 'Monopoly']","[-0.15, 0.5]","[0.15, 0.5]",1,1,,,,,,,,,0,9,9,9,0,0,0,3,,,,,,,,,,,,,,,,,,,,,,,,,,,,,,,,,,,,,,,,,,,,,,,,,,,,,,,929.3496563089993,None,929.3496563089993,None,929.3496563089993,None,c,0,0.3110953060004249,930.8829915869992,None,930.8829915869992,None,930.8829915869992,None,931.2496504589999,None,931.2496504589999,None,931.2496504589999,None,931.2496504589999,None,,,,,,,,,,,,,,,,,,,,,,,,,,,,,,,,,,,,,,,,,,,,001,154,2020_Feb_20_1320,spring_faces,3.2.3,60.005434932799844,
condition files/Stage1_2.xlsx,,B3,T4,m,"['c', 'm']","['Clue', 'Monopoly']","[-0.15, 0.5]","[0.15, 0.5]",1,1,,,,,,,,,0,9,9,9,0,1,1,6,,,,,,,,,,,,,,,,,,,,,,,,,,,,,,,,,,,,,,,,,,,,,,,,,,,,,,,933.23300991,None,933.23300991,None,933.23300991,None,m,1,0.4437623089997942,934.7663197839993,None,934.7663197839993,None,934.7663197839993,None,935.2663513099997,None,935.2663513099997,None,935.2663513099997,None,935.2663513099997,None,,,,,,,,,,,,,,,,,,,,,,,,,,,,,,,,,,,,,,,,,,,,001,154,2020_Feb_20_1320,spring_faces,3.2.3,60.005434932799844,
condition files/Stage1_2.xlsx,,T3,B3,c,"['c', 'm']","['Clue', 'Monopoly']","[-0.15, 0.5]","[0.15, 0.5]",1,1,,,,,,,,,0,9,9,9,0,2,2,4,,,,,,,,,,,,,,,,,,,,,,,,,,,,,,,,,,,,,,,,,,,,,,,,,,,,,,,937.2496975019985,None,937.2496975019985,None,937.2496975019985,None,m,0,0.49110555299921543,938.7829781479995,None,938.7829781479995,None,938.7829781479995,None,939.3495466609984,None,939.3495466609984,None,939.3495466609984,None,939.3495466609984,None,,,,,,,,,,,,,,,,,,,,,,,,,,,,,,,,,,,,,,,,,,,,001,154,2020_Feb_20_1320,spring_faces,3.2.3,60.005434932799844,
condition files/Stage1_2.xlsx,,T4,B4,m,"['c', 'm']","['Clue', 'Monopoly']","[-0.15, 0.5]","[0.15, 0.5]",1,1,,,,,,,,,0,9,9,9,0,3,3,7,,,,,,,,,,,,,,,,,,,,,,,,,,,,,,,,,,,,,,,,,,,,,,,,,,,,,,,941.3163465289999,None,941.3163465289999,None,941.3163465289999,None,c,0,0.7444538680010737,942.8496336379994,None,942.8496336379994,None,942.8496336379994,None,943.6663066499987,None,943.6663066499987,None,943.6663066499987,None,943.6663066499987,None,,,,,,,,,,,,,,,,,,,,,,,,,,,,,,,,,,,,,,,,,,,,001,154,2020_Feb_20_1320,spring_faces,3.2.3,60.005434932799844,
condition files/Stage1_2.xlsx,,B1,T1,c,"['c', 'm']","['Clue', 'Monopoly']","[-0.15, 0.5]","[0.15, 0.5]",1,1,,,,,,,,,0,9,9,9,0,4,4,0,,,,,,,,,,,,,,,,,,,,,,,,,,,,,,,,,,,,,,,,,,,,,,,,,,,,,,,945.6330035909996,None,945.6330035909996,None,945.6330035909996,None,m,0,0.2676780130004772,947.1663102469993,None,947.1663102469993,None,947.1663102469993,None,947.5163052539992,None,947.5163052539992,None,947.5163052539992,None,947.5163052539992,None,,,,,,,,,,,,,,,,,,,,,,,,,,,,,,,,,,,,,,,,,,,,001,154,2020_Feb_20_1320,spring_faces,3.2.3,60.005434932799844,
condition files/Stage1_2.xlsx,,T1,B2,m,"['c', 'm']","['Clue', 'Monopoly']","[-0.15, 0.5]","[0.15, 0.5]",1,1,,,,,,,,,0,9,9,9,0,5,5,2,,,,,,,,,,,,,,,,,,,,,,,,,,,,,,,,,,,,,,,,,,,,,,,,,,,,,,,949.4829326719992,None,949.4829326719992,None,949.4829326719992,None,m,1,0.3377616929992655,951.0163075529999,None,951.0163075529999,None,951.0163075529999,None,951.4329751829991,None,951.4329751829991,None,951.4329751829991,None,951.4329751829991,None,,,,,,,,,,,,,,,,,,,,,,,,,,,,,,,,,,,,,,,,,,,,001,154,2020_Feb_20_1320,spring_faces,3.2.3,60.005434932799844,
condition files/Stage1_2.xlsx,,T2,B1,c,"['c', 'm']","['Clue', 'Monopoly']","[-0.15, 0.5]","[0.15, 0.5]",1,1,,,,,,,,,0,9,9,9,0,6,6,1,,,,,,,,,,,,,,,,,,,,,,,,,,,,,,,,,,,,,,,,,,,,,,,,,,,,,,,953.3996706549988,None,953.3996706549988,None,953.3996706549988,None,c,1,0.6451122329999635,954.9329753699985,None,954.9329753699985,None,954.9329753699985,None,955.6496470059992,None,955.6496470059992,None,955.6496470059992,None,955.6496470059992,None,,,,,,,,,,,,,,,,,,,,,,,,,,,,,,,,,,,,,,,,,,,,001,154,2020_Feb_20_1320,spring_faces,3.2.3,60.005434932799844,
condition files/Stage1_2.xlsx,,B4,T3,c,"['c', 'm']","['Clue', 'Monopoly']","[-0.15, 0.5]","[0.15, 0.5]",1,1,,,,,,,,,0,9,9,9,0,7,7,5,,,,,,,,,,,,,,,,,,,,,,,,,,,,,,,,,,,,,,,,,,,,,,,,,,,,,,,957.6163378099991,None,957.6163378099991,None,957.6163378099991,None,c,1,2.8605370309996943,959.1495836409995,None,959.1495836409995,None,959.1495836409995,None,962.0830093819986,None,962.0830093819986,None,962.0830093819986,None,962.0830093819986,None,,,,,,,,,,,,,,,,,,,,,,,,,,,,,,,,,,,,,,,,,,,,001,154,2020_Feb_20_1320,spring_faces,3.2.3,60.005434932799844,
condition files/Stage1_1.xlsx,,T3,B4,c,"['c', 'm']","['Clue', 'Monopoly']","[-0.15, 0.5]","[0.15, 0.5]",1,1,,,,,,,,,0,10,10,10,0,0,0,5,,,,,,,,,,,,,,,,,,,,,,,,,,,,,,,,,,,,,,,,,,,,,,,,,,,,,,,964.0663294400001,None,964.0663294400001,None,964.0663294400001,None,m,0,0.4424431130009907,965.5996555779984,None,965.5996555779984,None,965.5996555779984,None,966.1163256749987,None,966.1163256749987,None,966.1163256749987,None,966.1163256749987,None,,,,,,,,,,,,,,,,,,,,,,,,,,,,,,,,,,,,,,,,,,,,001,154,2020_Feb_20_1320,spring_faces,3.2.3,60.005434932799844,
condition files/Stage1_1.xlsx,,B2,T1,m,"['c', 'm']","['Clue', 'Monopoly']","[-0.15, 0.5]","[0.15, 0.5]",1,1,,,,,,,,,0,10,10,10,0,1,1,2,,,,,,,,,,,,,,,,,,,,,,,,,,,,,,,,,,,,,,,,,,,,,,,,,,,,,,,968.0830333609993,None,968.0830333609993,None,968.0830333609993,None,m,1,0.6016560650004976,969.6163314619989,None,969.6163314619989,None,969.6163314619989,None,970.2996566349993,None,970.2996566349993,None,970.2996566349993,None,970.2996566349993,None,,,,,,,,,,,,,,,,,,,,,,,,,,,,,,,,,,,,,,,,,,,,001,154,2020_Feb_20_1320,spring_faces,3.2.3,60.005434932799844,
condition files/Stage1_1.xlsx,,B4,T4,m,"['c', 'm']","['Clue', 'Monopoly']","[-0.15, 0.5]","[0.15, 0.5]",1,1,,,,,,,,,0,10,10,10,0,2,2,7,,,,,,,,,,,,,,,,,,,,,,,,,,,,,,,,,,,,,,,,,,,,,,,,,,,,,,,972.2663843539995,None,972.2663843539995,None,972.2663843539995,None,m,1,0.48249898299945926,973.7996559439998,None,973.7996559439998,None,973.7996559439998,None,974.3496607090001,None,974.3496607090001,None,974.3496607090001,None,974.3496607090001,None,,,,,,,,,,,,,,,,,,,,,,,,,,,,,,,,,,,,,,,,,,,,001,154,2020_Feb_20_1320,spring_faces,3.2.3,60.005434932799844,
condition files/Stage1_1.xlsx,,B3,T3,c,"['c', 'm']","['Clue', 'Monopoly']","[-0.15, 0.5]","[0.15, 0.5]",1,1,,,,,,,,,0,10,10,10,0,3,3,4,,,,,,,,,,,,,,,,,,,,,,,,,,,,,,,,,,,,,,,,,,,,,,,,,,,,,,,976.3163328840001,None,976.3163328840001,None,976.3163328840001,None,m,0,0.5283963029996812,977.8496793839986,None,977.8496793839986,None,977.8496793839986,None,978.449639299999,None,978.449639299999,None,978.449639299999,None,978.449639299999,None,,,,,,,,,,,,,,,,,,,,,,,,,,,,,,,,,,,,,,,,,,,,001,154,2020_Feb_20_1320,spring_faces,3.2.3,60.005434932799844,
condition files/Stage1_1.xlsx,,B1,T2,c,"['c', 'm']","['Clue', 'Monopoly']","[-0.15, 0.5]","[0.15, 0.5]",1,1,,,,,,,,,0,10,10,10,0,4,4,1,,,,,,,,,,,,,,,,,,,,,,,,,,,,,,,,,,,,,,,,,,,,,,,,,,,,,,,980.4163560729994,None,980.4163560729994,None,980.4163560729994,None,c,1,0.2844421239988151,981.9495810119988,None,981.9495810119988,None,981.9495810119988,None,982.2996018959984,None,982.2996018959984,None,982.2996018959984,None,982.2996018959984,None,,,,,,,,,,,,,,,,,,,,,,,,,,,,,,,,,,,,,,,,,,,,001,154,2020_Feb_20_1320,spring_faces,3.2.3,60.005434932799844,
condition files/Stage1_1.xlsx,,T4,B3,m,"['c', 'm']","['Clue', 'Monopoly']","[-0.15, 0.5]","[0.15, 0.5]",1,1,,,,,,,,,0,10,10,10,0,5,5,6,,,,,,,,,,,,,,,,,,,,,,,,,,,,,,,,,,,,,,,,,,,,,,,,,,,,,,,984.2828999499998,None,984.2828999499998,None,984.2828999499998,None,m,1,0.32173314099964045,985.8163084889984,None,985.8163084889984,None,985.8163084889984,None,986.216331620999,None,986.216331620999,None,986.216331620999,None,986.216331620999,None,,,,,,,,,,,,,,,,,,,,,,,,,,,,,,,,,,,,,,,,,,,,001,154,2020_Feb_20_1320,spring_faces,3.2.3,60.005434932799844,
condition files/Stage1_1.xlsx,,T2,B2,m,"['c', 'm']","['Clue', 'Monopoly']","[-0.15, 0.5]","[0.15, 0.5]",1,1,,,,,,,,,0,10,10,10,0,6,6,3,,,,,,,,,,,,,,,,,,,,,,,,,,,,,,,,,,,,,,,,,,,,,,,,,,,,,,,988.1829955849989,None,988.1829955849989,None,988.1829955849989,None,m,1,0.5336595600001601,989.7163268509994,None,989.7163268509994,None,989.7163268509994,None,990.316330579999,None,990.316330579999,None,990.316330579999,None,990.316330579999,None,,,,,,,,,,,,,,,,,,,,,,,,,,,,,,,,,,,,,,,,,,,,001,154,2020_Feb_20_1320,spring_faces,3.2.3,60.005434932799844,
condition files/Stage1_1.xlsx,,T1,B1,c,"['c', 'm']","['Clue', 'Monopoly']","[-0.15, 0.5]","[0.15, 0.5]",1,1,,,,,,,,,0,10,10,10,0,7,7,0,,,,,,,,,,,,,,,,,,,,,,,,,,,,,,,,,,,,,,,,,,,,,,,,,,,,,,,992.2996712709992,None,992.2996712709992,None,992.2996712709992,None,m,0,0.3690686940008163,993.832968061999,None,993.832968061999,None,993.832968061999,None,994.2829193939997,None,994.2829193939997,None,994.2829193939997,None,994.2829193939997,None,,,,,,,,,,,,,,,,,,,,,,,,,,,,,,,,,,,,,,,,,,,,001,154,2020_Feb_20_1320,spring_faces,3.2.3,60.005434932799844,
condition files/Stage1_2.xlsx,,T2,B1,c,"['c', 'm']","['Clue', 'Monopoly']","[-0.15, 0.5]","[0.15, 0.5]",1,1,,,,,,,,,0,11,11,11,0,0,0,1,,,,,,,,,,,,,,,,,,,,,,,,,,,,,,,,,,,,,,,,,,,,,,,,,,,,,,,996.2662913069998,None,996.2662913069998,None,996.2662913069998,None,c,1,0.3224483460016927,997.7996304479984,None,997.7996304479984,None,997.7996304479984,None,998.1828485199985,None,998.1828485199985,None,998.1828485199985,None,998.1828485199985,None,,,,,,,,,,,,,,,,,,,,,,,,,,,,,,,,,,,,,,,,,,,,001,154,2020_Feb_20_1320,spring_faces,3.2.3,60.005434932799844,
condition files/Stage1_2.xlsx,,B1,T1,c,"['c', 'm']","['Clue', 'Monopoly']","[-0.15, 0.5]","[0.15, 0.5]",1,1,,,,,,,,,0,11,11,11,0,1,1,0,,,,,,,,,,,,,,,,,,,,,,,,,,,,,,,,,,,,,,,,,,,,,,,,,,,,,,,1000.1663167719998,None,1000.1663167719998,None,1000.1663167719998,None,c,1,0.9985083249994204,1001.6996435769997,None,1001.6996435769997,None,1001.6996435769997,None,1002.749601735999,None,1002.749601735999,None,1002.749601735999,None,1002.749601735999,None,,,,,,,,,,,,,,,,,,,,,,,,,,,,,,,,,,,,,,,,,,,,001,154,2020_Feb_20_1320,spring_faces,3.2.3,60.005434932799844,
condition files/Stage1_2.xlsx,,B3,T4,m,"['c', 'm']","['Clue', 'Monopoly']","[-0.15, 0.5]","[0.15, 0.5]",1,1,,,,,,,,,0,11,11,11,0,2,2,6,,,,,,,,,,,,,,,,,,,,,,,,,,,,,,,,,,,,,,,,,,,,,,,,,,,,,,,1004.7329093689987,None,1004.7329093689987,None,1004.7329093689987,None,c,0,0.3036953310001991,1006.2663562609996,None,1006.2663562609996,None,1006.2663562609996,None,1006.6496383559988,None,1006.6496383559988,None,1006.6496383559988,None,1006.6496383559988,None,,,,,,,,,,,,,,,,,,,,,,,,,,,,,,,,,,,,,,,,,,,,001,154,2020_Feb_20_1320,spring_faces,3.2.3,60.005434932799844,
condition files/Stage1_2.xlsx,,T4,B4,m,"['c', 'm']","['Clue', 'Monopoly']","[-0.15, 0.5]","[0.15, 0.5]",1,1,,,,,,,,,0,11,11,11,0,3,3,7,,,,,,,,,,,,,,,,,,,,,,,,,,,,,,,,,,,,,,,,,,,,,,,,,,,,,,,1008.616338812999,None,1008.616338812999,None,1008.616338812999,None,m,1,0.5325242020007863,1010.1496349419995,None,1010.1496349419995,None,1010.1496349419995,None,1010.7496005590001,None,1010.7496005590001,None,1010.7496005590001,None,1010.7496005590001,None,,,,,,,,,,,,,,,,,,,,,,,,,,,,,,,,,,,,,,,,,,,,001,154,2020_Feb_20_1320,spring_faces,3.2.3,60.005434932799844,
condition files/Stage1_2.xlsx,,B4,T3,c,"['c', 'm']","['Clue', 'Monopoly']","[-0.15, 0.5]","[0.15, 0.5]",1,1,,,,,,,,,0,11,11,11,0,4,4,5,,,,,,,,,,,,,,,,,,,,,,,,,,,,,,,,,,,,,,,,,,,,,,,,,,,,,,,1012.7162823969993,None,1012.7162823969993,None,1012.7162823969993,None,m,0,0.27240030500070134,1014.2496587009991,None,1014.2496587009991,None,1014.2496587009991,None,1014.5996692689987,None,1014.5996692689987,None,1014.5996692689987,None,1014.5996692689987,None,,,,,,,,,,,,,,,,,,,,,,,,,,,,,,,,,,,,,,,,,,,,001,154,2020_Feb_20_1320,spring_faces,3.2.3,60.005434932799844,
condition files/Stage1_2.xlsx,,T3,B3,c,"['c', 'm']","['Clue', 'Monopoly']","[-0.15, 0.5]","[0.15, 0.5]",1,1,,,,,,,,,0,11,11,11,0,5,5,4,,,,,,,,,,,,,,,,,,,,,,,,,,,,,,,,,,,,,,,,,,,,,,,,,,,,,,,1016.5663664779986,None,1016.5663664779986,None,1016.5663664779986,None,c,1,0.8223877669988724,1018.0996637909993,None,1018.0996637909993,None,1018.0996637909993,None,1018.9829556389996,None,1018.9829556389996,None,1018.9829556389996,None,1018.9829556389996,None,,,,,,,,,,,,,,,,,,,,,,,,,,,,,,,,,,,,,,,,,,,,001,154,2020_Feb_20_1320,spring_faces,3.2.3,60.005434932799844,
condition files/Stage1_2.xlsx,,T1,B2,m,"['c', 'm']","['Clue', 'Monopoly']","[-0.15, 0.5]","[0.15, 0.5]",1,1,,,,,,,,,0,11,11,11,0,6,6,2,,,,,,,,,,,,,,,,,,,,,,,,,,,,,,,,,,,,,,,,,,,,,,,,,,,,,,,1020.9663641539992,None,1020.9663641539992,None,1020.9663641539992,None,c,0,0.3903890940000565,1022.499677754,None,1022.499677754,None,1022.499677754,None,1022.9663459709991,None,1022.9663459709991,None,1022.9663459709991,None,1022.9663459709991,None,,,,,,,,,,,,,,,,,,,,,,,,,,,,,,,,,,,,,,,,,,,,001,154,2020_Feb_20_1320,spring_faces,3.2.3,60.005434932799844,
condition files/Stage1_2.xlsx,,B2,T2,m,"['c', 'm']","['Clue', 'Monopoly']","[-0.15, 0.5]","[0.15, 0.5]",1,1,,,,,,,,,0,11,11,11,0,7,7,3,,,,,,,,,,,,,,,,,,,,,,,,,,,,,,,,,,,,,,,,,,,,,,,,,,,,,,,1024.933002021,None,1024.933002021,None,1024.933002021,None,m,1,0.8877552330013714,1026.466303756999,None,1026.466303756999,None,1026.466303756999,None,1027.4330010429985,None,1027.4330010429985,None,1027.4330010429985,None,1027.4330010429985,None,,,,,,,,,,,,,,,,,,,,,,,,,,,,,,,,,,,,,,,,,,,,001,154,2020_Feb_20_1320,spring_faces,3.2.3,60.005434932799844,
,,,,,,,,,,,,,,,,,,,,,,,,,,,,,,,,,,,,,,,,,,,,,,,,,,,,,,,,,,,,,,,,,,,,,,,,,,,,,,,,,,,,,,,,,,,,,,,,,,,,,,,,,,,,,,,,1029.3996238759992,None,space,3.9471911010004987,1034.3829576379994,None,,,,,,,,,,,,,,,,,,,,,,,,,,,,,,001,154,2020_Feb_20_1320,spring_faces,3.2.3,60.005434932799844,
condition files/Stage2_1.xlsx,,T3,B3,s,"['s', 'r']","['Stratego', 'Risk']","[-0.15, 0.5]","[0.15, 0.5]",1,1,,,,,,,,,,,,,,,,,0,0,0,0,0,0,0,4,,,,,,,,,,,,,,,,,,,,,,,,,,,,,,,,,,,,,,,,,,,,,,,1038.3829732349986,None,1038.3829732349986,None,1038.3829732349986,None,s,1,0.5265187539989711,1039.8996046069988,None,1039.8996046069988,None,1039.8996046069988,None,1040.499639493999,None,1040.499639493999,None,1040.499639493999,None,1040.499639493999,None,,,,,,,,,,,,,,,1034.3829576379994,None,,,,,,,,,,,,,,,,,,,,,,,,,,,,001,154,2020_Feb_20_1320,spring_faces,3.2.3,60.005434932799844,
condition files/Stage2_1.xlsx,,B2,T2,r,"['s', 'r']","['Stratego', 'Risk']","[-0.15, 0.5]","[0.15, 0.5]",1,1,,,,,,,,,,,,,,,,,0,0,0,0,0,1,1,3,,,,,,,,,,,,,,,,,,,,,,,,,,,,,,,,,,,,,,,,,,,,,,,1042.466324731,None,1042.466324731,None,1042.466324731,None,s,0,0.8264222359994164,1043.9996422309996,None,1043.9996422309996,None,1043.9996422309996,None,1044.8996688119987,None,1044.8996688119987,None,1044.8996688119987,None,1044.8996688119987,None,,,,,,,,,,,,,,,,,,,,,,,,,,,,,,,,,,,,,,,,,,,,001,154,2020_Feb_20_1320,spring_faces,3.2.3,60.005434932799844,
condition files/Stage2_1.xlsx,,B6,T6,r,"['s', 'r']","['Stratego', 'Risk']","[-0.15, 0.5]","[0.15, 0.5]",1,1,,,,,,,,,,,,,,,,,0,0,0,0,0,2,2,1,,,,,,,,,,,,,,,,,,,,,,,,,,,,,,,,,,,,,,,,,,,,,,,1046.8663691949987,None,1046.8663691949987,None,1046.8663691949987,None,r,1,7.226424427999518,1048.3996557689989,None,1048.3996557689989,None,1048.3996557689989,None,1055.682971282,None,1055.682971282,None,1055.682971282,None,1055.682971282,None,,,,,,,,,,,,,,,,,,,,,,,,,,,,,,,,,,,,,,,,,,,,001,154,2020_Feb_20_1320,spring_faces,3.2.3,60.005434932799844,
condition files/Stage2_1.xlsx,,T1,B1,s,"['s', 'r']","['Stratego', 'Risk']","[-0.15, 0.5]","[0.15, 0.5]",1,1,,,,,,,,,,,,,,,,,0,0,0,0,0,3,3,2,,,,,,,,,,,,,,,,,,,,,,,,,,,,,,,,,,,,,,,,,,,,,,,1057.6663676129992,None,1057.6663676129992,None,1057.6663676129992,None,s,1,0.538440238999101,1059.1996370139987,None,1059.1996370139987,None,1059.1996370139987,None,1059.8163531329992,None,1059.8163531329992,None,1059.8163531329992,None,1059.8163531329992,None,,,,,,,,,,,,,,,,,,,,,,,,,,,,,,,,,,,,,,,,,,,,001,154,2020_Feb_20_1320,spring_faces,3.2.3,60.005434932799844,
condition files/Stage2_1.xlsx,,B4,T4,r,"['s', 'r']","['Stratego', 'Risk']","[-0.15, 0.5]","[0.15, 0.5]",1,1,,,,,,,,,,,,,,,,,0,0,0,0,0,4,4,5,,,,,,,,,,,,,,,,,,,,,,,,,,,,,,,,,,,,,,,,,,,,,,,1061.7830206239996,None,1061.7830206239996,None,1061.7830206239996,None,r,1,0.42173970700059726,1063.3163164199996,None,1063.3163164199996,None,1063.3163164199996,None,1063.8163109289999,None,1063.8163109289999,None,1063.8163109289999,None,1063.8163109289999,None,,,,,,,,,,,,,,,,,,,,,,,,,,,,,,,,,,,,,,,,,,,,001,154,2020_Feb_20_1320,spring_faces,3.2.3,60.005434932799844,
condition files/Stage2_1.xlsx,,T5,B5,s,"['s', 'r']","['Stratego', 'Risk']","[-0.15, 0.5]","[0.15, 0.5]",1,1,,,,,,,,,,,,,,,,,0,0,0,0,0,5,5,0,,,,,,,,,,,,,,,,,,,,,,,,,,,,,,,,,,,,,,,,,,,,,,,1065.783023853999,None,1065.783023853999,None,1065.783023853999,None,r,0,0.32584290700106067,1067.3163071539984,None,1067.3163071539984,None,1067.3163071539984,None,1067.7163381239989,None,1067.7163381239989,None,1067.7163381239989,None,1067.7163381239989,None,,,,,,,,,,,,,,,,,,,,,,,,,,,,,,,,,,,,,,,,,,,,001,154,2020_Feb_20_1320,spring_faces,3.2.3,60.005434932799844,
condition files/Stage2_2.xlsx,,T2,B2,r,"['s', 'r']","['Stratego', 'Risk']","[-0.15, 0.5]","[0.15, 0.5]",1,1,,,,,,,,,,,,,,,,,0,1,1,1,0,0,0,3,,,,,,,,,,,,,,,,,,,,,,,,,,,,,,,,,,,,,,,,,,,,,,,1069.6996632399987,None,1069.6996632399987,None,1069.6996632399987,None,r,1,0.569051346001288,1071.2329945889996,None,1071.2329945889996,None,1071.2329945889996,None,1071.8829420490001,None,1071.8829420490001,None,1071.8829420490001,None,1071.8829420490001,None,,,,,,,,,,,,,,,,,,,,,,,,,,,,,,,,,,,,,,,,,,,,001,154,2020_Feb_20_1320,spring_faces,3.2.3,60.005434932799844,
condition files/Stage2_2.xlsx,,T6,B6,r,"['s', 'r']","['Stratego', 'Risk']","[-0.15, 0.5]","[0.15, 0.5]",1,1,,,,,,,,,,,,,,,,,0,1,1,1,0,1,1,1,,,,,,,,,,,,,,,,,,,,,,,,,,,,,,,,,,,,,,,,,,,,,,,1073.8497016089987,None,1073.8497016089987,None,1073.8497016089987,None,s,0,0.3550616349984921,1075.3829917679996,None,1075.3829917679996,None,1075.3829917679996,None,1075.8163015069986,None,1075.8163015069986,None,1075.8163015069986,None,1075.8163015069986,None,,,,,,,,,,,,,,,,,,,,,,,,,,,,,,,,,,,,,,,,,,,,001,154,2020_Feb_20_1320,spring_faces,3.2.3,60.005434932799844,
condition files/Stage2_2.xlsx,,B1,T1,s,"['s', 'r']","['Stratego', 'Risk']","[-0.15, 0.5]","[0.15, 0.5]",1,1,,,,,,,,,,,,,,,,,0,1,1,1,0,2,2,2,,,,,,,,,,,,,,,,,,,,,,,,,,,,,,,,,,,,,,,,,,,,,,,1077.7829893919989,None,1077.7829893919989,None,1077.7829893919989,None,r,0,0.48571228999935556,1079.3163205469991,None,1079.3163205469991,None,1079.3163205469991,None,1079.882995857999,None,1079.882995857999,None,1079.882995857999,None,1079.882995857999,None,,,,,,,,,,,,,,,,,,,,,,,,,,,,,,,,,,,,,,,,,,,,001,154,2020_Feb_20_1320,spring_faces,3.2.3,60.005434932799844,
condition files/Stage2_2.xlsx,,T4,B4,r,"['s', 'r']","['Stratego', 'Risk']","[-0.15, 0.5]","[0.15, 0.5]",1,1,,,,,,,,,,,,,,,,,0,1,1,1,0,3,3,5,,,,,,,,,,,,,,,,,,,,,,,,,,,,,,,,,,,,,,,,,,,,,,,1081.8496982789984,None,1081.8496982789984,None,1081.8496982789984,None,s,0,1.2030471680009214,1083.3830228009992,None,1083.3830228009992,None,1083.3830228009992,None,1084.666393005,None,1084.666393005,None,1084.666393005,None,1084.666393005,None,,,,,,,,,,,,,,,,,,,,,,,,,,,,,,,,,,,,,,,,,,,,001,154,2020_Feb_20_1320,spring_faces,3.2.3,60.005434932799844,
condition files/Stage2_2.xlsx,,B5,T5,s,"['s', 'r']","['Stratego', 'Risk']","[-0.15, 0.5]","[0.15, 0.5]",1,1,,,,,,,,,,,,,,,,,0,1,1,1,0,4,4,0,,,,,,,,,,,,,,,,,,,,,,,,,,,,,,,,,,,,,,,,,,,,,,,1086.6330234729994,None,1086.6330234729994,None,1086.6330234729994,None,s,1,0.8037167019992921,1088.166369774999,None,1088.166369774999,None,1088.166369774999,None,1089.0496681589993,None,1089.0496681589993,None,1089.0496681589993,None,1089.0496681589993,None,,,,,,,,,,,,,,,,,,,,,,,,,,,,,,,,,,,,,,,,,,,,001,154,2020_Feb_20_1320,spring_faces,3.2.3,60.005434932799844,
condition files/Stage2_2.xlsx,,B3,T3,s,"['s', 'r']","['Stratego', 'Risk']","[-0.15, 0.5]","[0.15, 0.5]",1,1,,,,,,,,,,,,,,,,,0,1,1,1,0,5,5,4,,,,,,,,,,,,,,,,,,,,,,,,,,,,,,,,,,,,,,,,,,,,,,,1091.01632943,None,1091.01632943,None,1091.01632943,None,r,0,0.500356976999683,1092.5496625469987,None,1092.5496625469987,None,1092.5496625469987,None,1093.1162672849987,None,1093.1162672849987,None,1093.1162672849987,None,1093.1162672849987,None,,,,,,,,,,,,,,,,,,,,,,,,,,,,,,,,,,,,,,,,,,,,001,154,2020_Feb_20_1320,spring_faces,3.2.3,60.005434932799844,
condition files/Stage2_1.xlsx,,B2,T2,r,"['s', 'r']","['Stratego', 'Risk']","[-0.15, 0.5]","[0.15, 0.5]",1,1,,,,,,,,,,,,,,,,,0,2,2,2,0,0,0,3,,,,,,,,,,,,,,,,,,,,,,,,,,,,,,,,,,,,,,,,,,,,,,,1095.1162732199991,None,1095.1162732199991,None,1095.1162732199991,None,s,0,0.4964971280005557,1096.6496466379995,None,1096.6496466379995,None,1096.6496466379995,None,1097.2163247919998,None,1097.2163247919998,None,1097.2163247919998,None,1097.2163247919998,None,,,,,,,,,,,,,,,,,,,,,,,,,,,,,,,,,,,,,,,,,,,,001,154,2020_Feb_20_1320,spring_faces,3.2.3,60.005434932799844,
condition files/Stage2_1.xlsx,,T5,B5,s,"['s', 'r']","['Stratego', 'Risk']","[-0.15, 0.5]","[0.15, 0.5]",1,1,,,,,,,,,,,,,,,,,0,2,2,2,0,1,1,0,,,,,,,,,,,,,,,,,,,,,,,,,,,,,,,,,,,,,,,,,,,,,,,1099.1830044479993,None,1099.1830044479993,None,1099.1830044479993,None,s,1,0.3337248299994826,1100.7162778419988,None,1100.7162778419988,None,1100.7162778419988,None,1101.132996754999,None,1101.132996754999,None,1101.132996754999,None,1101.132996754999,None,,,,,,,,,,,,,,,,,,,,,,,,,,,,,,,,,,,,,,,,,,,,001,154,2020_Feb_20_1320,spring_faces,3.2.3,60.005434932799844,
condition files/Stage2_1.xlsx,,B4,T4,r,"['s', 'r']","['Stratego', 'Risk']","[-0.15, 0.5]","[0.15, 0.5]",1,1,,,,,,,,,,,,,,,,,0,2,2,2,0,2,2,5,,,,,,,,,,,,,,,,,,,,,,,,,,,,,,,,,,,,,,,,,,,,,,,1103.099497829,None,1103.099497829,None,1103.099497829,None,s,0,0.24108060800062958,1104.632999288,None,1104.632999288,None,1104.632999288,None,1104.9496630169997,None,1104.9496630169997,None,1104.9496630169997,None,1104.9496630169997,None,,,,,,,,,,,,,,,,,,,,,,,,,,,,,,,,,,,,,,,,,,,,001,154,2020_Feb_20_1320,spring_faces,3.2.3,60.005434932799844,
condition files/Stage2_1.xlsx,,B6,T6,r,"['s', 'r']","['Stratego', 'Risk']","[-0.15, 0.5]","[0.15, 0.5]",1,1,,,,,,,,,,,,,,,,,0,2,2,2,0,3,3,1,,,,,,,,,,,,,,,,,,,,,,,,,,,,,,,,,,,,,,,,,,,,,,,1106.9163449709995,None,1106.9163449709995,None,1106.9163449709995,None,r,1,0.47237711799971294,1108.4496774299987,None,1108.4496774299987,None,1108.4496774299987,None,1108.9996671529989,None,1108.9996671529989,None,1108.9996671529989,None,1108.9996671529989,None,,,,,,,,,,,,,,,,,,,,,,,,,,,,,,,,,,,,,,,,,,,,001,154,2020_Feb_20_1320,spring_faces,3.2.3,60.005434932799844,
condition files/Stage2_1.xlsx,,T3,B3,s,"['s', 'r']","['Stratego', 'Risk']","[-0.15, 0.5]","[0.15, 0.5]",1,1,,,,,,,,,,,,,,,,,0,2,2,2,0,4,4,4,,,,,,,,,,,,,,,,,,,,,,,,,,,,,,,,,,,,,,,,,,,,,,,1110.9663698139993,None,1110.9663698139993,None,1110.9663698139993,None,s,1,0.5183591500008333,1112.4996660709985,None,1112.4996660709985,None,1112.4996660709985,None,1113.0996471479993,None,1113.0996471479993,None,1113.0996471479993,None,1113.0996471479993,None,,,,,,,,,,,,,,,,,,,,,,,,,,,,,,,,,,,,,,,,,,,,001,154,2020_Feb_20_1320,spring_faces,3.2.3,60.005434932799844,
condition files/Stage2_1.xlsx,,T1,B1,s,"['s', 'r']","['Stratego', 'Risk']","[-0.15, 0.5]","[0.15, 0.5]",1,1,,,,,,,,,,,,,,,,,0,2,2,2,0,5,5,2,,,,,,,,,,,,,,,,,,,,,,,,,,,,,,,,,,,,,,,,,,,,,,,1115.0664345229998,None,1115.0664345229998,None,1115.0664345229998,None,r,0,0.9944472450006288,1116.59964201,None,1116.59964201,None,1116.59964201,None,1117.6496807589992,None,1117.6496807589992,None,1117.6496807589992,None,1117.6496807589992,None,,,,,,,,,,,,,,,,,,,,,,,,,,,,,,,,,,,,,,,,,,,,001,154,2020_Feb_20_1320,spring_faces,3.2.3,60.005434932799844,
condition files/Stage2_2.xlsx,,T4,B4,r,"['s', 'r']","['Stratego', 'Risk']","[-0.15, 0.5]","[0.15, 0.5]",1,1,,,,,,,,,,,,,,,,,0,3,3,3,0,0,0,5,,,,,,,,,,,,,,,,,,,,,,,,,,,,,,,,,,,,,,,,,,,,,,,1119.6496056729993,None,1119.6496056729993,None,1119.6496056729993,None,r,1,1.7555691720008326,1121.1825171799992,None,1121.1825171799992,None,1121.1825171799992,None,1123.0163341869993,None,1123.0163341869993,None,1123.0163341869993,None,1123.0163341869993,None,,,,,,,,,,,,,,,,,,,,,,,,,,,,,,,,,,,,,,,,,,,,001,154,2020_Feb_20_1320,spring_faces,3.2.3,60.005434932799844,
condition files/Stage2_2.xlsx,,T6,B6,r,"['s', 'r']","['Stratego', 'Risk']","[-0.15, 0.5]","[0.15, 0.5]",1,1,,,,,,,,,,,,,,,,,0,3,3,3,0,1,1,1,,,,,,,,,,,,,,,,,,,,,,,,,,,,,,,,,,,,,,,,,,,,,,,1124.983040359999,None,1124.983040359999,None,1124.983040359999,None,s,0,0.4697245010011102,1126.5163385179985,None,1126.5163385179985,None,1126.5163385179985,None,1127.0664262859991,None,1127.0664262859991,None,1127.0664262859991,None,1127.0664262859991,None,,,,,,,,,,,,,,,,,,,,,,,,,,,,,,,,,,,,,,,,,,,,001,154,2020_Feb_20_1320,spring_faces,3.2.3,60.005434932799844,
condition files/Stage2_2.xlsx,,B1,T1,s,"['s', 'r']","['Stratego', 'Risk']","[-0.15, 0.5]","[0.15, 0.5]",1,1,,,,,,,,,,,,,,,,,0,3,3,3,0,2,2,2,,,,,,,,,,,,,,,,,,,,,,,,,,,,,,,,,,,,,,,,,,,,,,,1129.0330278009988,None,1129.0330278009988,None,1129.0330278009988,None,r,0,2.787736054000561,1130.5663282739988,None,1130.5663282739988,None,1130.5663282739988,None,1133.432978293,None,1133.432978293,None,1133.432978293,None,1133.432978293,None,,,,,,,,,,,,,,,,,,,,,,,,,,,,,,,,,,,,,,,,,,,,001,154,2020_Feb_20_1320,spring_faces,3.2.3,60.005434932799844,
condition files/Stage2_2.xlsx,,B3,T3,s,"['s', 'r']","['Stratego', 'Risk']","[-0.15, 0.5]","[0.15, 0.5]",1,1,,,,,,,,,,,,,,,,,0,3,3,3,0,3,3,4,,,,,,,,,,,,,,,,,,,,,,,,,,,,,,,,,,,,,,,,,,,,,,,1135.3996429219987,None,1135.3996429219987,None,1135.3996429219987,None,r,0,1.9890881440005614,1136.932972474,None,1136.932972474,None,1136.932972474,None,1138.999663351,None,1138.999663351,None,1138.999663351,None,1138.999663351,None,,,,,,,,,,,,,,,,,,,,,,,,,,,,,,,,,,,,,,,,,,,,001,154,2020_Feb_20_1320,spring_faces,3.2.3,60.005434932799844,
condition files/Stage2_2.xlsx,,T2,B2,r,"['s', 'r']","['Stratego', 'Risk']","[-0.15, 0.5]","[0.15, 0.5]",1,1,,,,,,,,,,,,,,,,,0,3,3,3,0,4,4,3,,,,,,,,,,,,,,,,,,,,,,,,,,,,,,,,,,,,,,,,,,,,,,,1140.966366908,None,1140.966366908,None,1140.966366908,None,r,1,0.5664495569999417,1142.4996866909987,None,1142.4996866909987,None,1142.4996866909987,None,1143.1329185249997,None,1143.1329185249997,None,1143.1329185249997,None,1143.1329185249997,None,,,,,,,,,,,,,,,,,,,,,,,,,,,,,,,,,,,,,,,,,,,,001,154,2020_Feb_20_1320,spring_faces,3.2.3,60.005434932799844,
condition files/Stage2_2.xlsx,,B5,T5,s,"['s', 'r']","['Stratego', 'Risk']","[-0.15, 0.5]","[0.15, 0.5]",1,1,,,,,,,,,,,,,,,,,0,3,3,3,0,5,5,0,,,,,,,,,,,,,,,,,,,,,,,,,,,,,,,,,,,,,,,,,,,,,,,1145.099571441,None,1145.099571441,None,1145.099571441,None,s,1,0.32108458599941514,1146.6329690459988,None,1146.6329690459988,None,1146.6329690459988,None,1147.0329909379998,None,1147.0329909379998,None,1147.0329909379998,None,1147.0329909379998,None,,,,,,,,,,,,,,,,,,,,,,,,,,,,,,,,,,,,,,,,,,,,001,154,2020_Feb_20_1320,spring_faces,3.2.3,60.005434932799844,
condition files/Stage2_1.xlsx,,B4,T4,r,"['s', 'r']","['Stratego', 'Risk']","[-0.15, 0.5]","[0.15, 0.5]",1,1,,,,,,,,,,,,,,,,,0,4,4,4,0,0,0,5,,,,,,,,,,,,,,,,,,,,,,,,,,,,,,,,,,,,,,,,,,,,,,,1149.0163291169993,None,1149.0163291169993,None,1149.0163291169993,None,s,0,0.4843470490013715,1150.5496678869986,None,1150.5496678869986,None,1150.5496678869986,None,1151.1163144949987,None,1151.1163144949987,None,1151.1163144949987,None,1151.1163144949987,None,,,,,,,,,,,,,,,,,,,,,,,,,,,,,,,,,,,,,,,,,,,,001,154,2020_Feb_20_1320,spring_faces,3.2.3,60.005434932799844,
condition files/Stage2_1.xlsx,,T1,B1,s,"['s', 'r']","['Stratego', 'Risk']","[-0.15, 0.5]","[0.15, 0.5]",1,1,,,,,,,,,,,,,,,,,0,4,4,4,0,1,1,2,,,,,,,,,,,,,,,,,,,,,,,,,,,,,,,,,,,,,,,,,,,,,,,1153.0829324159986,None,1153.0829324159986,None,1153.0829324159986,None,s,1,0.9138743130006333,1154.6162873639987,None,1154.6162873639987,None,1154.6162873639987,None,1155.5996413859993,None,1155.5996413859993,None,1155.5996413859993,None,1155.5996413859993,None,,,,,,,,,,,,,,,,,,,,,,,,,,,,,,,,,,,,,,,,,,,,001,154,2020_Feb_20_1320,spring_faces,3.2.3,60.005434932799844,
condition files/Stage2_1.xlsx,,T5,B5,s,"['s', 'r']","['Stratego', 'Risk']","[-0.15, 0.5]","[0.15, 0.5]",1,1,,,,,,,,,,,,,,,,,0,4,4,4,0,2,2,0,,,,,,,,,,,,,,,,,,,,,,,,,,,,,,,,,,,,,,,,,,,,,,,1157.5663209079994,None,1157.5663209079994,None,1157.5663209079994,None,r,0,1.4865014530005283,1159.099592913999,None,1159.099592913999,None,1159.099592913999,None,1160.6496601549989,None,1160.6496601549989,None,1160.6496601549989,None,1160.6496601549989,None,,,,,,,,,,,,,,,,,,,,,,,,,,,,,,,,,,,,,,,,,,,,001,154,2020_Feb_20_1320,spring_faces,3.2.3,60.005434932799844,
