condsFile,subStage,cue1,cue2,correct,responseKeys,responseNames,cue1Position,cue2Position,cue1Opacity,cue2Opacity,stageLoop0.thisRepN,stageLoop0.thisTrialN,stageLoop0.thisN,stageLoop0.thisIndex,blockLoop0.thisRepN,blockLoop0.thisTrialN,blockLoop0.thisN,blockLoop0.thisIndex,stage1Loop.thisRepN,stage1Loop.thisTrialN,stage1Loop.thisN,stage1Loop.thisIndex,blockLoop1.thisRepN,blockLoop1.thisTrialN,blockLoop1.thisN,blockLoop1.thisIndex,stage2Loop.thisRepN,stage2Loop.thisTrialN,stage2Loop.thisN,stage2Loop.thisIndex,blockLoop2.thisRepN,blockLoop2.thisTrialN,blockLoop2.thisN,blockLoop2.thisIndex,testLoop.thisRepN,testLoop.thisTrialN,testLoop.thisN,testLoop.thisIndex,blockLoopTest.thisRepN,blockLoopTest.thisTrialN,blockLoopTest.thisN,blockLoopTest.thisIndex,cuePics,id_instr_text.started,id_instr_text.stopped,space_to_continue_2.started,space_to_continue_2.stopped,end_instructions_resp_3.keys,end_instructions_resp_3.rt,end_instructions_resp_3.started,end_instructions_resp_3.stopped,id_input_instr.started,id_input_instr.stopped,id_input_rect.started,id_input_rect.stopped,id_input_resp.keys,id_input_resp.rt,id_input_resp.started,id_input_resp.stopped,sonaID,id_input_text.started,id_input_text.stopped,final_text.started,final_text.stopped,instructions.started,instructions.stopped,end_instructions_resp.keys,end_instructions_resp.rt,end_instructions_resp.started,end_instructions_resp.stopped,space_to_continue.started,space_to_continue.stopped,instructions_stage0.started,instructions_stage0.stopped,end_instructions_resp_stage0.keys,end_instructions_resp_stage0.rt,end_instructions_resp_stage0.started,end_instructions_resp_stage0.stopped,space_to_continue_stage0.started,space_to_continue_stage0.stopped,text.started,text.stopped,resp_text1.started,resp_text1.stopped,resp_text2.started,resp_text2.stopped,trial_resp.keys,trial_resp.corr,trial_resp.rt,trial_resp.started,trial_resp.stopped,cue1Image.started,cue1Image.stopped,cue2Image.started,cue2Image.stopped,cue1Image_fb.started,cue1Image_fb.stopped,cue2Image_fb.started,cue2Image_fb.stopped,fb_text_answer.started,fb_text_answer.stopped,feedback_image.started,feedback_image.stopped,instructions_stage1.started,instructions_stage1.stopped,end_instructions_resp_stage1.keys,end_instructions_resp_stage1.rt,end_instructions_resp_stage1.started,end_instructions_resp_stage1.stopped,space_to_continue_stage1.started,space_to_continue_stage1.stopped,instructions_2.started,instructions_2.stopped,end_instructions_resp_2.keys,end_instructions_resp_2.rt,end_instructions_resp_2.started,end_instructions_resp_2.stopped,press_space_to_continue_stage2.started,press_space_to_continue_stage2.stopped,instructions_testStage1.started,instructions_testStage1.stopped,end_instructions_resp_test1.keys,end_instructions_resp_test1.rt,end_instructions_resp_test1.started,end_instructions_resp_test1.stopped,press_space_to_continue_test1.started,press_space_to_continue_test1.stopped,cue1Image_testChoice.started,cue1Image_testChoice.stopped,cue2Image_testChoice.started,cue2Image_testChoice.stopped,test_resp.keys,test_resp.corr,test_resp.rt,test_resp.started,test_resp.stopped,cue1Image_testConf.started,cue1Image_testConf.stopped,cue2Image_testConf.started,cue2Image_testConf.stopped,conf_reminder.started,conf_reminder.stopped,conf_rating.response,conf_rating.rt,conf_rating.started,conf_rating.stopped,session,participant,date,expName,psychopyVersion,frameRate,
,,,,,,,,,,,,,,,,,,,,,,,,,,,,,,,,,,,,,,,,,,,"{'none': 'pictures/20M_AN_C.png', 'alpha': 'pictures/SHINEd_apple.png', 'beta': 'pictures/SHINEd_pear.png', 'theta': 'pictures/SHINEd_pepper.png', 'phi': 'pictures/SHINEd_melon.png', 'T1': 'pictures/32M_AN_C.png', 'T2': 'pictures/26M_AN_C.png', 'T3': 'pictures/34M_AN_C.png', 'T4': 'pictures/31M_AN_C.png', 'T5': 'pictures/33M_AN_C.png', 'T6': 'pictures/38M_AN_C.png', 'B1': 'pictures/20M_NE_C.png', 'B2': 'pictures/36M_NE_C.png', 'B3': 'pictures/22M_NE_C.png', 'B4': 'pictures/37M_NE_C.png', 'B5': 'pictures/23M_NE_C.png', 'B6': 'pictures/25M_NE_C.png'}",12.025695468000777,None,17.0087610770006,None,space,314.0554267309999,17.0087610770006,None,,,,,,,,,,,,,,,,,,,,,,,,,,,,,,,,,,,,,,,,,,,,,,,,,,,,,,,,,,,,,,,,,,,,,,,,,,,,,,,,,,,,,,,,,,,,,,,,001,155,2020_Feb_20_1321,spring_faces,3.1.5,59.78607466337598,
,,,,,,,,,,,,,,,,,,,,,,,,,,,,,,,,,,,,,,,,,,,,,,,,,,,,331.4586168630012,None,331.4586168630012,None,"['0', '3', '0', '7', 's', 'e', 'h', 'backspace', 'backspace', 'backspace', 'c', 'a', 's', 'e', 'h']","[10.069595649998519, 11.077569507999215, 15.989620876998742, 16.421619180999187, 20.75757197099847, 21.093671660999462, 21.477606422999088, 45.97360016199855, 46.19755630100008, 46.56559927999842, 49.47760911499972, 49.63760968099996, 50.14959577599984, 50.34165151399975, 50.53357791799863]",331.4586168630012,None,,,,,,,,,,,,,,,,,,,,,,,,,,,,,,,,,,,,,,,,,,,,,,,,,,,,,,,,,,,,,,,,,,,,,,,,,,,,,,,,,,,,,,,,001,155,2020_Feb_20_1321,spring_faces,3.1.5,59.78607466337598,
,,,,,,,,,,,,,,,,,,,,,,,,,,,,,,,,,,,,,,,,,,,,,,,,,,,,,,,,,,,,0307caseh,331.4586168630012,None,331.4586168630012,None,387.0590063390009,None,space,1.245380499998646,392.0588340810009,None,,,,,,,,,,,,,,,,,,,,,,,,,,,,,,,,,,,,,,,,,,,,,,,,,,,,,,,,,,,,,,,,,,,,,,,,,,,,,001,155,2020_Feb_20_1321,spring_faces,3.1.5,59.78607466337598,
,,,,,,,,,,,,,,,,,,,,,,,,,,,,,,,,,,,,,,,,,,,,,,,,,,,,,,,,,,,,,,,,,,,,,,,392.0588340810009,None,393.3426576090005,None,space,4.482325918999777,398.3418796260012,None,,,,,,,,,,,,,,,,,,,,,,,,,,,,,,,,,,,,,,,,,,,,,,,,,,,,,,,,,,,,,,,,,,,,,001,155,2020_Feb_20_1321,spring_faces,3.1.5,59.78607466337598,
condition files/Stage0a.xlsx,0a,alpha,none,h,"['h', 'g']","['Chess', 'Go']","[0, 0.5]","[0, 0]",1,0,0,0,0,0,0,0,0,0,,,,,,,,,,,,,,,,,,,,,,,,,,,,,,,,,,,,,,,,,,,,,,,,,,,,,,,,,,,,,398.3418796260012,None,402.87502949900045,None,402.87502949900045,None,402.87502949900045,None,h,1,2.8452665459990385,404.4589292140008,None,404.4589292140008,None,404.4589292140008,None,407.37532061599995,None,407.37532061599995,None,407.37532061599995,None,407.37532061599995,None,,,,,,,,,,,,,,,,,,,,,,,,,,,,,,,,,,,,,,,,,,,,001,155,2020_Feb_20_1321,spring_faces,3.1.5,59.78607466337598,
condition files/Stage0a.xlsx,0a,beta,none,g,"['h', 'g']","['Chess', 'Go']","[0, 0.5]","[0, 0]",1,0,0,0,0,0,0,1,1,1,,,,,,,,,,,,,,,,,,,,,,,,,,,,,,,,,,,,,,,,,,,,,,,,,,,,,,,,,,,,,,,409.3249549539996,None,409.3249549539996,None,409.3249549539996,None,h,0,1.3405876329998136,410.8756745219998,None,410.8756745219998,None,410.8756745219998,None,412.27537875599955,None,412.27537875599955,None,412.27537875599955,None,412.27537875599955,None,,,,,,,,,,,,,,,,,,,,,,,,,,,,,,,,,,,,,,,,,,,,001,155,2020_Feb_20_1321,spring_faces,3.1.5,59.78607466337598,
condition files/Stage0a.xlsx,0a,alpha,none,h,"['h', 'g']","['Chess', 'Go']","[0, 0.5]","[0, 0]",1,0,0,1,1,1,0,0,0,0,,,,,,,,,,,,,,,,,,,,,,,,,,,,,,,,,,,,,,,,,,,,,,,,,,,,,,,,,,,,,,,414.2590797009998,None,414.2590797009998,None,414.2590797009998,None,h,1,0.7280742949988053,415.7921246400001,None,415.7921246400001,None,415.7921246400001,None,416.5752528720004,None,416.5752528720004,None,416.5752528720004,None,416.5752528720004,None,,,,,,,,,,,,,,,,,,,,,,,,,,,,,,,,,,,,,,,,,,,,001,155,2020_Feb_20_1321,spring_faces,3.1.5,59.78607466337598,
condition files/Stage0a.xlsx,0a,beta,none,g,"['h', 'g']","['Chess', 'Go']","[0, 0.5]","[0, 0]",1,0,0,1,1,1,0,1,1,1,,,,,,,,,,,,,,,,,,,,,,,,,,,,,,,,,,,,,,,,,,,,,,,,,,,,,,,,,,,,,,,418.5428068780002,None,418.5428068780002,None,418.5428068780002,None,g,1,0.6683595790000254,420.07584684500034,None,420.07584684500034,None,420.07584684500034,None,420.8083506840012,None,420.8083506840012,None,420.8083506840012,None,420.8083506840012,None,,,,,,,,,,,,,,,,,,,,,,,,,,,,,,,,,,,,,,,,,,,,001,155,2020_Feb_20_1321,spring_faces,3.1.5,59.78607466337598,
condition files/Stage0a.xlsx,0a,alpha,none,h,"['h', 'g']","['Chess', 'Go']","[0, 0.5]","[0, 0]",1,0,0,2,2,2,0,0,0,0,,,,,,,,,,,,,,,,,,,,,,,,,,,,,,,,,,,,,,,,,,,,,,,,,,,,,,,,,,,,,,,422.7923552960001,None,422.7923552960001,None,422.7923552960001,None,h,1,0.48222572700069577,424.32598594000046,None,424.32598594000046,None,424.32598594000046,None,424.8586272450011,None,424.8586272450011,None,424.8586272450011,None,424.8586272450011,None,,,,,,,,,,,,,,,,,,,,,,,,,,,,,,,,,,,,,,,,,,,,001,155,2020_Feb_20_1321,spring_faces,3.1.5,59.78607466337598,
condition files/Stage0a.xlsx,0a,beta,none,g,"['h', 'g']","['Chess', 'Go']","[0, 0.5]","[0, 0]",1,0,0,2,2,2,0,1,1,1,,,,,,,,,,,,,,,,,,,,,,,,,,,,,,,,,,,,,,,,,,,,,,,,,,,,,,,,,,,,,,,426.82523555199987,None,426.82523555199987,None,426.82523555199987,None,g,1,0.7208328710003116,428.35938875300053,None,428.35938875300053,None,428.35938875300053,None,429.141718203,None,429.141718203,None,429.141718203,None,429.141718203,None,,,,,,,,,,,,,,,,,,,,,,,,,,,,,,,,,,,,,,,,,,,,001,155,2020_Feb_20_1321,spring_faces,3.1.5,59.78607466337598,
condition files/Stage0a.xlsx,0a,beta,none,g,"['h', 'g']","['Chess', 'Go']","[0, 0.5]","[0, 0]",1,0,0,3,3,3,0,0,0,1,,,,,,,,,,,,,,,,,,,,,,,,,,,,,,,,,,,,,,,,,,,,,,,,,,,,,,,,,,,,,,,431.1253073830012,None,431.1253073830012,None,431.1253073830012,None,g,1,0.9497148609989381,432.65850836699974,None,432.65850836699974,None,432.65850836699974,None,433.65903521200016,None,433.65903521200016,None,433.65903521200016,None,433.65903521200016,None,,,,,,,,,,,,,,,,,,,,,,,,,,,,,,,,,,,,,,,,,,,,001,155,2020_Feb_20_1321,spring_faces,3.1.5,59.78607466337598,
condition files/Stage0a.xlsx,0a,alpha,none,h,"['h', 'g']","['Chess', 'Go']","[0, 0.5]","[0, 0]",1,0,0,3,3,3,0,1,1,0,,,,,,,,,,,,,,,,,,,,,,,,,,,,,,,,,,,,,,,,,,,,,,,,,,,,,,,,,,,,,,,435.6249894140001,None,435.6249894140001,None,435.6249894140001,None,h,1,0.7855393230001937,437.1586616879995,None,437.1586616879995,None,437.1586616879995,None,438.0099347030009,None,438.0099347030009,None,438.0099347030009,None,438.0099347030009,None,,,,,,,,,,,,,,,,,,,,,,,,,,,,,,,,,,,,,,,,,,,,001,155,2020_Feb_20_1321,spring_faces,3.1.5,59.78607466337598,
condition files/Stage0a.xlsx,0a,beta,none,g,"['h', 'g']","['Chess', 'Go']","[0, 0.5]","[0, 0]",1,0,0,4,4,4,0,0,0,1,,,,,,,,,,,,,,,,,,,,,,,,,,,,,,,,,,,,,,,,,,,,,,,,,,,,,,,,,,,,,,,439.9916846270007,None,439.9916846270007,None,439.9916846270007,None,g,1,0.6431742969998595,441.5249787619996,None,441.5249787619996,None,441.5249787619996,None,442.2258235820009,None,442.2258235820009,None,442.2258235820009,None,442.2258235820009,None,,,,,,,,,,,,,,,,,,,,,,,,,,,,,,,,,,,,,,,,,,,,001,155,2020_Feb_20_1321,spring_faces,3.1.5,59.78607466337598,
condition files/Stage0a.xlsx,0a,alpha,none,h,"['h', 'g']","['Chess', 'Go']","[0, 0.5]","[0, 0]",1,0,0,4,4,4,0,1,1,0,,,,,,,,,,,,,,,,,,,,,,,,,,,,,,,,,,,,,,,,,,,,,,,,,,,,,,,,,,,,,,,444.1914281640002,None,444.1914281640002,None,444.1914281640002,None,h,1,0.6507727329990303,445.7253978919998,None,445.7253978919998,None,445.7253978919998,None,446.44210995899994,None,446.44210995899994,None,446.44210995899994,None,446.44210995899994,None,,,,,,,,,,,,,,,,,,,,,,,,,,,,,,,,,,,,,,,,,,,,001,155,2020_Feb_20_1321,spring_faces,3.1.5,59.78607466337598,
condition files/Stage0a.xlsx,0a,alpha,none,h,"['h', 'g']","['Chess', 'Go']","[0, 0.5]","[0, 0]",1,0,0,5,5,5,0,0,0,0,,,,,,,,,,,,,,,,,,,,,,,,,,,,,,,,,,,,,,,,,,,,,,,,,,,,,,,,,,,,,,,448.42540721600017,None,448.42540721600017,None,448.42540721600017,None,h,1,1.0265513180002017,449.9415965650005,None,449.9415965650005,None,449.9415965650005,None,451.0250296739996,None,451.0250296739996,None,451.0250296739996,None,451.0250296739996,None,,,,,,,,,,,,,,,,,,,,,,,,,,,,,,,,,,,,,,,,,,,,001,155,2020_Feb_20_1321,spring_faces,3.1.5,59.78607466337598,
condition files/Stage0a.xlsx,0a,beta,none,g,"['h', 'g']","['Chess', 'Go']","[0, 0.5]","[0, 0]",1,0,0,5,5,5,0,1,1,1,,,,,,,,,,,,,,,,,,,,,,,,,,,,,,,,,,,,,,,,,,,,,,,,,,,,,,,,,,,,,,,452.9919880540001,None,452.9919880540001,None,452.9919880540001,None,g,1,0.6504695959993114,454.52571674799947,None,454.52571674799947,None,454.52571674799947,None,455.2424508280001,None,455.2424508280001,None,455.2424508280001,None,455.2424508280001,None,,,,,,,,,,,,,,,,,,,,,,,,,,,,,,,,,,,,,,,,,,,,001,155,2020_Feb_20_1321,spring_faces,3.1.5,59.78607466337598,
condition files/Stage0b_1.xlsx,0b,alpha,none,h,"['h', 'g']","['Chess', 'Go']","[-0.15, 0.5]","[0.15, 0.5]",1,0,0,6,6,6,0,0,0,0,,,,,,,,,,,,,,,,,,,,,,,,,,,,,,,,,,,,,,,,,,,,,,,,,,,,,,,,,,,,,,,457.22586279700045,None,457.22586279700045,None,457.22586279700045,None,h,1,0.7218117630000052,458.7584153400003,None,458.7584153400003,None,458.7584153400003,None,459.5422208630007,None,459.5422208630007,None,459.5422208630007,None,459.5422208630007,None,,,,,,,,,,,,,,,,,,,,,,,,,,,,,,,,,,,,,,,,,,,,001,155,2020_Feb_20_1321,spring_faces,3.1.5,59.78607466337598,
condition files/Stage0b_1.xlsx,0b,none,beta,g,"['h', 'g']","['Chess', 'Go']","[-0.15, 0.5]","[0.15, 0.5]",0,1,0,6,6,6,0,1,1,1,,,,,,,,,,,,,,,,,,,,,,,,,,,,,,,,,,,,,,,,,,,,,,,,,,,,,,,,,,,,,,,461.5083046060008,None,461.5083046060008,None,461.5083046060008,None,g,1,0.5012374150010146,463.0589372049999,None,463.0589372049999,None,463.0589372049999,None,463.6423317509998,None,463.6423317509998,None,463.6423317509998,None,463.6423317509998,None,,,,,,,,,,,,,,,,,,,,,,,,,,,,,,,,,,,,,,,,,,,,001,155,2020_Feb_20_1321,spring_faces,3.1.5,59.78607466337598,
condition files/Stage0b_2.xlsx,0b,none,alpha,h,"['h', 'g']","['Chess', 'Go']","[-0.15, 0.5]","[0.15, 0.5]",0,1,0,7,7,7,0,0,0,0,,,,,,,,,,,,,,,,,,,,,,,,,,,,,,,,,,,,,,,,,,,,,,,,,,,,,,,,,,,,,,,465.60876368500067,None,465.60876368500067,None,465.60876368500067,None,h,1,0.4974484040012612,467.14277561699964,None,467.14277561699964,None,467.14277561699964,None,467.69202692900035,None,467.69202692900035,None,467.69202692900035,None,467.69202692900035,None,,,,,,,,,,,,,,,,,,,,,,,,,,,,,,,,,,,,,,,,,,,,001,155,2020_Feb_20_1321,spring_faces,3.1.5,59.78607466337598,
condition files/Stage0b_2.xlsx,0b,beta,none,g,"['h', 'g']","['Chess', 'Go']","[-0.15, 0.5]","[0.15, 0.5]",1,0,0,7,7,7,0,1,1,1,,,,,,,,,,,,,,,,,,,,,,,,,,,,,,,,,,,,,,,,,,,,,,,,,,,,,,,,,,,,,,,469.6580751390011,None,469.6580751390011,None,469.6580751390011,None,g,1,0.7191887570006656,471.20900997399985,None,471.20900997399985,None,471.20900997399985,None,471.9980638859997,None,471.9980638859997,None,471.9980638859997,None,471.9980638859997,None,,,,,,,,,,,,,,,,,,,,,,,,,,,,,,,,,,,,,,,,,,,,001,155,2020_Feb_20_1321,spring_faces,3.1.5,59.78607466337598,
condition files/Stage0b_1.xlsx,0b,alpha,none,h,"['h', 'g']","['Chess', 'Go']","[-0.15, 0.5]","[0.15, 0.5]",1,0,0,8,8,8,0,0,0,0,,,,,,,,,,,,,,,,,,,,,,,,,,,,,,,,,,,,,,,,,,,,,,,,,,,,,,,,,,,,,,,473.97522779500105,None,473.97522779500105,None,473.97522779500105,None,h,1,0.5629823059989576,475.5093489619994,None,475.5093489619994,None,475.5093489619994,None,476.125092743001,None,476.125092743001,None,476.125092743001,None,476.125092743001,None,,,,,,,,,,,,,,,,,,,,,,,,,,,,,,,,,,,,,,,,,,,,001,155,2020_Feb_20_1321,spring_faces,3.1.5,59.78607466337598,
condition files/Stage0b_1.xlsx,0b,none,beta,g,"['h', 'g']","['Chess', 'Go']","[-0.15, 0.5]","[0.15, 0.5]",0,1,0,8,8,8,0,1,1,1,,,,,,,,,,,,,,,,,,,,,,,,,,,,,,,,,,,,,,,,,,,,,,,,,,,,,,,,,,,,,,,478.0918364520003,None,478.0918364520003,None,478.0918364520003,None,g,1,0.5579443000005995,479.6423205459996,None,479.6423205459996,None,479.6423205459996,None,480.27557504000106,None,480.27557504000106,None,480.27557504000106,None,480.27557504000106,None,,,,,,,,,,,,,,,,,,,,,,,,,,,,,,,,,,,,,,,,,,,,001,155,2020_Feb_20_1321,spring_faces,3.1.5,59.78607466337598,
condition files/Stage0b_2.xlsx,0b,beta,none,g,"['h', 'g']","['Chess', 'Go']","[-0.15, 0.5]","[0.15, 0.5]",1,0,0,9,9,9,0,0,0,1,,,,,,,,,,,,,,,,,,,,,,,,,,,,,,,,,,,,,,,,,,,,,,,,,,,,,,,,,,,,,,,482.2419318370012,None,482.2419318370012,None,482.2419318370012,None,g,1,0.6158583019987418,483.79233577500054,None,483.79233577500054,None,483.79233577500054,None,484.45892400199955,None,484.45892400199955,None,484.45892400199955,None,484.45892400199955,None,,,,,,,,,,,,,,,,,,,,,,,,,,,,,,,,,,,,,,,,,,,,001,155,2020_Feb_20_1321,spring_faces,3.1.5,59.78607466337598,
condition files/Stage0b_2.xlsx,0b,none,alpha,h,"['h', 'g']","['Chess', 'Go']","[-0.15, 0.5]","[0.15, 0.5]",0,1,0,9,9,9,0,1,1,0,,,,,,,,,,,,,,,,,,,,,,,,,,,,,,,,,,,,,,,,,,,,,,,,,,,,,,,,,,,,,,,486.4255015510007,None,486.4255015510007,None,486.4255015510007,None,h,1,0.49397434599995904,487.9622416180009,None,487.9622416180009,None,487.9622416180009,None,488.5099162509996,None,488.5099162509996,None,488.5099162509996,None,488.5099162509996,None,,,,,,,,,,,,,,,,,,,,,,,,,,,,,,,,,,,,,,,,,,,,001,155,2020_Feb_20_1321,spring_faces,3.1.5,59.78607466337598,
condition files/Stage0b_1.xlsx,0b,alpha,none,h,"['h', 'g']","['Chess', 'Go']","[-0.15, 0.5]","[0.15, 0.5]",1,0,0,10,10,10,0,0,0,0,,,,,,,,,,,,,,,,,,,,,,,,,,,,,,,,,,,,,,,,,,,,,,,,,,,,,,,,,,,,,,,490.49218406399996,None,490.49218406399996,None,490.49218406399996,None,h,1,0.6021298759987985,492.0301525440009,None,492.0301525440009,None,492.0301525440009,None,492.6917343370005,None,492.6917343370005,None,492.6917343370005,None,492.6917343370005,None,,,,,,,,,,,,,,,,,,,,,,,,,,,,,,,,,,,,,,,,,,,,001,155,2020_Feb_20_1321,spring_faces,3.1.5,59.78607466337598,
condition files/Stage0b_1.xlsx,0b,none,beta,g,"['h', 'g']","['Chess', 'Go']","[-0.15, 0.5]","[0.15, 0.5]",0,1,0,10,10,10,0,1,1,1,,,,,,,,,,,,,,,,,,,,,,,,,,,,,,,,,,,,,,,,,,,,,,,,,,,,,,,,,,,,,,,494.6581693429998,None,494.6581693429998,None,494.6581693429998,None,g,1,0.5352114870001969,496.2089918370002,None,496.2089918370002,None,496.2089918370002,None,496.8099901990008,None,496.8099901990008,None,496.8099901990008,None,496.8099901990008,None,,,,,,,,,,,,,,,,,,,,,,,,,,,,,,,,,,,,,,,,,,,,001,155,2020_Feb_20_1321,spring_faces,3.1.5,59.78607466337598,
condition files/Stage0b_2.xlsx,0b,none,alpha,h,"['h', 'g']","['Chess', 'Go']","[-0.15, 0.5]","[0.15, 0.5]",0,1,0,11,11,11,0,0,0,0,,,,,,,,,,,,,,,,,,,,,,,,,,,,,,,,,,,,,,,,,,,,,,,,,,,,,,,,,,,,,,,498.791580172001,None,498.791580172001,None,498.791580172001,None,h,1,0.6591704809998191,500.32510905600066,None,500.32510905600066,None,500.32510905600066,None,501.0422884319996,None,501.0422884319996,None,501.0422884319996,None,501.0422884319996,None,,,,,,,,,,,,,,,,,,,,,,,,,,,,,,,,,,,,,,,,,,,,001,155,2020_Feb_20_1321,spring_faces,3.1.5,59.78607466337598,
condition files/Stage0b_2.xlsx,0b,beta,none,g,"['h', 'g']","['Chess', 'Go']","[-0.15, 0.5]","[0.15, 0.5]",1,0,0,11,11,11,0,1,1,1,,,,,,,,,,,,,,,,,,,,,,,,,,,,,,,,,,,,,,,,,,,,,,,,,,,,,,,,,,,,,,,503.0083854599998,None,503.0083854599998,None,503.0083854599998,None,g,1,0.5212865339999553,504.55892259900065,None,504.55892259900065,None,504.55892259900065,None,505.144886125001,None,505.144886125001,None,505.144886125001,None,505.144886125001,None,,,,,,,,,,,,,,,,,,,,,,,,,,,,,,,,,,,,,,,,,,,,001,155,2020_Feb_20_1321,spring_faces,3.1.5,59.78607466337598,
condition files/Stage0c_1.xlsx,0c,theta,alpha,h,"['h', 'g']","['Chess', 'Go']","[-0.15, 0.5]","[0.15, 0.5]",1,1,0,12,12,12,0,0,0,0,,,,,,,,,,,,,,,,,,,,,,,,,,,,,,,,,,,,,,,,,,,,,,,,,,,,,,,,,,,,,,,507.12583849300063,None,507.12583849300063,None,507.12583849300063,None,h,1,2.501072541999747,508.65909676999945,None,508.65909676999945,None,508.65909676999945,None,511.2251662939998,None,511.2251662939998,None,511.2251662939998,None,511.2251662939998,None,,,,,,,,,,,,,,,,,,,,,,,,,,,,,,,,,,,,,,,,,,,,001,155,2020_Feb_20_1321,spring_faces,3.1.5,59.78607466337598,
condition files/Stage0c_1.xlsx,0c,alpha,phi,h,"['h', 'g']","['Chess', 'Go']","[-0.15, 0.5]","[0.15, 0.5]",1,1,0,12,12,12,0,1,1,1,,,,,,,,,,,,,,,,,,,,,,,,,,,,,,,,,,,,,,,,,,,,,,,,,,,,,,,,,,,,,,,513.191671093,None,513.191671093,None,513.191671093,None,h,1,1.7944971890010493,514.7256946840007,None,514.7256946840007,None,514.7256946840007,None,516.5756372550004,None,516.5756372550004,None,516.5756372550004,None,516.5756372550004,None,,,,,,,,,,,,,,,,,,,,,,,,,,,,,,,,,,,,,,,,,,,,001,155,2020_Feb_20_1321,spring_faces,3.1.5,59.78607466337598,
condition files/Stage0c_1.xlsx,0c,phi,beta,g,"['h', 'g']","['Chess', 'Go']","[-0.15, 0.5]","[0.15, 0.5]",1,1,0,12,12,12,0,2,2,3,,,,,,,,,,,,,,,,,,,,,,,,,,,,,,,,,,,,,,,,,,,,,,,,,,,,,,,,,,,,,,,518.5417583380004,None,518.5417583380004,None,518.5417583380004,None,g,1,1.0845104629988782,520.0756631550012,None,520.0756631550012,None,520.0756631550012,None,521.225648003001,None,521.225648003001,None,521.225648003001,None,521.225648003001,None,,,,,,,,,,,,,,,,,,,,,,,,,,,,,,,,,,,,,,,,,,,,001,155,2020_Feb_20_1321,spring_faces,3.1.5,59.78607466337598,
condition files/Stage0c_1.xlsx,0c,beta,theta,g,"['h', 'g']","['Chess', 'Go']","[-0.15, 0.5]","[0.15, 0.5]",1,1,0,12,12,12,0,3,3,2,,,,,,,,,,,,,,,,,,,,,,,,,,,,,,,,,,,,,,,,,,,,,,,,,,,,,,,,,,,,,,,523.2089979339999,None,523.2089979339999,None,523.2089979339999,None,g,1,0.9305186430010508,524.7256713240004,None,524.7256713240004,None,524.7256713240004,None,525.6925017379999,None,525.6925017379999,None,525.6925017379999,None,525.6925017379999,None,,,,,,,,,,,,,,,,,,,,,,,,,,,,,,,,,,,,,,,,,,,,001,155,2020_Feb_20_1321,spring_faces,3.1.5,59.78607466337598,
condition files/Stage0c_2.xlsx,0c,alpha,theta,h,"['h', 'g']","['Chess', 'Go']","[-0.15, 0.5]","[0.15, 0.5]",1,1,0,13,13,13,0,0,0,0,,,,,,,,,,,,,,,,,,,,,,,,,,,,,,,,,,,,,,,,,,,,,,,,,,,,,,,,,,,,,,,527.6922933440001,None,527.6922933440001,None,527.6922933440001,None,h,1,0.6708107969989214,529.2254084249998,None,529.2254084249998,None,529.2254084249998,None,529.9588511599995,None,529.9588511599995,None,529.9588511599995,None,529.9588511599995,None,,,,,,,,,,,,,,,,,,,,,,,,,,,,,,,,,,,,,,,,,,,,001,155,2020_Feb_20_1321,spring_faces,3.1.5,59.78607466337598,
condition files/Stage0c_2.xlsx,0c,beta,phi,g,"['h', 'g']","['Chess', 'Go']","[-0.15, 0.5]","[0.15, 0.5]",1,1,0,13,13,13,0,1,1,3,,,,,,,,,,,,,,,,,,,,,,,,,,,,,,,,,,,,,,,,,,,,,,,,,,,,,,,,,,,,,,,531.9253017080009,None,531.9253017080009,None,531.9253017080009,None,g,1,0.821223511999051,533.4589743369997,None,533.4589743369997,None,533.4589743369997,None,534.3419249580002,None,534.3419249580002,None,534.3419249580002,None,534.3419249580002,None,,,,,,,,,,,,,,,,,,,,,,,,,,,,,,,,,,,,,,,,,,,,001,155,2020_Feb_20_1321,spring_faces,3.1.5,59.78607466337598,
condition files/Stage0c_2.xlsx,0c,phi,alpha,h,"['h', 'g']","['Chess', 'Go']","[-0.15, 0.5]","[0.15, 0.5]",1,1,0,13,13,13,0,2,2,1,,,,,,,,,,,,,,,,,,,,,,,,,,,,,,,,,,,,,,,,,,,,,,,,,,,,,,,,,,,,,,,536.3086676870007,None,536.3086676870007,None,536.3086676870007,None,g,0,1.5264322379989608,537.8417154890012,None,537.8417154890012,None,537.8417154890012,None,539.4256528639999,None,539.4256528639999,None,539.4256528639999,None,539.4256528639999,None,,,,,,,,,,,,,,,,,,,,,,,,,,,,,,,,,,,,,,,,,,,,001,155,2020_Feb_20_1321,spring_faces,3.1.5,59.78607466337598,
condition files/Stage0c_2.xlsx,0c,theta,beta,g,"['h', 'g']","['Chess', 'Go']","[-0.15, 0.5]","[0.15, 0.5]",1,1,0,13,13,13,0,3,3,2,,,,,,,,,,,,,,,,,,,,,,,,,,,,,,,,,,,,,,,,,,,,,,,,,,,,,,,,,,,,,,,541.3914300260003,None,541.3914300260003,None,541.3914300260003,None,g,1,0.842421829000159,542.9257263380005,None,542.9257263380005,None,542.9257263380005,None,543.825619143001,None,543.825619143001,None,543.825619143001,None,543.825619143001,None,,,,,,,,,,,,,,,,,,,,,,,,,,,,,,,,,,,,,,,,,,,,001,155,2020_Feb_20_1321,spring_faces,3.1.5,59.78607466337598,
condition files/Stage0c_1.xlsx,0c,beta,theta,g,"['h', 'g']","['Chess', 'Go']","[-0.15, 0.5]","[0.15, 0.5]",1,1,0,14,14,14,0,0,0,2,,,,,,,,,,,,,,,,,,,,,,,,,,,,,,,,,,,,,,,,,,,,,,,,,,,,,,,,,,,,,,,545.8084426940004,None,545.8084426940004,None,545.8084426940004,None,g,1,0.7935828269983176,547.3426312749998,None,547.3426312749998,None,547.3426312749998,None,548.1775362070002,None,548.1775362070002,None,548.1775362070002,None,548.1775362070002,None,,,,,,,,,,,,,,,,,,,,,,,,,,,,,,,,,,,,,,,,,,,,001,155,2020_Feb_20_1321,spring_faces,3.1.5,59.78607466337598,
condition files/Stage0c_1.xlsx,0c,phi,beta,g,"['h', 'g']","['Chess', 'Go']","[-0.15, 0.5]","[0.15, 0.5]",1,1,0,14,14,14,0,1,1,3,,,,,,,,,,,,,,,,,,,,,,,,,,,,,,,,,,,,,,,,,,,,,,,,,,,,,,,,,,,,,,,550.1584719210005,None,550.1584719210005,None,550.1584719210005,None,g,1,0.715774844000407,551.6924156719997,None,551.6924156719997,None,551.6924156719997,None,552.4433531670002,None,552.4433531670002,None,552.4433531670002,None,552.4433531670002,None,,,,,,,,,,,,,,,,,,,,,,,,,,,,,,,,,,,,,,,,,,,,001,155,2020_Feb_20_1321,spring_faces,3.1.5,59.78607466337598,
condition files/Stage0c_1.xlsx,0c,alpha,phi,h,"['h', 'g']","['Chess', 'Go']","[-0.15, 0.5]","[0.15, 0.5]",1,1,0,14,14,14,0,2,2,1,,,,,,,,,,,,,,,,,,,,,,,,,,,,,,,,,,,,,,,,,,,,,,,,,,,,,,,,,,,,,,,554.4251494720011,None,554.4251494720011,None,554.4251494720011,None,h,1,0.7211383539997769,555.9590564940008,None,555.9590564940008,None,555.9590564940008,None,556.7425677579995,None,556.7425677579995,None,556.7425677579995,None,556.7425677579995,None,,,,,,,,,,,,,,,,,,,,,,,,,,,,,,,,,,,,,,,,,,,,001,155,2020_Feb_20_1321,spring_faces,3.1.5,59.78607466337598,
condition files/Stage0c_1.xlsx,0c,theta,alpha,h,"['h', 'g']","['Chess', 'Go']","[-0.15, 0.5]","[0.15, 0.5]",1,1,0,14,14,14,0,3,3,0,,,,,,,,,,,,,,,,,,,,,,,,,,,,,,,,,,,,,,,,,,,,,,,,,,,,,,,,,,,,,,,558.7085933170001,None,558.7085933170001,None,558.7085933170001,None,h,1,0.9818908569995983,560.2422986109996,None,560.2422986109996,None,560.2422986109996,None,561.2756999980011,None,561.2756999980011,None,561.2756999980011,None,561.2756999980011,None,,,,,,,,,,,,,,,,,,,,,,,,,,,,,,,,,,,,,,,,,,,,001,155,2020_Feb_20_1321,spring_faces,3.1.5,59.78607466337598,
condition files/Stage0c_2.xlsx,0c,theta,beta,g,"['h', 'g']","['Chess', 'Go']","[-0.15, 0.5]","[0.15, 0.5]",1,1,0,15,15,15,0,0,0,2,,,,,,,,,,,,,,,,,,,,,,,,,,,,,,,,,,,,,,,,,,,,,,,,,,,,,,,,,,,,,,,563.259027338001,None,563.259027338001,None,563.259027338001,None,g,1,0.9598847080014821,564.7923898070003,None,564.7923898070003,None,564.7923898070003,None,565.8087985519996,None,565.8087985519996,None,565.8087985519996,None,565.8087985519996,None,,,,,,,,,,,,,,,,,,,,,,,,,,,,,,,,,,,,,,,,,,,,001,155,2020_Feb_20_1321,spring_faces,3.1.5,59.78607466337598,
condition files/Stage0c_2.xlsx,0c,phi,alpha,h,"['h', 'g']","['Chess', 'Go']","[-0.15, 0.5]","[0.15, 0.5]",1,1,0,15,15,15,0,1,1,1,,,,,,,,,,,,,,,,,,,,,,,,,,,,,,,,,,,,,,,,,,,,,,,,,,,,,,,,,,,,,,,567.7746110080006,None,567.7746110080006,None,567.7746110080006,None,h,1,1.1955562889997964,569.3086212630005,None,569.3086212630005,None,569.3086212630005,None,570.5585069480003,None,570.5585069480003,None,570.5585069480003,None,570.5585069480003,None,,,,,,,,,,,,,,,,,,,,,,,,,,,,,,,,,,,,,,,,,,,,001,155,2020_Feb_20_1321,spring_faces,3.1.5,59.78607466337598,
condition files/Stage0c_2.xlsx,0c,alpha,theta,h,"['h', 'g']","['Chess', 'Go']","[-0.15, 0.5]","[0.15, 0.5]",1,1,0,15,15,15,0,2,2,0,,,,,,,,,,,,,,,,,,,,,,,,,,,,,,,,,,,,,,,,,,,,,,,,,,,,,,,,,,,,,,,572.5253274070001,None,572.5253274070001,None,572.5253274070001,None,h,1,0.7336823610003194,574.0585170390004,None,574.0585170390004,None,574.0585170390004,None,574.8265308150003,None,574.8265308150003,None,574.8265308150003,None,574.8265308150003,None,,,,,,,,,,,,,,,,,,,,,,,,,,,,,,,,,,,,,,,,,,,,001,155,2020_Feb_20_1321,spring_faces,3.1.5,59.78607466337598,
condition files/Stage0c_2.xlsx,0c,beta,phi,g,"['h', 'g']","['Chess', 'Go']","[-0.15, 0.5]","[0.15, 0.5]",1,1,0,15,15,15,0,3,3,3,,,,,,,,,,,,,,,,,,,,,,,,,,,,,,,,,,,,,,,,,,,,,,,,,,,,,,,,,,,,,,,576.8084405370009,None,576.8084405370009,None,576.8084405370009,None,g,1,0.7382716390002315,578.3419313550003,None,578.3419313550003,None,578.3419313550003,None,579.142443531,None,579.142443531,None,579.142443531,None,579.142443531,None,,,,,,,,,,,,,,,,,,,,,,,,,,,,,,,,,,,,,,,,,,,,001,155,2020_Feb_20_1321,spring_faces,3.1.5,59.78607466337598,
condition files/Stage0c_1.xlsx,0c,alpha,phi,h,"['h', 'g']","['Chess', 'Go']","[-0.15, 0.5]","[0.15, 0.5]",1,1,0,16,16,16,0,0,0,1,,,,,,,,,,,,,,,,,,,,,,,,,,,,,,,,,,,,,,,,,,,,,,,,,,,,,,,,,,,,,,,581.1250170519997,None,581.1250170519997,None,581.1250170519997,None,h,1,0.8056183869994129,582.6585988490006,None,582.6585988490006,None,582.6585988490006,None,583.5253936589997,None,583.5253936589997,None,583.5253936589997,None,583.5253936589997,None,,,,,,,,,,,,,,,,,,,,,,,,,,,,,,,,,,,,,,,,,,,,001,155,2020_Feb_20_1321,spring_faces,3.1.5,59.78607466337598,
condition files/Stage0c_1.xlsx,0c,theta,alpha,h,"['h', 'g']","['Chess', 'Go']","[-0.15, 0.5]","[0.15, 0.5]",1,1,0,16,16,16,0,1,1,0,,,,,,,,,,,,,,,,,,,,,,,,,,,,,,,,,,,,,,,,,,,,,,,,,,,,,,,,,,,,,,,585.4920468029995,None,585.4920468029995,None,585.4920468029995,None,h,1,0.8549904639985471,587.0252173970002,None,587.0252173970002,None,587.0252173970002,None,587.9253857849999,None,587.9253857849999,None,587.9253857849999,None,587.9253857849999,None,,,,,,,,,,,,,,,,,,,,,,,,,,,,,,,,,,,,,,,,,,,,001,155,2020_Feb_20_1321,spring_faces,3.1.5,59.78607466337598,
condition files/Stage0c_1.xlsx,0c,phi,beta,g,"['h', 'g']","['Chess', 'Go']","[-0.15, 0.5]","[0.15, 0.5]",1,1,0,16,16,16,0,2,2,3,,,,,,,,,,,,,,,,,,,,,,,,,,,,,,,,,,,,,,,,,,,,,,,,,,,,,,,,,,,,,,,589.9091445459999,None,589.9091445459999,None,589.9091445459999,None,g,1,1.0618646100010665,591.442343570001,None,591.442343570001,None,591.442343570001,None,592.5587105140003,None,592.5587105140003,None,592.5587105140003,None,592.5587105140003,None,,,,,,,,,,,,,,,,,,,,,,,,,,,,,,,,,,,,,,,,,,,,001,155,2020_Feb_20_1321,spring_faces,3.1.5,59.78607466337598,
condition files/Stage0c_1.xlsx,0c,beta,theta,g,"['h', 'g']","['Chess', 'Go']","[-0.15, 0.5]","[0.15, 0.5]",1,1,0,16,16,16,0,3,3,2,,,,,,,,,,,,,,,,,,,,,,,,,,,,,,,,,,,,,,,,,,,,,,,,,,,,,,,,,,,,,,,594.5247978469997,None,594.5247978469997,None,594.5247978469997,None,g,1,0.6688918370000465,596.0593068590006,None,596.0593068590006,None,596.0593068590006,None,596.7752287340008,None,596.7752287340008,None,596.7752287340008,None,596.7752287340008,None,,,,,,,,,,,,,,,,,,,,,,,,,,,,,,,,,,,,,,,,,,,,001,155,2020_Feb_20_1321,spring_faces,3.1.5,59.78607466337598,
condition files/Stage0c_2.xlsx,0c,theta,beta,g,"['h', 'g']","['Chess', 'Go']","[-0.15, 0.5]","[0.15, 0.5]",1,1,0,17,17,17,0,0,0,2,,,,,,,,,,,,,,,,,,,,,,,,,,,,,,,,,,,,,,,,,,,,,,,,,,,,,,,,,,,,,,,598.7760037509997,None,598.7760037509997,None,598.7760037509997,None,h,0,1.0436417359996994,600.308655533001,None,600.308655533001,None,600.308655533001,None,601.3938838520007,None,601.3938838520007,None,601.3938838520007,None,601.3938838520007,None,,,,,,,,,,,,,,,,,,,,,,,,,,,,,,,,,,,,,,,,,,,,001,155,2020_Feb_20_1321,spring_faces,3.1.5,59.78607466337598,
condition files/Stage0c_2.xlsx,0c,beta,phi,g,"['h', 'g']","['Chess', 'Go']","[-0.15, 0.5]","[0.15, 0.5]",1,1,0,17,17,17,0,1,1,3,,,,,,,,,,,,,,,,,,,,,,,,,,,,,,,,,,,,,,,,,,,,,,,,,,,,,,,,,,,,,,,603.3754887640007,None,603.3754887640007,None,603.3754887640007,None,g,1,0.8111076940003841,604.9090990679997,None,604.9090990679997,None,604.9090990679997,None,605.7608640899998,None,605.7608640899998,None,605.7608640899998,None,605.7608640899998,None,,,,,,,,,,,,,,,,,,,,,,,,,,,,,,,,,,,,,,,,,,,,001,155,2020_Feb_20_1321,spring_faces,3.1.5,59.78607466337598,
condition files/Stage0c_2.xlsx,0c,phi,alpha,h,"['h', 'g']","['Chess', 'Go']","[-0.15, 0.5]","[0.15, 0.5]",1,1,0,17,17,17,0,2,2,1,,,,,,,,,,,,,,,,,,,,,,,,,,,,,,,,,,,,,,,,,,,,,,,,,,,,,,,,,,,,,,,607.7420788390009,None,607.7420788390009,None,607.7420788390009,None,h,1,0.6525618779996876,609.2756464430004,None,609.2756464430004,None,609.2756464430004,None,609.9919206520008,None,609.9919206520008,None,609.9919206520008,None,609.9919206520008,None,,,,,,,,,,,,,,,,,,,,,,,,,,,,,,,,,,,,,,,,,,,,001,155,2020_Feb_20_1321,spring_faces,3.1.5,59.78607466337598,
condition files/Stage0c_2.xlsx,0c,alpha,theta,h,"['h', 'g']","['Chess', 'Go']","[-0.15, 0.5]","[0.15, 0.5]",1,1,0,17,17,17,0,3,3,0,,,,,,,,,,,,,,,,,,,,,,,,,,,,,,,,,,,,,,,,,,,,,,,,,,,,,,,,,,,,,,,611.9585638799999,None,611.9585638799999,None,611.9585638799999,None,h,1,1.1242634270001872,613.4919982459996,None,613.4919982459996,None,613.4919982459996,None,614.6601851039995,None,614.6601851039995,None,614.6601851039995,None,614.6601851039995,None,,,,,,,,,,,,,,,,,,,,,,,,,,,,,,,,,,,,,,,,,,,,001,155,2020_Feb_20_1321,spring_faces,3.1.5,59.78607466337598,
,,,,,,,,,,,,,,,,,,,,,,,,,,,,,,,,,,,,,,,,,,,,,,,,,,,,,,,,,,,,,,,,,,,,,,,,,,,,,,,,,,,,,,,,,,,,,,,,,,,,,,,,616.6585655170002,None,space,1.2615889069984405,621.6586310300008,None,,,,,,,,,,,,,,,,,,,,,,,,,,,,,,,,,,,,,,001,155,2020_Feb_20_1321,spring_faces,3.1.5,59.78607466337598,
condition files/Stage1_1.xlsx,,B1,T2,c,"['c', 'm']","['Clue', 'Monopoly']","[-0.15, 0.5]","[0.15, 0.5]",1,1,,,,,,,,,0,0,0,0,0,0,0,1,,,,,,,,,,,,,,,,,,,,,,,,,,,,,,,,,,,,,,,,,,,,,,,,,,,,,,,622.9755511109997,None,622.9755511109997,None,622.9755511109997,None,m,0,2.2992744890016183,624.5089366000011,None,624.5089366000011,None,624.5089366000011,None,626.8760450930004,None,626.8760450930004,None,626.8760450930004,None,626.8760450930004,None,,,,,,,621.6586310300008,None,,,,,,,,,,,,,,,,,,,,,,,,,,,,,,,,,,,,001,155,2020_Feb_20_1321,spring_faces,3.1.5,59.78607466337598,
condition files/Stage1_1.xlsx,,T3,B4,c,"['c', 'm']","['Clue', 'Monopoly']","[-0.15, 0.5]","[0.15, 0.5]",1,1,,,,,,,,,0,0,0,0,0,1,1,5,,,,,,,,,,,,,,,,,,,,,,,,,,,,,,,,,,,,,,,,,,,,,,,,,,,,,,,628.8248089749995,None,628.8248089749995,None,628.8248089749995,None,c,1,0.9437753029997111,630.360406318001,None,630.360406318001,None,630.360406318001,None,631.35830627,None,631.35830627,None,631.35830627,None,631.35830627,None,,,,,,,,,,,,,,,,,,,,,,,,,,,,,,,,,,,,,,,,,,,,001,155,2020_Feb_20_1321,spring_faces,3.1.5,59.78607466337598,
condition files/Stage1_1.xlsx,,B2,T1,m,"['c', 'm']","['Clue', 'Monopoly']","[-0.15, 0.5]","[0.15, 0.5]",1,1,,,,,,,,,0,0,0,0,0,2,2,2,,,,,,,,,,,,,,,,,,,,,,,,,,,,,,,,,,,,,,,,,,,,,,,,,,,,,,,633.3251440210006,None,633.3251440210006,None,633.3251440210006,None,m,1,1.6278302410009928,634.8603946710009,None,634.8603946710009,None,634.8603946710009,None,636.5587006950009,None,636.5587006950009,None,636.5587006950009,None,636.5587006950009,None,,,,,,,,,,,,,,,,,,,,,,,,,,,,,,,,,,,,,,,,,,,,001,155,2020_Feb_20_1321,spring_faces,3.1.5,59.78607466337598,
condition files/Stage1_1.xlsx,,B4,T4,m,"['c', 'm']","['Clue', 'Monopoly']","[-0.15, 0.5]","[0.15, 0.5]",1,1,,,,,,,,,0,0,0,0,0,3,3,7,,,,,,,,,,,,,,,,,,,,,,,,,,,,,,,,,,,,,,,,,,,,,,,,,,,,,,,638.5085727710011,None,638.5085727710011,None,638.5085727710011,None,c,0,1.9653746970016073,640.0588212390012,None,640.0588212390012,None,640.0588212390012,None,642.0749957940006,None,642.0749957940006,None,642.0749957940006,None,642.0749957940006,None,,,,,,,,,,,,,,,,,,,,,,,,,,,,,,,,,,,,,,,,,,,,001,155,2020_Feb_20_1321,spring_faces,3.1.5,59.78607466337598,
condition files/Stage1_1.xlsx,,T1,B1,c,"['c', 'm']","['Clue', 'Monopoly']","[-0.15, 0.5]","[0.15, 0.5]",1,1,,,,,,,,,0,0,0,0,0,4,4,0,,,,,,,,,,,,,,,,,,,,,,,,,,,,,,,,,,,,,,,,,,,,,,,,,,,,,,,644.0419465939995,None,644.0419465939995,None,644.0419465939995,None,m,0,1.1029016499996942,645.5773452789999,None,645.5773452789999,None,645.5773452789999,None,646.758843261001,None,646.758843261001,None,646.758843261001,None,646.758843261001,None,,,,,,,,,,,,,,,,,,,,,,,,,,,,,,,,,,,,,,,,,,,,001,155,2020_Feb_20_1321,spring_faces,3.1.5,59.78607466337598,
condition files/Stage1_1.xlsx,,T2,B2,m,"['c', 'm']","['Clue', 'Monopoly']","[-0.15, 0.5]","[0.15, 0.5]",1,1,,,,,,,,,0,0,0,0,0,5,5,3,,,,,,,,,,,,,,,,,,,,,,,,,,,,,,,,,,,,,,,,,,,,,,,,,,,,,,,648.7083558430004,None,648.7083558430004,None,648.7083558430004,None,c,0,1.8445835949987668,650.243636141,None,650.243636141,None,650.243636141,None,652.1588372610004,None,652.1588372610004,None,652.1588372610004,None,652.1588372610004,None,,,,,,,,,,,,,,,,,,,,,,,,,,,,,,,,,,,,,,,,,,,,001,155,2020_Feb_20_1321,spring_faces,3.1.5,59.78607466337598,
condition files/Stage1_1.xlsx,,B3,T3,c,"['c', 'm']","['Clue', 'Monopoly']","[-0.15, 0.5]","[0.15, 0.5]",1,1,,,,,,,,,0,0,0,0,0,6,6,4,,,,,,,,,,,,,,,,,,,,,,,,,,,,,,,,,,,,,,,,,,,,,,,,,,,,,,,654.1088821829999,None,654.1088821829999,None,654.1088821829999,None,c,1,1.5171238760012784,655.6430284380003,None,655.6430284380003,None,655.6430284380003,None,657.2256958440012,None,657.2256958440012,None,657.2256958440012,None,657.2256958440012,None,,,,,,,,,,,,,,,,,,,,,,,,,,,,,,,,,,,,,,,,,,,,001,155,2020_Feb_20_1321,spring_faces,3.1.5,59.78607466337598,
condition files/Stage1_1.xlsx,,T4,B3,m,"['c', 'm']","['Clue', 'Monopoly']","[-0.15, 0.5]","[0.15, 0.5]",1,1,,,,,,,,,0,0,0,0,0,7,7,6,,,,,,,,,,,,,,,,,,,,,,,,,,,,,,,,,,,,,,,,,,,,,,,,,,,,,,,659.1917653119999,None,659.1917653119999,None,659.1917653119999,None,m,1,1.842845409999427,660.7252907430011,None,660.7252907430011,None,660.7252907430011,None,662.6249214399995,None,662.6249214399995,None,662.6249214399995,None,662.6249214399995,None,,,,,,,,,,,,,,,,,,,,,,,,,,,,,,,,,,,,,,,,,,,,001,155,2020_Feb_20_1321,spring_faces,3.1.5,59.78607466337598,
condition files/Stage1_2.xlsx,,B1,T1,c,"['c', 'm']","['Clue', 'Monopoly']","[-0.15, 0.5]","[0.15, 0.5]",1,1,,,,,,,,,0,1,1,1,0,0,0,0,,,,,,,,,,,,,,,,,,,,,,,,,,,,,,,,,,,,,,,,,,,,,,,,,,,,,,,664.6089222789997,None,664.6089222789997,None,664.6089222789997,None,m,0,1.241368037999564,666.1589219310008,None,666.1589219310008,None,666.1589219310008,None,667.4758946590009,None,667.4758946590009,None,667.4758946590009,None,667.4758946590009,None,,,,,,,,,,,,,,,,,,,,,,,,,,,,,,,,,,,,,,,,,,,,001,155,2020_Feb_20_1321,spring_faces,3.1.5,59.78607466337598,
condition files/Stage1_2.xlsx,,T1,B2,m,"['c', 'm']","['Clue', 'Monopoly']","[-0.15, 0.5]","[0.15, 0.5]",1,1,,,,,,,,,0,1,1,1,0,1,1,2,,,,,,,,,,,,,,,,,,,,,,,,,,,,,,,,,,,,,,,,,,,,,,,,,,,,,,,669.4249253329999,None,669.4249253329999,None,669.4249253329999,None,c,0,1.080421311000464,670.959793168,None,670.959793168,None,670.959793168,None,672.1089638619997,None,672.1089638619997,None,672.1089638619997,None,672.1089638619997,None,,,,,,,,,,,,,,,,,,,,,,,,,,,,,,,,,,,,,,,,,,,,001,155,2020_Feb_20_1321,spring_faces,3.1.5,59.78607466337598,
condition files/Stage1_2.xlsx,,T4,B4,m,"['c', 'm']","['Clue', 'Monopoly']","[-0.15, 0.5]","[0.15, 0.5]",1,1,,,,,,,,,0,1,1,1,0,2,2,7,,,,,,,,,,,,,,,,,,,,,,,,,,,,,,,,,,,,,,,,,,,,,,,,,,,,,,,674.0584986530012,None,674.0584986530012,None,674.0584986530012,None,c,0,1.727924738999718,675.608274354001,None,675.608274354001,None,675.608274354001,None,677.3915135059997,None,677.3915135059997,None,677.3915135059997,None,677.3915135059997,None,,,,,,,,,,,,,,,,,,,,,,,,,,,,,,,,,,,,,,,,,,,,001,155,2020_Feb_20_1321,spring_faces,3.1.5,59.78607466337598,
condition files/Stage1_2.xlsx,,B3,T4,m,"['c', 'm']","['Clue', 'Monopoly']","[-0.15, 0.5]","[0.15, 0.5]",1,1,,,,,,,,,0,1,1,1,0,3,3,6,,,,,,,,,,,,,,,,,,,,,,,,,,,,,,,,,,,,,,,,,,,,,,,,,,,,,,,679.3582571930001,None,679.3582571930001,None,679.3582571930001,None,m,1,1.7872957789986685,680.8929356839999,None,680.8929356839999,None,680.8929356839999,None,682.7420529160008,None,682.7420529160008,None,682.7420529160008,None,682.7420529160008,None,,,,,,,,,,,,,,,,,,,,,,,,,,,,,,,,,,,,,,,,,,,,001,155,2020_Feb_20_1321,spring_faces,3.1.5,59.78607466337598,
condition files/Stage1_2.xlsx,,T2,B1,c,"['c', 'm']","['Clue', 'Monopoly']","[-0.15, 0.5]","[0.15, 0.5]",1,1,,,,,,,,,0,1,1,1,0,4,4,1,,,,,,,,,,,,,,,,,,,,,,,,,,,,,,,,,,,,,,,,,,,,,,,,,,,,,,,684.7086150570012,None,684.7086150570012,None,684.7086150570012,None,c,1,1.317666831000679,686.2425030699997,None,686.2425030699997,None,686.2425030699997,None,687.6272715510004,None,687.6272715510004,None,687.6272715510004,None,687.6272715510004,None,,,,,,,,,,,,,,,,,,,,,,,,,,,,,,,,,,,,,,,,,,,,001,155,2020_Feb_20_1321,spring_faces,3.1.5,59.78607466337598,
condition files/Stage1_2.xlsx,,B4,T3,c,"['c', 'm']","['Clue', 'Monopoly']","[-0.15, 0.5]","[0.15, 0.5]",1,1,,,,,,,,,0,1,1,1,0,5,5,5,,,,,,,,,,,,,,,,,,,,,,,,,,,,,,,,,,,,,,,,,,,,,,,,,,,,,,,689.5919157709995,None,689.5919157709995,None,689.5919157709995,None,m,0,1.618196113000522,691.1260312650011,None,691.1260312650011,None,691.1260312650011,None,692.8087693039997,None,692.8087693039997,None,692.8087693039997,None,692.8087693039997,None,,,,,,,,,,,,,,,,,,,,,,,,,,,,,,,,,,,,,,,,,,,,001,155,2020_Feb_20_1321,spring_faces,3.1.5,59.78607466337598,
condition files/Stage1_2.xlsx,,T3,B3,c,"['c', 'm']","['Clue', 'Monopoly']","[-0.15, 0.5]","[0.15, 0.5]",1,1,,,,,,,,,0,1,1,1,0,6,6,4,,,,,,,,,,,,,,,,,,,,,,,,,,,,,,,,,,,,,,,,,,,,,,,,,,,,,,,694.7749153170007,None,694.7749153170007,None,694.7749153170007,None,c,1,0.9955957230013155,696.3086192230003,None,696.3086192230003,None,696.3086192230003,None,697.3589887279995,None,697.3589887279995,None,697.3589887279995,None,697.3589887279995,None,,,,,,,,,,,,,,,,,,,,,,,,,,,,,,,,,,,,,,,,,,,,001,155,2020_Feb_20_1321,spring_faces,3.1.5,59.78607466337598,
condition files/Stage1_2.xlsx,,B2,T2,m,"['c', 'm']","['Clue', 'Monopoly']","[-0.15, 0.5]","[0.15, 0.5]",1,1,,,,,,,,,0,1,1,1,0,7,7,3,,,,,,,,,,,,,,,,,,,,,,,,,,,,,,,,,,,,,,,,,,,,,,,,,,,,,,,699.3249598969996,None,699.3249598969996,None,699.3249598969996,None,c,0,0.8926181610004278,700.8596453770006,None,700.8596453770006,None,700.8596453770006,None,701.8259258529997,None,701.8259258529997,None,701.8259258529997,None,701.8259258529997,None,,,,,,,,,,,,,,,,,,,,,,,,,,,,,,,,,,,,,,,,,,,,001,155,2020_Feb_20_1321,spring_faces,3.1.5,59.78607466337598,
condition files/Stage1_1.xlsx,,T2,B2,m,"['c', 'm']","['Clue', 'Monopoly']","[-0.15, 0.5]","[0.15, 0.5]",1,1,,,,,,,,,0,2,2,2,0,0,0,3,,,,,,,,,,,,,,,,,,,,,,,,,,,,,,,,,,,,,,,,,,,,,,,,,,,,,,,703.7917121070004,None,703.7917121070004,None,703.7917121070004,None,c,0,1.3226408760001505,705.325634973,None,705.325634973,None,705.325634973,None,706.7088255250001,None,706.7088255250001,None,706.7088255250001,None,706.7088255250001,None,,,,,,,,,,,,,,,,,,,,,,,,,,,,,,,,,,,,,,,,,,,,001,155,2020_Feb_20_1321,spring_faces,3.1.5,59.78607466337598,
condition files/Stage1_1.xlsx,,T4,B3,m,"['c', 'm']","['Clue', 'Monopoly']","[-0.15, 0.5]","[0.15, 0.5]",1,1,,,,,,,,,0,2,2,2,0,1,1,6,,,,,,,,,,,,,,,,,,,,,,,,,,,,,,,,,,,,,,,,,,,,,,,,,,,,,,,708.6751228499998,None,708.6751228499998,None,708.6751228499998,None,m,1,1.3027419740010373,710.2094668379996,None,710.2094668379996,None,710.2094668379996,None,711.5757559640006,None,711.5757559640006,None,711.5757559640006,None,711.5757559640006,None,,,,,,,,,,,,,,,,,,,,,,,,,,,,,,,,,,,,,,,,,,,,001,155,2020_Feb_20_1321,spring_faces,3.1.5,59.78607466337598,
condition files/Stage1_1.xlsx,,B2,T1,m,"['c', 'm']","['Clue', 'Monopoly']","[-0.15, 0.5]","[0.15, 0.5]",1,1,,,,,,,,,0,2,2,2,0,2,2,2,,,,,,,,,,,,,,,,,,,,,,,,,,,,,,,,,,,,,,,,,,,,,,,,,,,,,,,713.541899504,None,713.541899504,None,713.541899504,None,m,1,1.811872668999058,715.0923344130006,None,715.0923344130006,None,715.0923344130006,None,716.9583253510009,None,716.9583253510009,None,716.9583253510009,None,716.9583253510009,None,,,,,,,,,,,,,,,,,,,,,,,,,,,,,,,,,,,,,,,,,,,,001,155,2020_Feb_20_1321,spring_faces,3.1.5,59.78607466337598,
condition files/Stage1_1.xlsx,,T1,B1,c,"['c', 'm']","['Clue', 'Monopoly']","[-0.15, 0.5]","[0.15, 0.5]",1,1,,,,,,,,,0,2,2,2,0,3,3,0,,,,,,,,,,,,,,,,,,,,,,,,,,,,,,,,,,,,,,,,,,,,,,,,,,,,,,,718.9253497110003,None,718.9253497110003,None,718.9253497110003,None,m,0,1.9481325589986227,720.4600907969998,None,720.4600907969998,None,720.4600907969998,None,722.4595213370012,None,722.4595213370012,None,722.4595213370012,None,722.4595213370012,None,,,,,,,,,,,,,,,,,,,,,,,,,,,,,,,,,,,,,,,,,,,,001,155,2020_Feb_20_1321,spring_faces,3.1.5,59.78607466337598,
condition files/Stage1_1.xlsx,,B3,T3,c,"['c', 'm']","['Clue', 'Monopoly']","[-0.15, 0.5]","[0.15, 0.5]",1,1,,,,,,,,,0,2,2,2,0,4,4,4,,,,,,,,,,,,,,,,,,,,,,,,,,,,,,,,,,,,,,,,,,,,,,,,,,,,,,,724.4253362520012,None,724.4253362520012,None,724.4253362520012,None,c,1,1.3436761270004354,725.9605629159996,None,725.9605629159996,None,725.9605629159996,None,727.3591415560004,None,727.3591415560004,None,727.3591415560004,None,727.3591415560004,None,,,,,,,,,,,,,,,,,,,,,,,,,,,,,,,,,,,,,,,,,,,,001,155,2020_Feb_20_1321,spring_faces,3.1.5,59.78607466337598,
condition files/Stage1_1.xlsx,,T3,B4,c,"['c', 'm']","['Clue', 'Monopoly']","[-0.15, 0.5]","[0.15, 0.5]",1,1,,,,,,,,,0,2,2,2,0,5,5,5,,,,,,,,,,,,,,,,,,,,,,,,,,,,,,,,,,,,,,,,,,,,,,,,,,,,,,,729.3251555940005,None,729.3251555940005,None,729.3251555940005,None,m,0,1.3576067869998951,730.8586930029996,None,730.8586930029996,None,730.8586930029996,None,732.2752389609996,None,732.2752389609996,None,732.2752389609996,None,732.2752389609996,None,,,,,,,,,,,,,,,,,,,,,,,,,,,,,,,,,,,,,,,,,,,,001,155,2020_Feb_20_1321,spring_faces,3.1.5,59.78607466337598,
condition files/Stage1_1.xlsx,,B4,T4,m,"['c', 'm']","['Clue', 'Monopoly']","[-0.15, 0.5]","[0.15, 0.5]",1,1,,,,,,,,,0,2,2,2,0,6,6,7,,,,,,,,,,,,,,,,,,,,,,,,,,,,,,,,,,,,,,,,,,,,,,,,,,,,,,,734.2416164740007,None,734.2416164740007,None,734.2416164740007,None,m,1,0.9843598759998713,735.7758136289995,None,735.7758136289995,None,735.7758136289995,None,736.8427103209997,None,736.8427103209997,None,736.8427103209997,None,736.8427103209997,None,,,,,,,,,,,,,,,,,,,,,,,,,,,,,,,,,,,,,,,,,,,,001,155,2020_Feb_20_1321,spring_faces,3.1.5,59.78607466337598,
condition files/Stage1_1.xlsx,,B1,T2,c,"['c', 'm']","['Clue', 'Monopoly']","[-0.15, 0.5]","[0.15, 0.5]",1,1,,,,,,,,,0,2,2,2,0,7,7,1,,,,,,,,,,,,,,,,,,,,,,,,,,,,,,,,,,,,,,,,,,,,,,,,,,,,,,,738.791465839,None,738.791465839,None,738.791465839,None,c,1,1.9379124759998376,740.3423136729998,None,740.3423136729998,None,740.3423136729998,None,742.3418287200002,None,742.3418287200002,None,742.3418287200002,None,742.3418287200002,None,,,,,,,,,,,,,,,,,,,,,,,,,,,,,,,,,,,,,,,,,,,,001,155,2020_Feb_20_1321,spring_faces,3.1.5,59.78607466337598,
condition files/Stage1_2.xlsx,,B2,T2,m,"['c', 'm']","['Clue', 'Monopoly']","[-0.15, 0.5]","[0.15, 0.5]",1,1,,,,,,,,,0,3,3,3,0,0,0,3,,,,,,,,,,,,,,,,,,,,,,,,,,,,,,,,,,,,,,,,,,,,,,,,,,,,,,,744.325051242,None,744.325051242,None,744.325051242,None,c,0,1.4115851369988377,745.8606202709998,None,745.8606202709998,None,745.8606202709998,None,747.3260514869999,None,747.3260514869999,None,747.3260514869999,None,747.3260514869999,None,,,,,,,,,,,,,,,,,,,,,,,,,,,,,,,,,,,,,,,,,,,,001,155,2020_Feb_20_1321,spring_faces,3.1.5,59.78607466337598,
condition files/Stage1_2.xlsx,,B4,T3,c,"['c', 'm']","['Clue', 'Monopoly']","[-0.15, 0.5]","[0.15, 0.5]",1,1,,,,,,,,,0,3,3,3,0,1,1,5,,,,,,,,,,,,,,,,,,,,,,,,,,,,,,,,,,,,,,,,,,,,,,,,,,,,,,,749.2918311100002,None,749.2918311100002,None,749.2918311100002,None,c,1,1.7255095830005303,750.8267929249996,None,750.8267929249996,None,750.8267929249996,None,752.6084325960001,None,752.6084325960001,None,752.6084325960001,None,752.6084325960001,None,,,,,,,,,,,,,,,,,,,,,,,,,,,,,,,,,,,,,,,,,,,,001,155,2020_Feb_20_1321,spring_faces,3.1.5,59.78607466337598,
condition files/Stage1_2.xlsx,,T3,B3,c,"['c', 'm']","['Clue', 'Monopoly']","[-0.15, 0.5]","[0.15, 0.5]",1,1,,,,,,,,,0,3,3,3,0,2,2,4,,,,,,,,,,,,,,,,,,,,,,,,,,,,,,,,,,,,,,,,,,,,,,,,,,,,,,,754.5752803020005,None,754.5752803020005,None,754.5752803020005,None,m,0,1.2592719280000892,756.1088751589996,None,756.1088751589996,None,756.1088751589996,None,757.4256241849998,None,757.4256241849998,None,757.4256241849998,None,757.4256241849998,None,,,,,,,,,,,,,,,,,,,,,,,,,,,,,,,,,,,,,,,,,,,,001,155,2020_Feb_20_1321,spring_faces,3.1.5,59.78607466337598,
condition files/Stage1_2.xlsx,,T2,B1,c,"['c', 'm']","['Clue', 'Monopoly']","[-0.15, 0.5]","[0.15, 0.5]",1,1,,,,,,,,,0,3,3,3,0,3,3,1,,,,,,,,,,,,,,,,,,,,,,,,,,,,,,,,,,,,,,,,,,,,,,,,,,,,,,,759.3920813019995,None,759.3920813019995,None,759.3920813019995,None,m,0,2.0258186150003894,760.942312516001,None,760.942312516001,None,760.942312516001,None,763.0255084830005,None,763.0255084830005,None,763.0255084830005,None,763.0255084830005,None,,,,,,,,,,,,,,,,,,,,,,,,,,,,,,,,,,,,,,,,,,,,001,155,2020_Feb_20_1321,spring_faces,3.1.5,59.78607466337598,
condition files/Stage1_2.xlsx,,T4,B4,m,"['c', 'm']","['Clue', 'Monopoly']","[-0.15, 0.5]","[0.15, 0.5]",1,1,,,,,,,,,0,3,3,3,0,4,4,7,,,,,,,,,,,,,,,,,,,,,,,,,,,,,,,,,,,,,,,,,,,,,,,,,,,,,,,764.9917975330009,None,764.9917975330009,None,764.9917975330009,None,m,1,0.7620646319992375,766.5261575410004,None,766.5261575410004,None,766.5261575410004,None,767.3425761449998,None,767.3425761449998,None,767.3425761449998,None,767.3425761449998,None,,,,,,,,,,,,,,,,,,,,,,,,,,,,,,,,,,,,,,,,,,,,001,155,2020_Feb_20_1321,spring_faces,3.1.5,59.78607466337598,
condition files/Stage1_2.xlsx,,B3,T4,m,"['c', 'm']","['Clue', 'Monopoly']","[-0.15, 0.5]","[0.15, 0.5]",1,1,,,,,,,,,0,3,3,3,0,5,5,6,,,,,,,,,,,,,,,,,,,,,,,,,,,,,,,,,,,,,,,,,,,,,,,,,,,,,,,769.3082966180009,None,769.3082966180009,None,769.3082966180009,None,m,1,1.0848034610007744,770.8434212410011,None,770.8434212410011,None,770.8434212410011,None,771.9923374789996,None,771.9923374789996,None,771.9923374789996,None,771.9923374789996,None,,,,,,,,,,,,,,,,,,,,,,,,,,,,,,,,,,,,,,,,,,,,001,155,2020_Feb_20_1321,spring_faces,3.1.5,59.78607466337598,
condition files/Stage1_2.xlsx,,T1,B2,m,"['c', 'm']","['Clue', 'Monopoly']","[-0.15, 0.5]","[0.15, 0.5]",1,1,,,,,,,,,0,3,3,3,0,6,6,2,,,,,,,,,,,,,,,,,,,,,,,,,,,,,,,,,,,,,,,,,,,,,,,,,,,,,,,773.9586445189998,None,773.9586445189998,None,773.9586445189998,None,c,0,1.3955745860002935,775.4926201449998,None,775.4926201449998,None,775.4926201449998,None,776.9425285630005,None,776.9425285630005,None,776.9425285630005,None,776.9425285630005,None,,,,,,,,,,,,,,,,,,,,,,,,,,,,,,,,,,,,,,,,,,,,001,155,2020_Feb_20_1321,spring_faces,3.1.5,59.78607466337598,
condition files/Stage1_2.xlsx,,B1,T1,c,"['c', 'm']","['Clue', 'Monopoly']","[-0.15, 0.5]","[0.15, 0.5]",1,1,,,,,,,,,0,3,3,3,0,7,7,0,,,,,,,,,,,,,,,,,,,,,,,,,,,,,,,,,,,,,,,,,,,,,,,,,,,,,,,778.9085890490005,None,778.9085890490005,None,778.9085890490005,None,c,1,1.4053499609999562,780.458866129,None,780.458866129,None,780.458866129,None,781.9269317560011,None,781.9269317560011,None,781.9269317560011,None,781.9269317560011,None,,,,,,,,,,,,,,,,,,,,,,,,,,,,,,,,,,,,,,,,,,,,001,155,2020_Feb_20_1321,spring_faces,3.1.5,59.78607466337598,
condition files/Stage1_1.xlsx,,B3,T3,c,"['c', 'm']","['Clue', 'Monopoly']","[-0.15, 0.5]","[0.15, 0.5]",1,1,,,,,,,,,0,4,4,4,0,0,0,4,,,,,,,,,,,,,,,,,,,,,,,,,,,,,,,,,,,,,,,,,,,,,,,,,,,,,,,783.9090981879999,None,783.9090981879999,None,783.9090981879999,None,m,0,1.3495213679998415,785.458697557,None,785.458697557,None,785.458697557,None,786.8585661300003,None,786.8585661300003,None,786.8585661300003,None,786.8585661300003,None,,,,,,,,,,,,,,,,,,,,,,,,,,,,,,,,,,,,,,,,,,,,001,155,2020_Feb_20_1321,spring_faces,3.1.5,59.78607466337598,
condition files/Stage1_1.xlsx,,B2,T1,m,"['c', 'm']","['Clue', 'Monopoly']","[-0.15, 0.5]","[0.15, 0.5]",1,1,,,,,,,,,0,4,4,4,0,1,1,2,,,,,,,,,,,,,,,,,,,,,,,,,,,,,,,,,,,,,,,,,,,,,,,,,,,,,,,788.8251403650011,None,788.8251403650011,None,788.8251403650011,None,m,1,0.9445988469997246,790.375612015001,None,790.375612015001,None,790.375612015001,None,791.391490905,None,791.391490905,None,791.391490905,None,791.391490905,None,,,,,,,,,,,,,,,,,,,,,,,,,,,,,,,,,,,,,,,,,,,,001,155,2020_Feb_20_1321,spring_faces,3.1.5,59.78607466337598,
condition files/Stage1_1.xlsx,,T3,B4,c,"['c', 'm']","['Clue', 'Monopoly']","[-0.15, 0.5]","[0.15, 0.5]",1,1,,,,,,,,,0,4,4,4,0,2,2,5,,,,,,,,,,,,,,,,,,,,,,,,,,,,,,,,,,,,,,,,,,,,,,,,,,,,,,,793.341899549001,None,793.341899549001,None,793.341899549001,None,c,1,2.6042527650006377,794.8919720459999,None,794.8919720459999,None,794.8919720459999,None,797.5757733099999,None,797.5757733099999,None,797.5757733099999,None,797.5757733099999,None,,,,,,,,,,,,,,,,,,,,,,,,,,,,,,,,,,,,,,,,,,,,001,155,2020_Feb_20_1321,spring_faces,3.1.5,59.78607466337598,
condition files/Stage1_1.xlsx,,B1,T2,c,"['c', 'm']","['Clue', 'Monopoly']","[-0.15, 0.5]","[0.15, 0.5]",1,1,,,,,,,,,0,4,4,4,0,3,3,1,,,,,,,,,,,,,,,,,,,,,,,,,,,,,,,,,,,,,,,,,,,,,,,,,,,,,,,799.525516482001,None,799.525516482001,None,799.525516482001,None,c,1,1.380483008999363,801.0757208060004,None,801.0757208060004,None,801.0757208060004,None,802.5081101640008,None,802.5081101640008,None,802.5081101640008,None,802.5081101640008,None,,,,,,,,,,,,,,,,,,,,,,,,,,,,,,,,,,,,,,,,,,,,001,155,2020_Feb_20_1321,spring_faces,3.1.5,59.78607466337598,
condition files/Stage1_1.xlsx,,T1,B1,c,"['c', 'm']","['Clue', 'Monopoly']","[-0.15, 0.5]","[0.15, 0.5]",1,1,,,,,,,,,0,4,4,4,0,4,4,0,,,,,,,,,,,,,,,,,,,,,,,,,,,,,,,,,,,,,,,,,,,,,,,,,,,,,,,804.4747574410012,None,804.4747574410012,None,804.4747574410012,None,m,0,1.0704137659995467,806.025803863,None,806.025803863,None,806.025803863,None,807.1593344490011,None,807.1593344490011,None,807.1593344490011,None,807.1593344490011,None,,,,,,,,,,,,,,,,,,,,,,,,,,,,,,,,,,,,,,,,,,,,001,155,2020_Feb_20_1321,spring_faces,3.1.5,59.78607466337598,
condition files/Stage1_1.xlsx,,T4,B3,m,"['c', 'm']","['Clue', 'Monopoly']","[-0.15, 0.5]","[0.15, 0.5]",1,1,,,,,,,,,0,4,4,4,0,5,5,6,,,,,,,,,,,,,,,,,,,,,,,,,,,,,,,,,,,,,,,,,,,,,,,,,,,,,,,809.1253512250005,None,809.1253512250005,None,809.1253512250005,None,m,1,1.2220373660002224,810.6581996180012,None,810.6581996180012,None,810.6581996180012,None,811.942975285001,None,811.942975285001,None,811.942975285001,None,811.942975285001,None,,,,,,,,,,,,,,,,,,,,,,,,,,,,,,,,,,,,,,,,,,,,001,155,2020_Feb_20_1321,spring_faces,3.1.5,59.78607466337598,
condition files/Stage1_1.xlsx,,T2,B2,m,"['c', 'm']","['Clue', 'Monopoly']","[-0.15, 0.5]","[0.15, 0.5]",1,1,,,,,,,,,0,4,4,4,0,6,6,3,,,,,,,,,,,,,,,,,,,,,,,,,,,,,,,,,,,,,,,,,,,,,,,,,,,,,,,813.9086626379994,None,813.9086626379994,None,813.9086626379994,None,m,1,2.2785218749995693,815.4416463360012,None,815.4416463360012,None,815.4416463360012,None,817.7755969580012,None,817.7755969580012,None,817.7755969580012,None,817.7755969580012,None,,,,,,,,,,,,,,,,,,,,,,,,,,,,,,,,,,,,,,,,,,,,001,155,2020_Feb_20_1321,spring_faces,3.1.5,59.78607466337598,
condition files/Stage1_1.xlsx,,B4,T4,m,"['c', 'm']","['Clue', 'Monopoly']","[-0.15, 0.5]","[0.15, 0.5]",1,1,,,,,,,,,0,4,4,4,0,7,7,7,,,,,,,,,,,,,,,,,,,,,,,,,,,,,,,,,,,,,,,,,,,,,,,,,,,,,,,819.7420652660003,None,819.7420652660003,None,819.7420652660003,None,m,1,1.724793855999451,821.275482264,None,821.275482264,None,821.275482264,None,823.0591228110006,None,823.0591228110006,None,823.0591228110006,None,823.0591228110006,None,,,,,,,,,,,,,,,,,,,,,,,,,,,,,,,,,,,,,,,,,,,,001,155,2020_Feb_20_1321,spring_faces,3.1.5,59.78607466337598,
condition files/Stage1_2.xlsx,,T1,B2,m,"['c', 'm']","['Clue', 'Monopoly']","[-0.15, 0.5]","[0.15, 0.5]",1,1,,,,,,,,,0,5,5,5,0,0,0,2,,,,,,,,,,,,,,,,,,,,,,,,,,,,,,,,,,,,,,,,,,,,,,,,,,,,,,,825.0425327699995,None,825.0425327699995,None,825.0425327699995,None,m,1,1.3516452769999887,826.5925727400008,None,826.5925727400008,None,826.5925727400008,None,828.0089611210005,None,828.0089611210005,None,828.0089611210005,None,828.0089611210005,None,,,,,,,,,,,,,,,,,,,,,,,,,,,,,,,,,,,,,,,,,,,,001,155,2020_Feb_20_1321,spring_faces,3.1.5,59.78607466337598,
condition files/Stage1_2.xlsx,,B4,T3,c,"['c', 'm']","['Clue', 'Monopoly']","[-0.15, 0.5]","[0.15, 0.5]",1,1,,,,,,,,,0,5,5,5,0,1,1,5,,,,,,,,,,,,,,,,,,,,,,,,,,,,,,,,,,,,,,,,,,,,,,,,,,,,,,,829.9746084520011,None,829.9746084520011,None,829.9746084520011,None,c,1,2.7709376129987504,831.5092910069998,None,831.5092910069998,None,831.5092910069998,None,834.3433038010007,None,834.3433038010007,None,834.3433038010007,None,834.3433038010007,None,,,,,,,,,,,,,,,,,,,,,,,,,,,,,,,,,,,,,,,,,,,,001,155,2020_Feb_20_1321,spring_faces,3.1.5,59.78607466337598,
condition files/Stage1_2.xlsx,,B3,T4,m,"['c', 'm']","['Clue', 'Monopoly']","[-0.15, 0.5]","[0.15, 0.5]",1,1,,,,,,,,,0,5,5,5,0,2,2,6,,,,,,,,,,,,,,,,,,,,,,,,,,,,,,,,,,,,,,,,,,,,,,,,,,,,,,,836.3085957120002,None,836.3085957120002,None,836.3085957120002,None,m,1,1.0939386440004455,837.858352616,None,837.858352616,None,837.858352616,None,839.0102401029999,None,839.0102401029999,None,839.0102401029999,None,839.0102401029999,None,,,,,,,,,,,,,,,,,,,,,,,,,,,,,,,,,,,,,,,,,,,,001,155,2020_Feb_20_1321,spring_faces,3.1.5,59.78607466337598,
condition files/Stage1_2.xlsx,,T3,B3,c,"['c', 'm']","['Clue', 'Monopoly']","[-0.15, 0.5]","[0.15, 0.5]",1,1,,,,,,,,,0,5,5,5,0,3,3,4,,,,,,,,,,,,,,,,,,,,,,,,,,,,,,,,,,,,,,,,,,,,,,,,,,,,,,,840.9753049610008,None,840.9753049610008,None,840.9753049610008,None,m,0,1.5944088590003958,842.5098198989999,None,842.5098198989999,None,842.5098198989999,None,844.1586586960002,None,844.1586586960002,None,844.1586586960002,None,844.1586586960002,None,,,,,,,,,,,,,,,,,,,,,,,,,,,,,,,,,,,,,,,,,,,,001,155,2020_Feb_20_1321,spring_faces,3.1.5,59.78607466337598,
condition files/Stage1_2.xlsx,,B2,T2,m,"['c', 'm']","['Clue', 'Monopoly']","[-0.15, 0.5]","[0.15, 0.5]",1,1,,,,,,,,,0,5,5,5,0,4,4,3,,,,,,,,,,,,,,,,,,,,,,,,,,,,,,,,,,,,,,,,,,,,,,,,,,,,,,,846.1251726980008,None,846.1251726980008,None,846.1251726980008,None,m,1,0.8915043159995548,847.6607909650011,None,847.6607909650011,None,847.6607909650011,None,848.625543098,None,848.625543098,None,848.625543098,None,848.625543098,None,,,,,,,,,,,,,,,,,,,,,,,,,,,,,,,,,,,,,,,,,,,,001,155,2020_Feb_20_1321,spring_faces,3.1.5,59.78607466337598,
condition files/Stage1_2.xlsx,,B1,T1,c,"['c', 'm']","['Clue', 'Monopoly']","[-0.15, 0.5]","[0.15, 0.5]",1,1,,,,,,,,,0,5,5,5,0,5,5,0,,,,,,,,,,,,,,,,,,,,,,,,,,,,,,,,,,,,,,,,,,,,,,,,,,,,,,,850.5750557169995,None,850.5750557169995,None,850.5750557169995,None,m,0,1.1302661210011138,852.1099599629997,None,852.1099599629997,None,852.1099599629997,None,853.3091585729999,None,853.3091585729999,None,853.3091585729999,None,853.3091585729999,None,,,,,,,,,,,,,,,,,,,,,,,,,,,,,,,,,,,,,,,,,,,,001,155,2020_Feb_20_1321,spring_faces,3.1.5,59.78607466337598,
condition files/Stage1_2.xlsx,,T2,B1,c,"['c', 'm']","['Clue', 'Monopoly']","[-0.15, 0.5]","[0.15, 0.5]",1,1,,,,,,,,,0,5,5,5,0,6,6,1,,,,,,,,,,,,,,,,,,,,,,,,,,,,,,,,,,,,,,,,,,,,,,,,,,,,,,,855.2585757289999,None,855.2585757289999,None,855.2585757289999,None,m,0,1.9989764250003645,856.8092306970011,None,856.8092306970011,None,856.8092306970011,None,858.8588402559999,None,858.8588402559999,None,858.8588402559999,None,858.8588402559999,None,,,,,,,,,,,,,,,,,,,,,,,,,,,,,,,,,,,,,,,,,,,,001,155,2020_Feb_20_1321,spring_faces,3.1.5,59.78607466337598,
condition files/Stage1_2.xlsx,,T4,B4,m,"['c', 'm']","['Clue', 'Monopoly']","[-0.15, 0.5]","[0.15, 0.5]",1,1,,,,,,,,,0,5,5,5,0,7,7,7,,,,,,,,,,,,,,,,,,,,,,,,,,,,,,,,,,,,,,,,,,,,,,,,,,,,,,,860.825474655001,None,860.825474655001,None,860.825474655001,None,m,1,1.025086890998864,862.3751863880007,None,862.3751863880007,None,862.3751863880007,None,863.4756047669998,None,863.4756047669998,None,863.4756047669998,None,863.4756047669998,None,,,,,,,,,,,,,,,,,,,,,,,,,,,,,,,,,,,,,,,,,,,,001,155,2020_Feb_20_1321,spring_faces,3.1.5,59.78607466337598,
condition files/Stage1_1.xlsx,,B2,T1,m,"['c', 'm']","['Clue', 'Monopoly']","[-0.15, 0.5]","[0.15, 0.5]",1,1,,,,,,,,,0,6,6,6,0,0,0,2,,,,,,,,,,,,,,,,,,,,,,,,,,,,,,,,,,,,,,,,,,,,,,,,,,,,,,,865.4422232470006,None,865.4422232470006,None,865.4422232470006,None,m,1,2.7907010270009778,866.9774625700011,None,866.9774625700011,None,866.9774625700011,None,869.8258386580001,None,869.8258386580001,None,869.8258386580001,None,869.8258386580001,None,,,,,,,,,,,,,,,,,,,,,,,,,,,,,,,,,,,,,,,,,,,,001,155,2020_Feb_20_1321,spring_faces,3.1.5,59.78607466337598,
condition files/Stage1_1.xlsx,,B1,T2,c,"['c', 'm']","['Clue', 'Monopoly']","[-0.15, 0.5]","[0.15, 0.5]",1,1,,,,,,,,,0,6,6,6,0,1,1,1,,,,,,,,,,,,,,,,,,,,,,,,,,,,,,,,,,,,,,,,,,,,,,,,,,,,,,,871.7919845640008,None,871.7919845640008,None,871.7919845640008,None,c,1,1.1285187720004615,873.3276865980006,None,873.3276865980006,None,873.3276865980006,None,874.5259538139999,None,874.5259538139999,None,874.5259538139999,None,874.5259538139999,None,,,,,,,,,,,,,,,,,,,,,,,,,,,,,,,,,,,,,,,,,,,,001,155,2020_Feb_20_1321,spring_faces,3.1.5,59.78607466337598,
condition files/Stage1_1.xlsx,,T4,B3,m,"['c', 'm']","['Clue', 'Monopoly']","[-0.15, 0.5]","[0.15, 0.5]",1,1,,,,,,,,,0,6,6,6,0,2,2,6,,,,,,,,,,,,,,,,,,,,,,,,,,,,,,,,,,,,,,,,,,,,,,,,,,,,,,,876.4753964150004,None,876.4753964150004,None,876.4753964150004,None,m,1,1.4549226369999815,878.0252927860001,None,878.0252927860001,None,878.0252927860001,None,879.5591051020001,None,879.5591051020001,None,879.5591051020001,None,879.5591051020001,None,,,,,,,,,,,,,,,,,,,,,,,,,,,,,,,,,,,,,,,,,,,,001,155,2020_Feb_20_1321,spring_faces,3.1.5,59.78607466337598,
condition files/Stage1_1.xlsx,,T3,B4,c,"['c', 'm']","['Clue', 'Monopoly']","[-0.15, 0.5]","[0.15, 0.5]",1,1,,,,,,,,,0,6,6,6,0,3,3,5,,,,,,,,,,,,,,,,,,,,,,,,,,,,,,,,,,,,,,,,,,,,,,,,,,,,,,,881.5085969600004,None,881.5085969600004,None,881.5085969600004,None,c,1,1.4614214750017709,883.058788186001,None,883.058788186001,None,883.058788186001,None,884.5920127589998,None,884.5920127589998,None,884.5920127589998,None,884.5920127589998,None,,,,,,,,,,,,,,,,,,,,,,,,,,,,,,,,,,,,,,,,,,,,001,155,2020_Feb_20_1321,spring_faces,3.1.5,59.78607466337598,
condition files/Stage1_1.xlsx,,T2,B2,m,"['c', 'm']","['Clue', 'Monopoly']","[-0.15, 0.5]","[0.15, 0.5]",1,1,,,,,,,,,0,6,6,6,0,4,4,3,,,,,,,,,,,,,,,,,,,,,,,,,,,,,,,,,,,,,,,,,,,,,,,,,,,,,,,886.5416338440009,None,886.5416338440009,None,886.5416338440009,None,c,0,2.588611043000128,888.09161365,None,888.09161365,None,888.09161365,None,890.7439038390003,None,890.7439038390003,None,890.7439038390003,None,890.7439038390003,None,,,,,,,,,,,,,,,,,,,,,,,,,,,,,,,,,,,,,,,,,,,,001,155,2020_Feb_20_1321,spring_faces,3.1.5,59.78607466337598,
condition files/Stage1_1.xlsx,,T1,B1,c,"['c', 'm']","['Clue', 'Monopoly']","[-0.15, 0.5]","[0.15, 0.5]",1,1,,,,,,,,,0,6,6,6,0,5,5,0,,,,,,,,,,,,,,,,,,,,,,,,,,,,,,,,,,,,,,,,,,,,,,,,,,,,,,,892.708333306,None,892.708333306,None,892.708333306,None,c,1,1.5256091960000049,894.2586667079995,None,894.2586667079995,None,894.2586667079995,None,895.8431768650007,None,895.8431768650007,None,895.8431768650007,None,895.8431768650007,None,,,,,,,,,,,,,,,,,,,,,,,,,,,,,,,,,,,,,,,,,,,,001,155,2020_Feb_20_1321,spring_faces,3.1.5,59.78607466337598,
condition files/Stage1_1.xlsx,,B4,T4,m,"['c', 'm']","['Clue', 'Monopoly']","[-0.15, 0.5]","[0.15, 0.5]",1,1,,,,,,,,,0,6,6,6,0,6,6,7,,,,,,,,,,,,,,,,,,,,,,,,,,,,,,,,,,,,,,,,,,,,,,,,,,,,,,,897.8088182740012,None,897.8088182740012,None,897.8088182740012,None,m,1,1.5288287669991405,899.343325623,None,899.343325623,None,899.343325623,None,900.9435309559994,None,900.9435309559994,None,900.9435309559994,None,900.9435309559994,None,,,,,,,,,,,,,,,,,,,,,,,,,,,,,,,,,,,,,,,,,,,,001,155,2020_Feb_20_1321,spring_faces,3.1.5,59.78607466337598,
condition files/Stage1_1.xlsx,,B3,T3,c,"['c', 'm']","['Clue', 'Monopoly']","[-0.15, 0.5]","[0.15, 0.5]",1,1,,,,,,,,,0,6,6,6,0,7,7,4,,,,,,,,,,,,,,,,,,,,,,,,,,,,,,,,,,,,,,,,,,,,,,,,,,,,,,,902.8916819509996,None,902.8916819509996,None,902.8916819509996,None,c,1,1.5507698389992584,904.4254218469996,None,904.4254218469996,None,904.4254218469996,None,906.0418246379995,None,906.0418246379995,None,906.0418246379995,None,906.0418246379995,None,,,,,,,,,,,,,,,,,,,,,,,,,,,,,,,,,,,,,,,,,,,,001,155,2020_Feb_20_1321,spring_faces,3.1.5,59.78607466337598,
condition files/Stage1_2.xlsx,,T2,B1,c,"['c', 'm']","['Clue', 'Monopoly']","[-0.15, 0.5]","[0.15, 0.5]",1,1,,,,,,,,,0,7,7,7,0,0,0,1,,,,,,,,,,,,,,,,,,,,,,,,,,,,,,,,,,,,,,,,,,,,,,,,,,,,,,,908.025535185001,None,908.025535185001,None,908.025535185001,None,m,0,1.5686017860007269,909.5756253020008,None,909.5756253020008,None,909.5756253020008,None,911.2090225009997,None,911.2090225009997,None,911.2090225009997,None,911.2090225009997,None,,,,,,,,,,,,,,,,,,,,,,,,,,,,,,,,,,,,,,,,,,,,001,155,2020_Feb_20_1321,spring_faces,3.1.5,59.78607466337598,
condition files/Stage1_2.xlsx,,B3,T4,m,"['c', 'm']","['Clue', 'Monopoly']","[-0.15, 0.5]","[0.15, 0.5]",1,1,,,,,,,,,0,7,7,7,0,1,1,6,,,,,,,,,,,,,,,,,,,,,,,,,,,,,,,,,,,,,,,,,,,,,,,,,,,,,,,913.1753359970007,None,913.1753359970007,None,913.1753359970007,None,m,1,0.9616323979989829,914.7105331300008,None,914.7105331300008,None,914.7105331300008,None,915.727900023001,None,915.727900023001,None,915.727900023001,None,915.727900023001,None,,,,,,,,,,,,,,,,,,,,,,,,,,,,,,,,,,,,,,,,,,,,001,155,2020_Feb_20_1321,spring_faces,3.1.5,59.78607466337598,
condition files/Stage1_2.xlsx,,B4,T3,c,"['c', 'm']","['Clue', 'Monopoly']","[-0.15, 0.5]","[0.15, 0.5]",1,1,,,,,,,,,0,7,7,7,0,2,2,5,,,,,,,,,,,,,,,,,,,,,,,,,,,,,,,,,,,,,,,,,,,,,,,,,,,,,,,917.6918516240003,None,917.6918516240003,None,917.6918516240003,None,c,1,1.4219741199995042,919.2422311620012,None,919.2422311620012,None,919.2422311620012,None,920.7422643900009,None,920.7422643900009,None,920.7422643900009,None,920.7422643900009,None,,,,,,,,,,,,,,,,,,,,,,,,,,,,,,,,,,,,,,,,,,,,001,155,2020_Feb_20_1321,spring_faces,3.1.5,59.78607466337598,
condition files/Stage1_2.xlsx,,T3,B3,c,"['c', 'm']","['Clue', 'Monopoly']","[-0.15, 0.5]","[0.15, 0.5]",1,1,,,,,,,,,0,7,7,7,0,3,3,4,,,,,,,,,,,,,,,,,,,,,,,,,,,,,,,,,,,,,,,,,,,,,,,,,,,,,,,922.6919465680003,None,922.6919465680003,None,922.6919465680003,None,c,1,1.1746763629998895,924.241595861,None,924.241595861,None,924.241595861,None,925.4759302010007,None,925.4759302010007,None,925.4759302010007,None,925.4759302010007,None,,,,,,,,,,,,,,,,,,,,,,,,,,,,,,,,,,,,,,,,,,,,001,155,2020_Feb_20_1321,spring_faces,3.1.5,59.78607466337598,
condition files/Stage1_2.xlsx,,B2,T2,m,"['c', 'm']","['Clue', 'Monopoly']","[-0.15, 0.5]","[0.15, 0.5]",1,1,,,,,,,,,0,7,7,7,0,4,4,3,,,,,,,,,,,,,,,,,,,,,,,,,,,,,,,,,,,,,,,,,,,,,,,,,,,,,,,927.4418664059995,None,927.4418664059995,None,927.4418664059995,None,m,1,1.1922432999999728,928.9920381400007,None,928.9920381400007,None,928.9920381400007,None,930.2593208159997,None,930.2593208159997,None,930.2593208159997,None,930.2593208159997,None,,,,,,,,,,,,,,,,,,,,,,,,,,,,,,,,,,,,,,,,,,,,001,155,2020_Feb_20_1321,spring_faces,3.1.5,59.78607466337598,
condition files/Stage1_2.xlsx,,T1,B2,m,"['c', 'm']","['Clue', 'Monopoly']","[-0.15, 0.5]","[0.15, 0.5]",1,1,,,,,,,,,0,7,7,7,0,5,5,2,,,,,,,,,,,,,,,,,,,,,,,,,,,,,,,,,,,,,,,,,,,,,,,,,,,,,,,932.2087144199995,None,932.2087144199995,None,932.2087144199995,None,c,0,2.2487691679998534,933.7434781089996,None,933.7434781089996,None,933.7434781089996,None,936.0422577059999,None,936.0422577059999,None,936.0422577059999,None,936.0422577059999,None,,,,,,,,,,,,,,,,,,,,,,,,,,,,,,,,,,,,,,,,,,,,001,155,2020_Feb_20_1321,spring_faces,3.1.5,59.78607466337598,
condition files/Stage1_2.xlsx,,T4,B4,m,"['c', 'm']","['Clue', 'Monopoly']","[-0.15, 0.5]","[0.15, 0.5]",1,1,,,,,,,,,0,7,7,7,0,6,6,7,,,,,,,,,,,,,,,,,,,,,,,,,,,,,,,,,,,,,,,,,,,,,,,,,,,,,,,938.0086226490002,None,938.0086226490002,None,938.0086226490002,None,m,1,1.2492171760004567,939.5589804320007,None,939.5589804320007,None,939.5589804320007,None,940.8585515840005,None,940.8585515840005,None,940.8585515840005,None,940.8585515840005,None,,,,,,,,,,,,,,,,,,,,,,,,,,,,,,,,,,,,,,,,,,,,001,155,2020_Feb_20_1321,spring_faces,3.1.5,59.78607466337598,
condition files/Stage1_2.xlsx,,B1,T1,c,"['c', 'm']","['Clue', 'Monopoly']","[-0.15, 0.5]","[0.15, 0.5]",1,1,,,,,,,,,0,7,7,7,0,7,7,0,,,,,,,,,,,,,,,,,,,,,,,,,,,,,,,,,,,,,,,,,,,,,,,,,,,,,,,942.8252306610011,None,942.8252306610011,None,942.8252306610011,None,c,1,2.5609065090011427,944.3752922519998,None,944.3752922519998,None,944.3752922519998,None,946.9940349860008,None,946.9940349860008,None,946.9940349860008,None,946.9940349860008,None,,,,,,,,,,,,,,,,,,,,,,,,,,,,,,,,,,,,,,,,,,,,001,155,2020_Feb_20_1321,spring_faces,3.1.5,59.78607466337598,
condition files/Stage1_1.xlsx,,T2,B2,m,"['c', 'm']","['Clue', 'Monopoly']","[-0.15, 0.5]","[0.15, 0.5]",1,1,,,,,,,,,0,8,8,8,0,0,0,3,,,,,,,,,,,,,,,,,,,,,,,,,,,,,,,,,,,,,,,,,,,,,,,,,,,,,,,948.9755263970001,None,948.9755263970001,None,948.9755263970001,None,m,1,1.5624642989987478,950.5257639259999,None,950.5257639259999,None,950.5257639259999,None,952.1424514419996,None,952.1424514419996,None,952.1424514419996,None,952.1424514419996,None,,,,,,,,,,,,,,,,,,,,,,,,,,,,,,,,,,,,,,,,,,,,001,155,2020_Feb_20_1321,spring_faces,3.1.5,59.78607466337598,
condition files/Stage1_1.xlsx,,T1,B1,c,"['c', 'm']","['Clue', 'Monopoly']","[-0.15, 0.5]","[0.15, 0.5]",1,1,,,,,,,,,0,8,8,8,0,1,1,0,,,,,,,,,,,,,,,,,,,,,,,,,,,,,,,,,,,,,,,,,,,,,,,,,,,,,,,954.107942056,None,954.107942056,None,954.107942056,None,c,1,0.9586232599995128,955.6416589750006,None,955.6416589750006,None,955.6416589750006,None,956.6601722409996,None,956.6601722409996,None,956.6601722409996,None,956.6601722409996,None,,,,,,,,,,,,,,,,,,,,,,,,,,,,,,,,,,,,,,,,,,,,001,155,2020_Feb_20_1321,spring_faces,3.1.5,59.78607466337598,
condition files/Stage1_1.xlsx,,T4,B3,m,"['c', 'm']","['Clue', 'Monopoly']","[-0.15, 0.5]","[0.15, 0.5]",1,1,,,,,,,,,0,8,8,8,0,2,2,6,,,,,,,,,,,,,,,,,,,,,,,,,,,,,,,,,,,,,,,,,,,,,,,,,,,,,,,958.6251247540004,None,958.6251247540004,None,958.6251247540004,None,m,1,0.8885329219992855,960.1756714460007,None,960.1756714460007,None,960.1756714460007,None,961.1420230719996,None,961.1420230719996,None,961.1420230719996,None,961.1420230719996,None,,,,,,,,,,,,,,,,,,,,,,,,,,,,,,,,,,,,,,,,,,,,001,155,2020_Feb_20_1321,spring_faces,3.1.5,59.78607466337598,
condition files/Stage1_1.xlsx,,B1,T2,c,"['c', 'm']","['Clue', 'Monopoly']","[-0.15, 0.5]","[0.15, 0.5]",1,1,,,,,,,,,0,8,8,8,0,3,3,1,,,,,,,,,,,,,,,,,,,,,,,,,,,,,,,,,,,,,,,,,,,,,,,,,,,,,,,963.0919445380005,None,963.0919445380005,None,963.0919445380005,None,c,1,2.757690663000176,964.6425894330005,None,964.6425894330005,None,964.6425894330005,None,967.4583818589999,None,967.4583818589999,None,967.4583818589999,None,967.4583818589999,None,,,,,,,,,,,,,,,,,,,,,,,,,,,,,,,,,,,,,,,,,,,,001,155,2020_Feb_20_1321,spring_faces,3.1.5,59.78607466337598,
condition files/Stage1_1.xlsx,,B4,T4,m,"['c', 'm']","['Clue', 'Monopoly']","[-0.15, 0.5]","[0.15, 0.5]",1,1,,,,,,,,,0,8,8,8,0,4,4,7,,,,,,,,,,,,,,,,,,,,,,,,,,,,,,,,,,,,,,,,,,,,,,,,,,,,,,,969.4253851480007,None,969.4253851480007,None,969.4253851480007,None,m,1,0.8736408120003034,970.9585821660003,None,970.9585821660003,None,970.9585821660003,None,971.893920980001,None,971.893920980001,None,971.893920980001,None,971.893920980001,None,,,,,,,,,,,,,,,,,,,,,,,,,,,,,,,,,,,,,,,,,,,,001,155,2020_Feb_20_1321,spring_faces,3.1.5,59.78607466337598,
condition files/Stage1_1.xlsx,,B2,T1,m,"['c', 'm']","['Clue', 'Monopoly']","[-0.15, 0.5]","[0.15, 0.5]",1,1,,,,,,,,,0,8,8,8,0,5,5,2,,,,,,,,,,,,,,,,,,,,,,,,,,,,,,,,,,,,,,,,,,,,,,,,,,,,,,,973.8587442810003,None,973.8587442810003,None,973.8587442810003,None,m,1,0.9352666560007492,975.408946642001,None,975.408946642001,None,975.408946642001,None,976.4088604530007,None,976.4088604530007,None,976.4088604530007,None,976.4088604530007,None,,,,,,,,,,,,,,,,,,,,,,,,,,,,,,,,,,,,,,,,,,,,001,155,2020_Feb_20_1321,spring_faces,3.1.5,59.78607466337598,
condition files/Stage1_1.xlsx,,T3,B4,c,"['c', 'm']","['Clue', 'Monopoly']","[-0.15, 0.5]","[0.15, 0.5]",1,1,,,,,,,,,0,8,8,8,0,6,6,5,,,,,,,,,,,,,,,,,,,,,,,,,,,,,,,,,,,,,,,,,,,,,,,,,,,,,,,978.3747395009996,None,978.3747395009996,None,978.3747395009996,None,c,1,1.1550548420000268,979.9251773870001,None,979.9251773870001,None,979.9251773870001,None,981.1446411609995,None,981.1446411609995,None,981.1446411609995,None,981.1446411609995,None,,,,,,,,,,,,,,,,,,,,,,,,,,,,,,,,,,,,,,,,,,,,001,155,2020_Feb_20_1321,spring_faces,3.1.5,59.78607466337598,
condition files/Stage1_1.xlsx,,B3,T3,c,"['c', 'm']","['Clue', 'Monopoly']","[-0.15, 0.5]","[0.15, 0.5]",1,1,,,,,,,,,0,8,8,8,0,7,7,4,,,,,,,,,,,,,,,,,,,,,,,,,,,,,,,,,,,,,,,,,,,,,,,,,,,,,,,983.108644109001,None,983.108644109001,None,983.108644109001,None,m,0,0.8524615130008897,984.6437677390004,None,984.6437677390004,None,984.6437677390004,None,985.558350020001,None,985.558350020001,None,985.558350020001,None,985.558350020001,None,,,,,,,,,,,,,,,,,,,,,,,,,,,,,,,,,,,,,,,,,,,,001,155,2020_Feb_20_1321,spring_faces,3.1.5,59.78607466337598,
condition files/Stage1_2.xlsx,,T3,B3,c,"['c', 'm']","['Clue', 'Monopoly']","[-0.15, 0.5]","[0.15, 0.5]",1,1,,,,,,,,,0,9,9,9,0,0,0,4,,,,,,,,,,,,,,,,,,,,,,,,,,,,,,,,,,,,,,,,,,,,,,,,,,,,,,,987.5425361400012,None,987.5425361400012,None,987.5425361400012,None,c,1,1.6038625169985607,989.0923763829996,None,989.0923763829996,None,989.0923763829996,None,990.75854936,None,990.75854936,None,990.75854936,None,990.75854936,None,,,,,,,,,,,,,,,,,,,,,,,,,,,,,,,,,,,,,,,,,,,,001,155,2020_Feb_20_1321,spring_faces,3.1.5,59.78607466337598,
condition files/Stage1_2.xlsx,,T1,B2,m,"['c', 'm']","['Clue', 'Monopoly']","[-0.15, 0.5]","[0.15, 0.5]",1,1,,,,,,,,,0,9,9,9,0,1,1,2,,,,,,,,,,,,,,,,,,,,,,,,,,,,,,,,,,,,,,,,,,,,,,,,,,,,,,,992.7248467280006,None,992.7248467280006,None,992.7248467280006,None,m,1,1.2686921479999,994.2755151479996,None,994.2755151479996,None,994.2755151479996,None,995.6113413370003,None,995.6113413370003,None,995.6113413370003,None,995.6113413370003,None,,,,,,,,,,,,,,,,,,,,,,,,,,,,,,,,,,,,,,,,,,,,001,155,2020_Feb_20_1321,spring_faces,3.1.5,59.78607466337598,
condition files/Stage1_2.xlsx,,B4,T3,c,"['c', 'm']","['Clue', 'Monopoly']","[-0.15, 0.5]","[0.15, 0.5]",1,1,,,,,,,,,0,9,9,9,0,2,2,5,,,,,,,,,,,,,,,,,,,,,,,,,,,,,,,,,,,,,,,,,,,,,,,,,,,,,,,997.5753010509998,None,997.5753010509998,None,997.5753010509998,None,c,1,1.2830453509996005,999.125161635,None,999.125161635,None,999.125161635,None,1000.4757153110004,None,1000.4757153110004,None,1000.4757153110004,None,1000.4757153110004,None,,,,,,,,,,,,,,,,,,,,,,,,,,,,,,,,,,,,,,,,,,,,001,155,2020_Feb_20_1321,spring_faces,3.1.5,59.78607466337598,
condition files/Stage1_2.xlsx,,B2,T2,m,"['c', 'm']","['Clue', 'Monopoly']","[-0.15, 0.5]","[0.15, 0.5]",1,1,,,,,,,,,0,9,9,9,0,3,3,3,,,,,,,,,,,,,,,,,,,,,,,,,,,,,,,,,,,,,,,,,,,,,,,,,,,,,,,1002.4258707890003,None,1002.4258707890003,None,1002.4258707890003,None,m,1,3.6807591840006353,1003.9754587059997,None,1003.9754587059997,None,1003.9754587059997,None,1007.7257681760002,None,1007.7257681760002,None,1007.7257681760002,None,1007.7257681760002,None,,,,,,,,,,,,,,,,,,,,,,,,,,,,,,,,,,,,,,,,,,,,001,155,2020_Feb_20_1321,spring_faces,3.1.5,59.78607466337598,
condition files/Stage1_2.xlsx,,T2,B1,c,"['c', 'm']","['Clue', 'Monopoly']","[-0.15, 0.5]","[0.15, 0.5]",1,1,,,,,,,,,0,9,9,9,0,4,4,1,,,,,,,,,,,,,,,,,,,,,,,,,,,,,,,,,,,,,,,,,,,,,,,,,,,,,,,1009.6752240220012,None,1009.6752240220012,None,1009.6752240220012,None,m,0,1.4864498049992108,1011.2257611870009,None,1011.2257611870009,None,1011.2257611870009,None,1012.7924457190002,None,1012.7924457190002,None,1012.7924457190002,None,1012.7924457190002,None,,,,,,,,,,,,,,,,,,,,,,,,,,,,,,,,,,,,,,,,,,,,001,155,2020_Feb_20_1321,spring_faces,3.1.5,59.78607466337598,
condition files/Stage1_2.xlsx,,T4,B4,m,"['c', 'm']","['Clue', 'Monopoly']","[-0.15, 0.5]","[0.15, 0.5]",1,1,,,,,,,,,0,9,9,9,0,5,5,7,,,,,,,,,,,,,,,,,,,,,,,,,,,,,,,,,,,,,,,,,,,,,,,,,,,,,,,1014.7416879070006,None,1014.7416879070006,None,1014.7416879070006,None,m,1,1.1079500209998514,1016.2922244370002,None,1016.2922244370002,None,1016.2922244370002,None,1017.4750509599999,None,1017.4750509599999,None,1017.4750509599999,None,1017.4750509599999,None,,,,,,,,,,,,,,,,,,,,,,,,,,,,,,,,,,,,,,,,,,,,001,155,2020_Feb_20_1321,spring_faces,3.1.5,59.78607466337598,
condition files/Stage1_2.xlsx,,B1,T1,c,"['c', 'm']","['Clue', 'Monopoly']","[-0.15, 0.5]","[0.15, 0.5]",1,1,,,,,,,,,0,9,9,9,0,6,6,0,,,,,,,,,,,,,,,,,,,,,,,,,,,,,,,,,,,,,,,,,,,,,,,,,,,,,,,1019.4250230609996,None,1019.4250230609996,None,1019.4250230609996,None,c,1,1.3363050380012282,1020.9759181900008,None,1020.9759181900008,None,1020.9759181900008,None,1022.3923139760009,None,1022.3923139760009,None,1022.3923139760009,None,1022.3923139760009,None,,,,,,,,,,,,,,,,,,,,,,,,,,,,,,,,,,,,,,,,,,,,001,155,2020_Feb_20_1321,spring_faces,3.1.5,59.78607466337598,
condition files/Stage1_2.xlsx,,B3,T4,m,"['c', 'm']","['Clue', 'Monopoly']","[-0.15, 0.5]","[0.15, 0.5]",1,1,,,,,,,,,0,9,9,9,0,7,7,6,,,,,,,,,,,,,,,,,,,,,,,,,,,,,,,,,,,,,,,,,,,,,,,,,,,,,,,1024.3419090340012,None,1024.3419090340012,None,1024.3419090340012,None,m,1,1.0609183979995578,1025.8752624490007,None,1025.8752624490007,None,1025.8752624490007,None,1026.992587918001,None,1026.992587918001,None,1026.992587918001,None,1026.992587918001,None,,,,,,,,,,,,,,,,,,,,,,,,,,,,,,,,,,,,,,,,,,,,001,155,2020_Feb_20_1321,spring_faces,3.1.5,59.78607466337598,
condition files/Stage1_1.xlsx,,B4,T4,m,"['c', 'm']","['Clue', 'Monopoly']","[-0.15, 0.5]","[0.15, 0.5]",1,1,,,,,,,,,0,10,10,10,0,0,0,7,,,,,,,,,,,,,,,,,,,,,,,,,,,,,,,,,,,,,,,,,,,,,,,,,,,,,,,1028.9759234030007,None,1028.9759234030007,None,1028.9759234030007,None,m,1,0.9228204930004722,1030.525460795001,None,1030.525460795001,None,1030.525460795001,None,1031.5085504350009,None,1031.5085504350009,None,1031.5085504350009,None,1031.5085504350009,None,,,,,,,,,,,,,,,,,,,,,,,,,,,,,,,,,,,,,,,,,,,,001,155,2020_Feb_20_1321,spring_faces,3.1.5,59.78607466337598,
condition files/Stage1_1.xlsx,,B1,T2,c,"['c', 'm']","['Clue', 'Monopoly']","[-0.15, 0.5]","[0.15, 0.5]",1,1,,,,,,,,,0,10,10,10,0,1,1,1,,,,,,,,,,,,,,,,,,,,,,,,,,,,,,,,,,,,,,,,,,,,,,,,,,,,,,,1033.4746999809995,None,1033.4746999809995,None,1033.4746999809995,None,c,1,0.8533157500005473,1035.0108739320003,None,1035.0108739320003,None,1035.0108739320003,None,1035.9276396469995,None,1035.9276396469995,None,1035.9276396469995,None,1035.9276396469995,None,,,,,,,,,,,,,,,,,,,,,,,,,,,,,,,,,,,,,,,,,,,,001,155,2020_Feb_20_1321,spring_faces,3.1.5,59.78607466337598,
condition files/Stage1_1.xlsx,,T4,B3,m,"['c', 'm']","['Clue', 'Monopoly']","[-0.15, 0.5]","[0.15, 0.5]",1,1,,,,,,,,,0,10,10,10,0,2,2,6,,,,,,,,,,,,,,,,,,,,,,,,,,,,,,,,,,,,,,,,,,,,,,,,,,,,,,,1037.8920272699997,None,1037.8920272699997,None,1037.8920272699997,None,m,1,0.9022520929993334,1039.4419569559996,None,1039.4419569559996,None,1039.4419569559996,None,1040.4253720899997,None,1040.4253720899997,None,1040.4253720899997,None,1040.4253720899997,None,,,,,,,,,,,,,,,,,,,,,,,,,,,,,,,,,,,,,,,,,,,,001,155,2020_Feb_20_1321,spring_faces,3.1.5,59.78607466337598,
condition files/Stage1_1.xlsx,,B2,T1,m,"['c', 'm']","['Clue', 'Monopoly']","[-0.15, 0.5]","[0.15, 0.5]",1,1,,,,,,,,,0,10,10,10,0,3,3,2,,,,,,,,,,,,,,,,,,,,,,,,,,,,,,,,,,,,,,,,,,,,,,,,,,,,,,,1042.3757553369996,None,1042.3757553369996,None,1042.3757553369996,None,m,1,1.0264763400009542,1043.925797973001,None,1043.925797973001,None,1043.925797973001,None,1045.0091999830001,None,1045.0091999830001,None,1045.0091999830001,None,1045.0091999830001,None,,,,,,,,,,,,,,,,,,,,,,,,,,,,,,,,,,,,,,,,,,,,001,155,2020_Feb_20_1321,spring_faces,3.1.5,59.78607466337598,
condition files/Stage1_1.xlsx,,B3,T3,c,"['c', 'm']","['Clue', 'Monopoly']","[-0.15, 0.5]","[0.15, 0.5]",1,1,,,,,,,,,0,10,10,10,0,4,4,4,,,,,,,,,,,,,,,,,,,,,,,,,,,,,,,,,,,,,,,,,,,,,,,,,,,,,,,1046.9750118350003,None,1046.9750118350003,None,1046.9750118350003,None,c,1,1.3554727279988583,1048.508769686001,None,1048.508769686001,None,1048.508769686001,None,1049.942361114001,None,1049.942361114001,None,1049.942361114001,None,1049.942361114001,None,,,,,,,,,,,,,,,,,,,,,,,,,,,,,,,,,,,,,,,,,,,,001,155,2020_Feb_20_1321,spring_faces,3.1.5,59.78607466337598,
condition files/Stage1_1.xlsx,,T2,B2,m,"['c', 'm']","['Clue', 'Monopoly']","[-0.15, 0.5]","[0.15, 0.5]",1,1,,,,,,,,,0,10,10,10,0,5,5,3,,,,,,,,,,,,,,,,,,,,,,,,,,,,,,,,,,,,,,,,,,,,,,,,,,,,,,,1051.8920481429996,None,1051.8920481429996,None,1051.8920481429996,None,m,1,1.333793040999808,1053.4423605829998,None,1053.4423605829998,None,1053.4423605829998,None,1054.8437382110005,None,1054.8437382110005,None,1054.8437382110005,None,1054.8437382110005,None,,,,,,,,,,,,,,,,,,,,,,,,,,,,,,,,,,,,,,,,,,,,001,155,2020_Feb_20_1321,spring_faces,3.1.5,59.78607466337598,
condition files/Stage1_1.xlsx,,T1,B1,c,"['c', 'm']","['Clue', 'Monopoly']","[-0.15, 0.5]","[0.15, 0.5]",1,1,,,,,,,,,0,10,10,10,0,6,6,0,,,,,,,,,,,,,,,,,,,,,,,,,,,,,,,,,,,,,,,,,,,,,,,,,,,,,,,1056.8086679669996,None,1056.8086679669996,None,1056.8086679669996,None,c,1,1.5217018559997086,1058.358545721001,None,1058.358545721001,None,1058.358545721001,None,1059.9593360430008,None,1059.9593360430008,None,1059.9593360430008,None,1059.9593360430008,None,,,,,,,,,,,,,,,,,,,,,,,,,,,,,,,,,,,,,,,,,,,,001,155,2020_Feb_20_1321,spring_faces,3.1.5,59.78607466337598,
condition files/Stage1_1.xlsx,,T3,B4,c,"['c', 'm']","['Clue', 'Monopoly']","[-0.15, 0.5]","[0.15, 0.5]",1,1,,,,,,,,,0,10,10,10,0,7,7,5,,,,,,,,,,,,,,,,,,,,,,,,,,,,,,,,,,,,,,,,,,,,,,,,,,,,,,,1061.9086225320007,None,1061.9086225320007,None,1061.9086225320007,None,c,1,1.8292469169991818,1063.4589684399998,None,1063.4589684399998,None,1063.4589684399998,None,1065.3420185510004,None,1065.3420185510004,None,1065.3420185510004,None,1065.3420185510004,None,,,,,,,,,,,,,,,,,,,,,,,,,,,,,,,,,,,,,,,,,,,,001,155,2020_Feb_20_1321,spring_faces,3.1.5,59.78607466337598,
condition files/Stage1_2.xlsx,,T2,B1,c,"['c', 'm']","['Clue', 'Monopoly']","[-0.15, 0.5]","[0.15, 0.5]",1,1,,,,,,,,,0,11,11,11,0,0,0,1,,,,,,,,,,,,,,,,,,,,,,,,,,,,,,,,,,,,,,,,,,,,,,,,,,,,,,,1067.3256628220006,None,1067.3256628220006,None,1067.3256628220006,None,m,0,1.3556341559997236,1068.86067034,None,1068.86067034,None,1068.86067034,None,1070.275232381,None,1070.275232381,None,1070.275232381,None,1070.275232381,None,,,,,,,,,,,,,,,,,,,,,,,,,,,,,,,,,,,,,,,,,,,,001,155,2020_Feb_20_1321,spring_faces,3.1.5,59.78607466337598,
condition files/Stage1_2.xlsx,,B2,T2,m,"['c', 'm']","['Clue', 'Monopoly']","[-0.15, 0.5]","[0.15, 0.5]",1,1,,,,,,,,,0,11,11,11,0,1,1,3,,,,,,,,,,,,,,,,,,,,,,,,,,,,,,,,,,,,,,,,,,,,,,,,,,,,,,,1072.2418398110003,None,1072.2418398110003,None,1072.2418398110003,None,m,1,1.7049212290003197,1073.775321174,None,1073.775321174,None,1073.775321174,None,1075.5421078649997,None,1075.5421078649997,None,1075.5421078649997,None,1075.5421078649997,None,,,,,,,,,,,,,,,,,,,,,,,,,,,,,,,,,,,,,,,,,,,,001,155,2020_Feb_20_1321,spring_faces,3.1.5,59.78607466337598,
condition files/Stage1_2.xlsx,,T3,B3,c,"['c', 'm']","['Clue', 'Monopoly']","[-0.15, 0.5]","[0.15, 0.5]",1,1,,,,,,,,,0,11,11,11,0,2,2,4,,,,,,,,,,,,,,,,,,,,,,,,,,,,,,,,,,,,,,,,,,,,,,,,,,,,,,,1077.508803746001,None,1077.508803746001,None,1077.508803746001,None,c,1,1.3180324900004052,1079.0421269390008,None,1079.0421269390008,None,1079.0421269390008,None,1080.4261999110004,None,1080.4261999110004,None,1080.4261999110004,None,1080.4261999110004,None,,,,,,,,,,,,,,,,,,,,,,,,,,,,,,,,,,,,,,,,,,,,001,155,2020_Feb_20_1321,spring_faces,3.1.5,59.78607466337598,
condition files/Stage1_2.xlsx,,B3,T4,m,"['c', 'm']","['Clue', 'Monopoly']","[-0.15, 0.5]","[0.15, 0.5]",1,1,,,,,,,,,0,11,11,11,0,3,3,6,,,,,,,,,,,,,,,,,,,,,,,,,,,,,,,,,,,,,,,,,,,,,,,,,,,,,,,1082.391403179001,None,1082.391403179001,None,1082.391403179001,None,m,1,0.9458113860000594,1083.9424047800003,None,1083.9424047800003,None,1083.9424047800003,None,1084.9587924429998,None,1084.9587924429998,None,1084.9587924429998,None,1084.9587924429998,None,,,,,,,,,,,,,,,,,,,,,,,,,,,,,,,,,,,,,,,,,,,,001,155,2020_Feb_20_1321,spring_faces,3.1.5,59.78607466337598,
condition files/Stage1_2.xlsx,,B4,T3,c,"['c', 'm']","['Clue', 'Monopoly']","[-0.15, 0.5]","[0.15, 0.5]",1,1,,,,,,,,,0,11,11,11,0,4,4,5,,,,,,,,,,,,,,,,,,,,,,,,,,,,,,,,,,,,,,,,,,,,,,,,,,,,,,,1086.9081609220011,None,1086.9081609220011,None,1086.9081609220011,None,c,1,1.3249318939997465,1088.459335808,None,1088.459335808,None,1088.459335808,None,1089.8589634769996,None,1089.8589634769996,None,1089.8589634769996,None,1089.8589634769996,None,,,,,,,,,,,,,,,,,,,,,,,,,,,,,,,,,,,,,,,,,,,,001,155,2020_Feb_20_1321,spring_faces,3.1.5,59.78607466337598,
condition files/Stage1_2.xlsx,,B1,T1,c,"['c', 'm']","['Clue', 'Monopoly']","[-0.15, 0.5]","[0.15, 0.5]",1,1,,,,,,,,,0,11,11,11,0,5,5,0,,,,,,,,,,,,,,,,,,,,,,,,,,,,,,,,,,,,,,,,,,,,,,,,,,,,,,,1091.808122765,None,1091.808122765,None,1091.808122765,None,c,1,1.9281772110007296,1093.344115748001,None,1093.344115748001,None,1093.344115748001,None,1095.325362181,None,1095.325362181,None,1095.325362181,None,1095.325362181,None,,,,,,,,,,,,,,,,,,,,,,,,,,,,,,,,,,,,,,,,,,,,001,155,2020_Feb_20_1321,spring_faces,3.1.5,59.78607466337598,
condition files/Stage1_2.xlsx,,T1,B2,m,"['c', 'm']","['Clue', 'Monopoly']","[-0.15, 0.5]","[0.15, 0.5]",1,1,,,,,,,,,0,11,11,11,0,6,6,2,,,,,,,,,,,,,,,,,,,,,,,,,,,,,,,,,,,,,,,,,,,,,,,,,,,,,,,1097.291923967001,None,1097.291923967001,None,1097.291923967001,None,m,1,1.3581202479999774,1098.8261808780007,None,1098.8261808780007,None,1098.8261808780007,None,1100.259150367001,None,1100.259150367001,None,1100.259150367001,None,1100.259150367001,None,,,,,,,,,,,,,,,,,,,,,,,,,,,,,,,,,,,,,,,,,,,,001,155,2020_Feb_20_1321,spring_faces,3.1.5,59.78607466337598,
condition files/Stage1_2.xlsx,,T4,B4,m,"['c', 'm']","['Clue', 'Monopoly']","[-0.15, 0.5]","[0.15, 0.5]",1,1,,,,,,,,,0,11,11,11,0,7,7,7,,,,,,,,,,,,,,,,,,,,,,,,,,,,,,,,,,,,,,,,,,,,,,,,,,,,,,,1102.2082190649999,None,1102.2082190649999,None,1102.2082190649999,None,m,1,0.8404514969988668,1103.743848289001,None,1103.743848289001,None,1103.743848289001,None,1104.6419646449995,None,1104.6419646449995,None,1104.6419646449995,None,1104.6419646449995,None,,,,,,,,,,,,,,,,,,,,,,,,,,,,,,,,,,,,,,,,,,,,001,155,2020_Feb_20_1321,spring_faces,3.1.5,59.78607466337598,
,,,,,,,,,,,,,,,,,,,,,,,,,,,,,,,,,,,,,,,,,,,,,,,,,,,,,,,,,,,,,,,,,,,,,,,,,,,,,,,,,,,,,,,,,,,,,,,,,,,,,,,,,,,,,,,,1106.6254352690012,None,space,7.518911467999715,1111.6253114570009,None,,,,,,,,,,,,,,,,,,,,,,,,,,,,,,001,155,2020_Feb_20_1321,spring_faces,3.1.5,59.78607466337598,
condition files/Stage2_1.xlsx,,B4,T4,r,"['s', 'r']","['Stratego', 'Risk']","[-0.15, 0.5]","[0.15, 0.5]",1,1,,,,,,,,,,,,,,,,,0,0,0,0,0,0,0,5,,,,,,,,,,,,,,,,,,,,,,,,,,,,,,,,,,,,,,,,,,,,,,,1119.2092600449996,None,1119.2092600449996,None,1119.2092600449996,None,s,0,1.6978919899993343,1120.742331454001,None,1120.742331454001,None,1120.742331454001,None,1122.4940195199997,None,1122.4940195199997,None,1122.4940195199997,None,1122.4940195199997,None,,,,,,,,,,,,,,,1111.6253114570009,None,,,,,,,,,,,,,,,,,,,,,,,,,,,,001,155,2020_Feb_20_1321,spring_faces,3.1.5,59.78607466337598,
condition files/Stage2_1.xlsx,,B6,T6,r,"['s', 'r']","['Stratego', 'Risk']","[-0.15, 0.5]","[0.15, 0.5]",1,1,,,,,,,,,,,,,,,,,0,0,0,0,0,1,1,1,,,,,,,,,,,,,,,,,,,,,,,,,,,,,,,,,,,,,,,,,,,,,,,1124.458097779001,None,1124.458097779001,None,1124.458097779001,None,s,0,2.702961139000763,1125.9932839510002,None,1125.9932839510002,None,1125.9932839510002,None,1128.7586054889998,None,1128.7586054889998,None,1128.7586054889998,None,1128.7586054889998,None,,,,,,,,,,,,,,,,,,,,,,,,,,,,,,,,,,,,,,,,,,,,001,155,2020_Feb_20_1321,spring_faces,3.1.5,59.78607466337598,
condition files/Stage2_1.xlsx,,T1,B1,s,"['s', 'r']","['Stratego', 'Risk']","[-0.15, 0.5]","[0.15, 0.5]",1,1,,,,,,,,,,,,,,,,,0,0,0,0,0,2,2,2,,,,,,,,,,,,,,,,,,,,,,,,,,,,,,,,,,,,,,,,,,,,,,,1130.7250307390004,None,1130.7250307390004,None,1130.7250307390004,None,r,0,1.1406827549999434,1132.2756087030011,None,1132.2756087030011,None,1132.2756087030011,None,1133.4924736730009,None,1133.4924736730009,None,1133.4924736730009,None,1133.4924736730009,None,,,,,,,,,,,,,,,,,,,,,,,,,,,,,,,,,,,,,,,,,,,,001,155,2020_Feb_20_1321,spring_faces,3.1.5,59.78607466337598,
condition files/Stage2_1.xlsx,,T3,B3,s,"['s', 'r']","['Stratego', 'Risk']","[-0.15, 0.5]","[0.15, 0.5]",1,1,,,,,,,,,,,,,,,,,0,0,0,0,0,3,3,4,,,,,,,,,,,,,,,,,,,,,,,,,,,,,,,,,,,,,,,,,,,,,,,1135.4419623209997,None,1135.4419623209997,None,1135.4419623209997,None,r,0,1.4647525250002218,1136.9754778080005,None,1136.9754778080005,None,1136.9754778080005,None,1138.492345943001,None,1138.492345943001,None,1138.492345943001,None,1138.492345943001,None,,,,,,,,,,,,,,,,,,,,,,,,,,,,,,,,,,,,,,,,,,,,001,155,2020_Feb_20_1321,spring_faces,3.1.5,59.78607466337598,
condition files/Stage2_1.xlsx,,B2,T2,r,"['s', 'r']","['Stratego', 'Risk']","[-0.15, 0.5]","[0.15, 0.5]",1,1,,,,,,,,,,,,,,,,,0,0,0,0,0,4,4,3,,,,,,,,,,,,,,,,,,,,,,,,,,,,,,,,,,,,,,,,,,,,,,,1140.4581294560012,None,1140.4581294560012,None,1140.4581294560012,None,s,0,1.5507670650004002,1141.993473341001,None,1141.993473341001,None,1141.993473341001,None,1143.6259041360008,None,1143.6259041360008,None,1143.6259041360008,None,1143.6259041360008,None,,,,,,,,,,,,,,,,,,,,,,,,,,,,,,,,,,,,,,,,,,,,001,155,2020_Feb_20_1321,spring_faces,3.1.5,59.78607466337598,
condition files/Stage2_1.xlsx,,T5,B5,s,"['s', 'r']","['Stratego', 'Risk']","[-0.15, 0.5]","[0.15, 0.5]",1,1,,,,,,,,,,,,,,,,,0,0,0,0,0,5,5,0,,,,,,,,,,,,,,,,,,,,,,,,,,,,,,,,,,,,,,,,,,,,,,,1145.5752318819996,None,1145.5752318819996,None,1145.5752318819996,None,s,1,1.53993169900059,1147.1083512160003,None,1147.1083512160003,None,1147.1083512160003,None,1148.7257596100008,None,1148.7257596100008,None,1148.7257596100008,None,1148.7257596100008,None,,,,,,,,,,,,,,,,,,,,,,,,,,,,,,,,,,,,,,,,,,,,001,155,2020_Feb_20_1321,spring_faces,3.1.5,59.78607466337598,
condition files/Stage2_2.xlsx,,B1,T1,s,"['s', 'r']","['Stratego', 'Risk']","[-0.15, 0.5]","[0.15, 0.5]",1,1,,,,,,,,,,,,,,,,,0,1,1,1,0,0,0,2,,,,,,,,,,,,,,,,,,,,,,,,,,,,,,,,,,,,,,,,,,,,,,,1150.6917635900008,None,1150.6917635900008,None,1150.6917635900008,None,r,0,1.702532680999866,1152.2417019969998,None,1152.2417019969998,None,1152.2417019969998,None,1154.0090077140012,None,1154.0090077140012,None,1154.0090077140012,None,1154.0090077140012,None,,,,,,,,,,,,,,,,,,,,,,,,,,,,,,,,,,,,,,,,,,,,001,155,2020_Feb_20_1321,spring_faces,3.1.5,59.78607466337598,
condition files/Stage2_2.xlsx,,B3,T3,s,"['s', 'r']","['Stratego', 'Risk']","[-0.15, 0.5]","[0.15, 0.5]",1,1,,,,,,,,,,,,,,,,,0,1,1,1,0,1,1,4,,,,,,,,,,,,,,,,,,,,,,,,,,,,,,,,,,,,,,,,,,,,,,,1155.9753980429996,None,1155.9753980429996,None,1155.9753980429996,None,s,1,1.475190434999604,1157.509081514001,None,1157.509081514001,None,1157.509081514001,None,1159.042235498,None,1159.042235498,None,1159.042235498,None,1159.042235498,None,,,,,,,,,,,,,,,,,,,,,,,,,,,,,,,,,,,,,,,,,,,,001,155,2020_Feb_20_1321,spring_faces,3.1.5,59.78607466337598,
condition files/Stage2_2.xlsx,,T4,B4,r,"['s', 'r']","['Stratego', 'Risk']","[-0.15, 0.5]","[0.15, 0.5]",1,1,,,,,,,,,,,,,,,,,0,1,1,1,0,2,2,5,,,,,,,,,,,,,,,,,,,,,,,,,,,,,,,,,,,,,,,,,,,,,,,1161.0086623139996,None,1161.0086623139996,None,1161.0086623139996,None,s,0,1.3364107580000564,1162.5438342859998,None,1162.5438342859998,None,1162.5438342859998,None,1163.9448905500012,None,1163.9448905500012,None,1163.9448905500012,None,1163.9448905500012,None,,,,,,,,,,,,,,,,,,,,,,,,,,,,,,,,,,,,,,,,,,,,001,155,2020_Feb_20_1321,spring_faces,3.1.5,59.78607466337598,
condition files/Stage2_2.xlsx,,T6,B6,r,"['s', 'r']","['Stratego', 'Risk']","[-0.15, 0.5]","[0.15, 0.5]",1,1,,,,,,,,,,,,,,,,,0,1,1,1,0,3,3,1,,,,,,,,,,,,,,,,,,,,,,,,,,,,,,,,,,,,,,,,,,,,,,,1165.908579944,None,1165.908579944,None,1165.908579944,None,r,1,1.4446648720004305,1167.4435781730008,None,1167.4435781730008,None,1167.4435781730008,None,1168.942688788,None,1168.942688788,None,1168.942688788,None,1168.942688788,None,,,,,,,,,,,,,,,,,,,,,,,,,,,,,,,,,,,,,,,,,,,,001,155,2020_Feb_20_1321,spring_faces,3.1.5,59.78607466337598,
condition files/Stage2_2.xlsx,,T2,B2,r,"['s', 'r']","['Stratego', 'Risk']","[-0.15, 0.5]","[0.15, 0.5]",1,1,,,,,,,,,,,,,,,,,0,1,1,1,0,4,4,3,,,,,,,,,,,,,,,,,,,,,,,,,,,,,,,,,,,,,,,,,,,,,,,1170.9084325929998,None,1170.9084325929998,None,1170.9084325929998,None,s,0,1.435843893999845,1172.444396144001,None,1172.444396144001,None,1172.444396144001,None,1173.942069697001,None,1173.942069697001,None,1173.942069697001,None,1173.942069697001,None,,,,,,,,,,,,,,,,,,,,,,,,,,,,,,,,,,,,,,,,,,,,001,155,2020_Feb_20_1321,spring_faces,3.1.5,59.78607466337598,
condition files/Stage2_2.xlsx,,B5,T5,s,"['s', 'r']","['Stratego', 'Risk']","[-0.15, 0.5]","[0.15, 0.5]",1,1,,,,,,,,,,,,,,,,,0,1,1,1,0,5,5,0,,,,,,,,,,,,,,,,,,,,,,,,,,,,,,,,,,,,,,,,,,,,,,,1175.9086917450004,None,1175.9086917450004,None,1175.9086917450004,None,r,0,1.334462385999359,1177.4417317930001,None,1177.4417317930001,None,1177.4417317930001,None,1178.8592443460002,None,1178.8592443460002,None,1178.8592443460002,None,1178.8592443460002,None,,,,,,,,,,,,,,,,,,,,,,,,,,,,,,,,,,,,,,,,,,,,001,155,2020_Feb_20_1321,spring_faces,3.1.5,59.78607466337598,
condition files/Stage2_1.xlsx,,T5,B5,s,"['s', 'r']","['Stratego', 'Risk']","[-0.15, 0.5]","[0.15, 0.5]",1,1,,,,,,,,,,,,,,,,,0,2,2,2,0,0,0,0,,,,,,,,,,,,,,,,,,,,,,,,,,,,,,,,,,,,,,,,,,,,,,,1180.825555487001,None,1180.825555487001,None,1180.825555487001,None,s,1,0.7198419209998974,1182.360428764001,None,1182.360428764001,None,1182.360428764001,None,1183.1420256559995,None,1183.1420256559995,None,1183.1420256559995,None,1183.1420256559995,None,,,,,,,,,,,,,,,,,,,,,,,,,,,,,,,,,,,,,,,,,,,,001,155,2020_Feb_20_1321,spring_faces,3.1.5,59.78607466337598,
condition files/Stage2_1.xlsx,,B2,T2,r,"['s', 'r']","['Stratego', 'Risk']","[-0.15, 0.5]","[0.15, 0.5]",1,1,,,,,,,,,,,,,,,,,0,2,2,2,0,1,1,3,,,,,,,,,,,,,,,,,,,,,,,,,,,,,,,,,,,,,,,,,,,,,,,1185.1084347249998,None,1185.1084347249998,None,1185.1084347249998,None,r,1,1.1887905759995192,1186.6434979660007,None,1186.6434979660007,None,1186.6434979660007,None,1187.9083793520003,None,1187.9083793520003,None,1187.9083793520003,None,1187.9083793520003,None,,,,,,,,,,,,,,,,,,,,,,,,,,,,,,,,,,,,,,,,,,,,001,155,2020_Feb_20_1321,spring_faces,3.1.5,59.78607466337598,
condition files/Stage2_1.xlsx,,B4,T4,r,"['s', 'r']","['Stratego', 'Risk']","[-0.15, 0.5]","[0.15, 0.5]",1,1,,,,,,,,,,,,,,,,,0,2,2,2,0,2,2,5,,,,,,,,,,,,,,,,,,,,,,,,,,,,,,,,,,,,,,,,,,,,,,,1189.858451891001,None,1189.858451891001,None,1189.858451891001,None,r,1,0.9983787370001664,1191.3938587890007,None,1191.3938587890007,None,1191.3938587890007,None,1192.442034826001,None,1192.442034826001,None,1192.442034826001,None,1192.442034826001,None,,,,,,,,,,,,,,,,,,,,,,,,,,,,,,,,,,,,,,,,,,,,001,155,2020_Feb_20_1321,spring_faces,3.1.5,59.78607466337598,
condition files/Stage2_1.xlsx,,T3,B3,s,"['s', 'r']","['Stratego', 'Risk']","[-0.15, 0.5]","[0.15, 0.5]",1,1,,,,,,,,,,,,,,,,,0,2,2,2,0,3,3,4,,,,,,,,,,,,,,,,,,,,,,,,,,,,,,,,,,,,,,,,,,,,,,,1194.4087339449998,None,1194.4087339449998,None,1194.4087339449998,None,s,1,1.9373166709992802,1195.942924414001,None,1195.942924414001,None,1195.942924414001,None,1197.9592931410007,None,1197.9592931410007,None,1197.9592931410007,None,1197.9592931410007,None,,,,,,,,,,,,,,,,,,,,,,,,,,,,,,,,,,,,,,,,,,,,001,155,2020_Feb_20_1321,spring_faces,3.1.5,59.78607466337598,
condition files/Stage2_1.xlsx,,T1,B1,s,"['s', 'r']","['Stratego', 'Risk']","[-0.15, 0.5]","[0.15, 0.5]",1,1,,,,,,,,,,,,,,,,,0,2,2,2,0,4,4,2,,,,,,,,,,,,,,,,,,,,,,,,,,,,,,,,,,,,,,,,,,,,,,,1199.9085831240009,None,1199.9085831240009,None,1199.9085831240009,None,s,1,2.9504380069993204,1201.4417436040003,None,1201.4417436040003,None,1201.4417436040003,None,1204.4421151340011,None,1204.4421151340011,None,1204.4421151340011,None,1204.4421151340011,None,,,,,,,,,,,,,,,,,,,,,,,,,,,,,,,,,,,,,,,,,,,,001,155,2020_Feb_20_1321,spring_faces,3.1.5,59.78607466337598,
condition files/Stage2_1.xlsx,,B6,T6,r,"['s', 'r']","['Stratego', 'Risk']","[-0.15, 0.5]","[0.15, 0.5]",1,1,,,,,,,,,,,,,,,,,0,2,2,2,0,5,5,1,,,,,,,,,,,,,,,,,,,,,,,,,,,,,,,,,,,,,,,,,,,,,,,1206.4085310589999,None,1206.4085310589999,None,1206.4085310589999,None,r,1,1.7129363490003016,1207.959230468001,None,1207.959230468001,None,1207.959230468001,None,1209.7250958429995,None,1209.7250958429995,None,1209.7250958429995,None,1209.7250958429995,None,,,,,,,,,,,,,,,,,,,,,,,,,,,,,,,,,,,,,,,,,,,,001,155,2020_Feb_20_1321,spring_faces,3.1.5,59.78607466337598,
condition files/Stage2_2.xlsx,,T4,B4,r,"['s', 'r']","['Stratego', 'Risk']","[-0.15, 0.5]","[0.15, 0.5]",1,1,,,,,,,,,,,,,,,,,0,3,3,3,0,0,0,5,,,,,,,,,,,,,,,,,,,,,,,,,,,,,,,,,,,,,,,,,,,,,,,1211.7085052080001,None,1211.7085052080001,None,1211.7085052080001,None,r,1,1.2277350420008588,1213.2444523120012,None,1213.2444523120012,None,1213.2444523120012,None,1214.525310414001,None,1214.525310414001,None,1214.525310414001,None,1214.525310414001,None,,,,,,,,,,,,,,,,,,,,,,,,,,,,,,,,,,,,,,,,,,,,001,155,2020_Feb_20_1321,spring_faces,3.1.5,59.78607466337598,
condition files/Stage2_2.xlsx,,B5,T5,s,"['s', 'r']","['Stratego', 'Risk']","[-0.15, 0.5]","[0.15, 0.5]",1,1,,,,,,,,,,,,,,,,,0,3,3,3,0,1,1,0,,,,,,,,,,,,,,,,,,,,,,,,,,,,,,,,,,,,,,,,,,,,,,,1216.4912443880003,None,1216.4912443880003,None,1216.4912443880003,None,r,0,1.6785336079992703,1218.0257033960006,None,1218.0257033960006,None,1218.0257033960006,None,1219.759799036001,None,1219.759799036001,None,1219.759799036001,None,1219.759799036001,None,,,,,,,,,,,,,,,,,,,,,,,,,,,,,,,,,,,,,,,,,,,,001,155,2020_Feb_20_1321,spring_faces,3.1.5,59.78607466337598,
condition files/Stage2_2.xlsx,,T2,B2,r,"['s', 'r']","['Stratego', 'Risk']","[-0.15, 0.5]","[0.15, 0.5]",1,1,,,,,,,,,,,,,,,,,0,3,3,3,0,2,2,3,,,,,,,,,,,,,,,,,,,,,,,,,,,,,,,,,,,,,,,,,,,,,,,1221.7253917239996,None,1221.7253917239996,None,1221.7253917239996,None,r,1,3.4202585330003785,1223.2599901720005,None,1223.2599901720005,None,1223.2599901720005,None,1226.7421718799997,None,1226.7421718799997,None,1226.7421718799997,None,1226.7421718799997,None,,,,,,,,,,,,,,,,,,,,,,,,,,,,,,,,,,,,,,,,,,,,001,155,2020_Feb_20_1321,spring_faces,3.1.5,59.78607466337598,
condition files/Stage2_2.xlsx,,B1,T1,s,"['s', 'r']","['Stratego', 'Risk']","[-0.15, 0.5]","[0.15, 0.5]",1,1,,,,,,,,,,,,,,,,,0,3,3,3,0,3,3,2,,,,,,,,,,,,,,,,,,,,,,,,,,,,,,,,,,,,,,,,,,,,,,,1228.708578179001,None,1228.708578179001,None,1228.708578179001,None,s,1,2.197262599000169,1230.242975000001,None,1230.242975000001,None,1230.242975000001,None,1232.494083779,None,1232.494083779,None,1232.494083779,None,1232.494083779,None,,,,,,,,,,,,,,,,,,,,,,,,,,,,,,,,,,,,,,,,,,,,001,155,2020_Feb_20_1321,spring_faces,3.1.5,59.78607466337598,
condition files/Stage2_2.xlsx,,B3,T3,s,"['s', 'r']","['Stratego', 'Risk']","[-0.15, 0.5]","[0.15, 0.5]",1,1,,,,,,,,,,,,,,,,,0,3,3,3,0,4,4,4,,,,,,,,,,,,,,,,,,,,,,,,,,,,,,,,,,,,,,,,,,,,,,,1234.4583665720002,None,1234.4583665720002,None,1234.4583665720002,None,s,1,1.4882483589990443,1235.9919991320003,None,1235.9919991320003,None,1235.9919991320003,None,1237.5423389690004,None,1237.5423389690004,None,1237.5423389690004,None,1237.5423389690004,None,,,,,,,,,,,,,,,,,,,,,,,,,,,,,,,,,,,,,,,,,,,,001,155,2020_Feb_20_1321,spring_faces,3.1.5,59.78607466337598,
condition files/Stage2_2.xlsx,,T6,B6,r,"['s', 'r']","['Stratego', 'Risk']","[-0.15, 0.5]","[0.15, 0.5]",1,1,,,,,,,,,,,,,,,,,0,3,3,3,0,5,5,1,,,,,,,,,,,,,,,,,,,,,,,,,,,,,,,,,,,,,,,,,,,,,,,1239.508378482,None,1239.508378482,None,1239.508378482,None,r,1,1.1243220069991366,1241.0438416039997,None,1241.0438416039997,None,1241.0438416039997,None,1242.2420173650007,None,1242.2420173650007,None,1242.2420173650007,None,1242.2420173650007,None,,,,,,,,,,,,,,,,,,,,,,,,,,,,,,,,,,,,,,,,,,,,001,155,2020_Feb_20_1321,spring_faces,3.1.5,59.78607466337598,
condition files/Stage2_1.xlsx,,T3,B3,s,"['s', 'r']","['Stratego', 'Risk']","[-0.15, 0.5]","[0.15, 0.5]",1,1,,,,,,,,,,,,,,,,,0,4,4,4,0,0,0,4,,,,,,,,,,,,,,,,,,,,,,,,,,,,,,,,,,,,,,,,,,,,,,,1244.2090767240006,None,1244.2090767240006,None,1244.2090767240006,None,s,1,1.4651193499994406,1245.743135566001,None,1245.743135566001,None,1245.743135566001,None,1247.2595837070003,None,1247.2595837070003,None,1247.2595837070003,None,1247.2595837070003,None,,,,,,,,,,,,,,,,,,,,,,,,,,,,,,,,,,,,,,,,,,,,001,155,2020_Feb_20_1321,spring_faces,3.1.5,59.78607466337598,
condition files/Stage2_1.xlsx,,B2,T2,r,"['s', 'r']","['Stratego', 'Risk']","[-0.15, 0.5]","[0.15, 0.5]",1,1,,,,,,,,,,,,,,,,,0,4,4,4,0,1,1,3,,,,,,,,,,,,,,,,,,,,,,,,,,,,,,,,,,,,,,,,,,,,,,,1249.2250124679995,None,1249.2250124679995,None,1249.2250124679995,None,s,0,2.768959910999911,1250.7752636050009,None,1250.7752636050009,None,1250.7752636050009,None,1253.6097415570002,None,1253.6097415570002,None,1253.6097415570002,None,1253.6097415570002,None,,,,,,,,,,,,,,,,,,,,,,,,,,,,,,,,,,,,,,,,,,,,001,155,2020_Feb_20_1321,spring_faces,3.1.5,59.78607466337598,
condition files/Stage2_1.xlsx,,T5,B5,s,"['s', 'r']","['Stratego', 'Risk']","[-0.15, 0.5]","[0.15, 0.5]",1,1,,,,,,,,,,,,,,,,,0,4,4,4,0,2,2,0,,,,,,,,,,,,,,,,,,,,,,,,,,,,,,,,,,,,,,,,,,,,,,,1255.5750789630001,None,1255.5750789630001,None,1255.5750789630001,None,s,1,1.7949048210011824,1257.1092764210007,None,1257.1092764210007,None,1257.1092764210007,None,1258.9759147980003,None,1258.9759147980003,None,1258.9759147980003,None,1258.9759147980003,None,,,,,,,,,,,,,,,,,,,,,,,,,,,,,,,,,,,,,,,,,,,,001,155,2020_Feb_20_1321,spring_faces,3.1.5,59.78607466337598,
condition files/Stage2_1.xlsx,,B6,T6,r,"['s', 'r']","['Stratego', 'Risk']","[-0.15, 0.5]","[0.15, 0.5]",1,1,,,,,,,,,,,,,,,,,0,4,4,4,0,3,3,1,,,,,,,,,,,,,,,,,,,,,,,,,,,,,,,,,,,,,,,,,,,,,,,1260.924934056,None,1260.924934056,None,1260.924934056,None,r,1,1.1007270330010215,1262.4754636510006,None,1262.4754636510006,None,1262.4754636510006,None,1263.6425502479997,None,1263.6425502479997,None,1263.6425502479997,None,1263.6425502479997,None,,,,,,,,,,,,,,,,,,,,,,,,,,,,,,,,,,,,,,,,,,,,001,155,2020_Feb_20_1321,spring_faces,3.1.5,59.78607466337598,
