condsFile,subStage,cue1,cue2,correct,responseKeys,responseNames,cue1Position,cue2Position,cue1Opacity,cue2Opacity,stageLoop0.thisRepN,stageLoop0.thisTrialN,stageLoop0.thisN,stageLoop0.thisIndex,blockLoop0.thisRepN,blockLoop0.thisTrialN,blockLoop0.thisN,blockLoop0.thisIndex,stage1Loop.thisRepN,stage1Loop.thisTrialN,stage1Loop.thisN,stage1Loop.thisIndex,blockLoop1.thisRepN,blockLoop1.thisTrialN,blockLoop1.thisN,blockLoop1.thisIndex,stage2Loop.thisRepN,stage2Loop.thisTrialN,stage2Loop.thisN,stage2Loop.thisIndex,blockLoop2.thisRepN,blockLoop2.thisTrialN,blockLoop2.thisN,blockLoop2.thisIndex,testLoop.thisRepN,testLoop.thisTrialN,testLoop.thisN,testLoop.thisIndex,blockLoopTest.thisRepN,blockLoopTest.thisTrialN,blockLoopTest.thisN,blockLoopTest.thisIndex,cuePics,id_instr_text.started,id_instr_text.stopped,space_to_continue_2.started,space_to_continue_2.stopped,end_instructions_resp_3.keys,end_instructions_resp_3.rt,end_instructions_resp_3.started,end_instructions_resp_3.stopped,id_input_instr.started,id_input_instr.stopped,id_input_rect.started,id_input_rect.stopped,id_input_resp.keys,id_input_resp.rt,id_input_resp.started,id_input_resp.stopped,sonaID,id_input_text.started,id_input_text.stopped,final_text.started,final_text.stopped,instructions.started,instructions.stopped,end_instructions_resp.keys,end_instructions_resp.rt,end_instructions_resp.started,end_instructions_resp.stopped,space_to_continue.started,space_to_continue.stopped,instructions_stage0.started,instructions_stage0.stopped,end_instructions_resp_stage0.keys,end_instructions_resp_stage0.rt,end_instructions_resp_stage0.started,end_instructions_resp_stage0.stopped,space_to_continue_stage0.started,space_to_continue_stage0.stopped,text.started,text.stopped,resp_text1.started,resp_text1.stopped,resp_text2.started,resp_text2.stopped,trial_resp.keys,trial_resp.corr,trial_resp.rt,trial_resp.started,trial_resp.stopped,cue1Image.started,cue1Image.stopped,cue2Image.started,cue2Image.stopped,cue1Image_fb.started,cue1Image_fb.stopped,cue2Image_fb.started,cue2Image_fb.stopped,fb_text_answer.started,fb_text_answer.stopped,feedback_image.started,feedback_image.stopped,instructions_stage1.started,instructions_stage1.stopped,end_instructions_resp_stage1.keys,end_instructions_resp_stage1.rt,end_instructions_resp_stage1.started,end_instructions_resp_stage1.stopped,space_to_continue_stage1.started,space_to_continue_stage1.stopped,instructions_2.started,instructions_2.stopped,end_instructions_resp_2.keys,end_instructions_resp_2.rt,end_instructions_resp_2.started,end_instructions_resp_2.stopped,press_space_to_continue_stage2.started,press_space_to_continue_stage2.stopped,instructions_testStage1.started,instructions_testStage1.stopped,end_instructions_resp_test1.keys,end_instructions_resp_test1.rt,end_instructions_resp_test1.started,end_instructions_resp_test1.stopped,press_space_to_continue_test1.started,press_space_to_continue_test1.stopped,cue1Image_testChoice.started,cue1Image_testChoice.stopped,cue2Image_testChoice.started,cue2Image_testChoice.stopped,test_resp.keys,test_resp.corr,test_resp.rt,test_resp.started,test_resp.stopped,cue1Image_testConf.started,cue1Image_testConf.stopped,cue2Image_testConf.started,cue2Image_testConf.stopped,conf_reminder.started,conf_reminder.stopped,conf_rating.response,conf_rating.rt,conf_rating.started,conf_rating.stopped,session,participant,date,expName,psychopyVersion,frameRate,
,,,,,,,,,,,,,,,,,,,,,,,,,,,,,,,,,,,,,,,,,,,"{'none': 'pictures/20M_AN_C.png', 'alpha': 'pictures/SHINEd_apple.png', 'beta': 'pictures/SHINEd_pepper.png', 'theta': 'pictures/SHINEd_pear.png', 'phi': 'pictures/SHINEd_melon.png', 'T1': 'pictures/22M_AN_C.png', 'T2': 'pictures/20M_AN_C.png', 'T3': 'pictures/38M_AN_C.png', 'T4': 'pictures/23M_AN_C.png', 'T5': 'pictures/32M_AN_C.png', 'T6': 'pictures/26M_AN_C.png', 'B1': 'pictures/34M_NE_C.png', 'B2': 'pictures/33M_NE_C.png', 'B3': 'pictures/37M_NE_C.png', 'B4': 'pictures/31M_NE_C.png', 'B5': 'pictures/36M_NE_C.png', 'B6': 'pictures/25M_NE_C.png'}",12.35694117499952,None,17.340215357002307,None,space,17.092464294997626,17.340215357002307,None,,,,,,,,,,,,,,,,,,,,,,,,,,,,,,,,,,,,,,,,,,,,,,,,,,,,,,,,,,,,,,,,,,,,,,,,,,,,,,,,,,,,,,,,,,,,,,,,001,156,2020_Feb_20_1354,spring_faces,3.2.3,59.99433869440042,
,,,,,,,,,,,,,,,,,,,,,,,,,,,,,,,,,,,,,,,,,,,,,,,,,,,,34.856915083000786,None,34.856915083000786,None,"['1', '1', '0', '1', 'r', 'e', 's', 'i', 'e']","[23.703706206997595, 23.927742979998584, 26.023725104998448, 26.295662035998248, 27.991741344998445, 28.77574933899814, 32.75975167999786, 33.12775643200075, 33.35165391099872]",34.856915083000786,None,,,,,,,,,,,,,,,,,,,,,,,,,,,,,,,,,,,,,,,,,,,,,,,,,,,,,,,,,,,,,,,,,,,,,,,,,,,,,,,,,,,,,,,,001,156,2020_Feb_20_1354,spring_faces,3.2.3,59.99433869440042,
,,,,,,,,,,,,,,,,,,,,,,,,,,,,,,,,,,,,,,,,,,,,,,,,,,,,,,,,,,,,1101resie,34.856915083000786,None,34.856915083000786,None,73.27357150500029,None,space,5.471755391001352,78.25685671199972,None,,,,,,,,,,,,,,,,,,,,,,,,,,,,,,,,,,,,,,,,,,,,,,,,,,,,,,,,,,,,,,,,,,,,,,,,,,,,,001,156,2020_Feb_20_1354,spring_faces,3.2.3,59.99433869440042,
,,,,,,,,,,,,,,,,,,,,,,,,,,,,,,,,,,,,,,,,,,,,,,,,,,,,,,,,,,,,,,,,,,,,,,,78.25685671199972,None,83.75690466100059,None,space,10.460432752002816,88.74025430800248,None,,,,,,,,,,,,,,,,,,,,,,,,,,,,,,,,,,,,,,,,,,,,,,,,,,,,,,,,,,,,,,,,,,,,,001,156,2020_Feb_20_1354,spring_faces,3.2.3,59.99433869440042,
condition files/Stage0a.xlsx,0a,alpha,none,h,"['h', 'g']","['Chess', 'Go']","[0, 0.5]","[0, 0]",1,0,0,0,0,0,0,0,0,0,,,,,,,,,,,,,,,,,,,,,,,,,,,,,,,,,,,,,,,,,,,,,,,,,,,,,,,,,,,,,88.74025430800248,None,99.25687935300084,None,99.25687935300084,None,99.25687935300084,None,g,0,6.760432415998366,100.84024394000153,None,100.84024394000153,None,100.84024394000153,None,107.6735068320013,None,107.6735068320013,None,107.6735068320013,None,107.6735068320013,None,,,,,,,,,,,,,,,,,,,,,,,,,,,,,,,,,,,,,,,,,,,,001,156,2020_Feb_20_1354,spring_faces,3.2.3,59.99433869440042,
condition files/Stage0a.xlsx,0a,beta,none,g,"['h', 'g']","['Chess', 'Go']","[0, 0.5]","[0, 0]",1,0,0,0,0,0,0,1,1,1,,,,,,,,,,,,,,,,,,,,,,,,,,,,,,,,,,,,,,,,,,,,,,,,,,,,,,,,,,,,,,,109.64021390299968,None,109.64021390299968,None,109.64021390299968,None,g,1,1.4030872210023517,111.17354524000257,None,111.17354524000257,None,111.17354524000257,None,112.6568994090012,None,112.6568994090012,None,112.6568994090012,None,112.6568994090012,None,,,,,,,,,,,,,,,,,,,,,,,,,,,,,,,,,,,,,,,,,,,,001,156,2020_Feb_20_1354,spring_faces,3.2.3,59.99433869440042,
condition files/Stage0a.xlsx,0a,alpha,none,h,"['h', 'g']","['Chess', 'Go']","[0, 0.5]","[0, 0]",1,0,0,1,1,1,0,0,0,0,,,,,,,,,,,,,,,,,,,,,,,,,,,,,,,,,,,,,,,,,,,,,,,,,,,,,,,,,,,,,,,114.6402013170009,None,114.6402013170009,None,114.6402013170009,None,h,1,1.1711128690003534,116.17355255800067,None,116.17355255800067,None,116.17355255800067,None,117.40681583200058,None,117.40681583200058,None,117.40681583200058,None,117.40681583200058,None,,,,,,,,,,,,,,,,,,,,,,,,,,,,,,,,,,,,,,,,,,,,001,156,2020_Feb_20_1354,spring_faces,3.2.3,59.99433869440042,
condition files/Stage0a.xlsx,0a,beta,none,g,"['h', 'g']","['Chess', 'Go']","[0, 0.5]","[0, 0]",1,0,0,1,1,1,0,1,1,1,,,,,,,,,,,,,,,,,,,,,,,,,,,,,,,,,,,,,,,,,,,,,,,,,,,,,,,,,,,,,,,119.39025648499955,None,119.39025648499955,None,119.39025648499955,None,g,1,1.5730619700007082,120.9235768590006,None,120.9235768590006,None,120.9235768590006,None,122.55693120300202,None,122.55693120300202,None,122.55693120300202,None,122.55693120300202,None,,,,,,,,,,,,,,,,,,,,,,,,,,,,,,,,,,,,,,,,,,,,001,156,2020_Feb_20_1354,spring_faces,3.2.3,59.99433869440042,
condition files/Stage0a.xlsx,0a,beta,none,g,"['h', 'g']","['Chess', 'Go']","[0, 0.5]","[0, 0]",1,0,0,2,2,2,0,0,0,1,,,,,,,,,,,,,,,,,,,,,,,,,,,,,,,,,,,,,,,,,,,,,,,,,,,,,,,,,,,,,,,124.55688225500126,None,124.55688225500126,None,124.55688225500126,None,g,1,0.7744676199981768,126.09022106200064,None,126.09022106200064,None,126.09022106200064,None,126.92355838900039,None,126.92355838900039,None,126.92355838900039,None,126.92355838900039,None,,,,,,,,,,,,,,,,,,,,,,,,,,,,,,,,,,,,,,,,,,,,001,156,2020_Feb_20_1354,spring_faces,3.2.3,59.99433869440042,
condition files/Stage0a.xlsx,0a,alpha,none,h,"['h', 'g']","['Chess', 'Go']","[0, 0.5]","[0, 0]",1,0,0,2,2,2,0,1,1,0,,,,,,,,,,,,,,,,,,,,,,,,,,,,,,,,,,,,,,,,,,,,,,,,,,,,,,,,,,,,,,,128.90693169100268,None,128.90693169100268,None,128.90693169100268,None,h,1,0.5683390810008859,130.44023650999952,None,130.44023650999952,None,130.44023650999952,None,131.09020925300138,None,131.09020925300138,None,131.09020925300138,None,131.09020925300138,None,,,,,,,,,,,,,,,,,,,,,,,,,,,,,,,,,,,,,,,,,,,,001,156,2020_Feb_20_1354,spring_faces,3.2.3,59.99433869440042,
condition files/Stage0a.xlsx,0a,alpha,none,h,"['h', 'g']","['Chess', 'Go']","[0, 0.5]","[0, 0]",1,0,0,3,3,3,0,0,0,0,,,,,,,,,,,,,,,,,,,,,,,,,,,,,,,,,,,,,,,,,,,,,,,,,,,,,,,,,,,,,,,133.07348996099972,None,133.07348996099972,None,133.07348996099972,None,h,1,0.8818463349998638,134.60690973900273,None,134.60690973900273,None,134.60690973900273,None,135.540181700002,None,135.540181700002,None,135.540181700002,None,135.540181700002,None,,,,,,,,,,,,,,,,,,,,,,,,,,,,,,,,,,,,,,,,,,,,001,156,2020_Feb_20_1354,spring_faces,3.2.3,59.99433869440042,
condition files/Stage0a.xlsx,0a,beta,none,g,"['h', 'g']","['Chess', 'Go']","[0, 0.5]","[0, 0]",1,0,0,3,3,3,0,1,1,1,,,,,,,,,,,,,,,,,,,,,,,,,,,,,,,,,,,,,,,,,,,,,,,,,,,,,,,,,,,,,,,137.52358627899957,None,137.52358627899957,None,137.52358627899957,None,g,1,0.9757795780024026,139.05688958899918,None,139.05688958899918,None,139.05688958899918,None,140.09024340299948,None,140.09024340299948,None,140.09024340299948,None,140.09024340299948,None,,,,,,,,,,,,,,,,,,,,,,,,,,,,,,,,,,,,,,,,,,,,001,156,2020_Feb_20_1354,spring_faces,3.2.3,59.99433869440042,
condition files/Stage0a.xlsx,0a,alpha,none,h,"['h', 'g']","['Chess', 'Go']","[0, 0.5]","[0, 0]",1,0,0,4,4,4,0,0,0,0,,,,,,,,,,,,,,,,,,,,,,,,,,,,,,,,,,,,,,,,,,,,,,,,,,,,,,,,,,,,,,,142.09023579399945,None,142.09023579399945,None,142.09023579399945,None,h,1,1.7371539660016424,143.6235154829992,None,143.6235154829992,None,143.6235154829992,None,145.42351878800037,None,145.42351878800037,None,145.42351878800037,None,145.42351878800037,None,,,,,,,,,,,,,,,,,,,,,,,,,,,,,,,,,,,,,,,,,,,,001,156,2020_Feb_20_1354,spring_faces,3.2.3,59.99433869440042,
condition files/Stage0a.xlsx,0a,beta,none,g,"['h', 'g']","['Chess', 'Go']","[0, 0.5]","[0, 0]",1,0,0,4,4,4,0,1,1,1,,,,,,,,,,,,,,,,,,,,,,,,,,,,,,,,,,,,,,,,,,,,,,,,,,,,,,,,,,,,,,,147.40689115500209,None,147.40689115500209,None,147.40689115500209,None,g,1,0.6123538530009682,148.9402281670009,None,148.9402281670009,None,148.9402281670009,None,149.60674688200015,None,149.60674688200015,None,149.60674688200015,None,149.60674688200015,None,,,,,,,,,,,,,,,,,,,,,,,,,,,,,,,,,,,,,,,,,,,,001,156,2020_Feb_20_1354,spring_faces,3.2.3,59.99433869440042,
condition files/Stage0a.xlsx,0a,alpha,none,h,"['h', 'g']","['Chess', 'Go']","[0, 0.5]","[0, 0]",1,0,0,5,5,5,0,0,0,0,,,,,,,,,,,,,,,,,,,,,,,,,,,,,,,,,,,,,,,,,,,,,,,,,,,,,,,,,,,,,,,151.6069023199998,None,151.6069023199998,None,151.6069023199998,None,h,1,1.0844206340007077,153.1401861250015,None,153.1401861250015,None,153.1401861250015,None,154.30689156100198,None,154.30689156100198,None,154.30689156100198,None,154.30689156100198,None,,,,,,,,,,,,,,,,,,,,,,,,,,,,,,,,,,,,,,,,,,,,001,156,2020_Feb_20_1354,spring_faces,3.2.3,59.99433869440042,
condition files/Stage0a.xlsx,0a,beta,none,g,"['h', 'g']","['Chess', 'Go']","[0, 0.5]","[0, 0]",1,0,0,5,5,5,0,1,1,1,,,,,,,,,,,,,,,,,,,,,,,,,,,,,,,,,,,,,,,,,,,,,,,,,,,,,,,,,,,,,,,156.27346932,None,156.27346932,None,156.27346932,None,g,1,0.5298870139995415,157.80685054400237,None,157.80685054400237,None,157.80685054400237,None,158.39025932500226,None,158.39025932500226,None,158.39025932500226,None,158.39025932500226,None,,,,,,,,,,,,,,,,,,,,,,,,,,,,,,,,,,,,,,,,,,,,001,156,2020_Feb_20_1354,spring_faces,3.2.3,59.99433869440042,
condition files/Stage0b_1.xlsx,0b,none,beta,g,"['h', 'g']","['Chess', 'Go']","[-0.15, 0.5]","[0.15, 0.5]",0,1,0,6,6,6,0,0,0,1,,,,,,,,,,,,,,,,,,,,,,,,,,,,,,,,,,,,,,,,,,,,,,,,,,,,,,,,,,,,,,,160.39021011899968,None,160.39021011899968,None,160.39021011899968,None,g,1,0.9086357440028223,161.9400774650021,None,161.9400774650021,None,161.9400774650021,None,162.92354245500246,None,162.92354245500246,None,162.92354245500246,None,162.92354245500246,None,,,,,,,,,,,,,,,,,,,,,,,,,,,,,,,,,,,,,,,,,,,,001,156,2020_Feb_20_1354,spring_faces,3.2.3,59.99433869440042,
condition files/Stage0b_1.xlsx,0b,alpha,none,h,"['h', 'g']","['Chess', 'Go']","[-0.15, 0.5]","[0.15, 0.5]",1,0,0,6,6,6,0,1,1,0,,,,,,,,,,,,,,,,,,,,,,,,,,,,,,,,,,,,,,,,,,,,,,,,,,,,,,,,,,,,,,,164.89022887300234,None,164.89022887300234,None,164.89022887300234,None,h,1,0.6333255050012667,166.42344897400108,None,166.42344897400108,None,166.42344897400108,None,167.12352532799923,None,167.12352532799923,None,167.12352532799923,None,167.12352532799923,None,,,,,,,,,,,,,,,,,,,,,,,,,,,,,,,,,,,,,,,,,,,,001,156,2020_Feb_20_1354,spring_faces,3.2.3,59.99433869440042,
condition files/Stage0b_2.xlsx,0b,none,alpha,h,"['h', 'g']","['Chess', 'Go']","[-0.15, 0.5]","[0.15, 0.5]",0,1,0,7,7,7,0,0,0,0,,,,,,,,,,,,,,,,,,,,,,,,,,,,,,,,,,,,,,,,,,,,,,,,,,,,,,,,,,,,,,,169.10686340400207,None,169.10686340400207,None,169.10686340400207,None,h,1,0.9924899889992957,170.6401975330009,None,170.6401975330009,None,170.6401975330009,None,171.69021988200257,None,171.69021988200257,None,171.69021988200257,None,171.69021988200257,None,,,,,,,,,,,,,,,,,,,,,,,,,,,,,,,,,,,,,,,,,,,,001,156,2020_Feb_20_1354,spring_faces,3.2.3,59.99433869440042,
condition files/Stage0b_2.xlsx,0b,beta,none,g,"['h', 'g']","['Chess', 'Go']","[-0.15, 0.5]","[0.15, 0.5]",1,0,0,7,7,7,0,1,1,1,,,,,,,,,,,,,,,,,,,,,,,,,,,,,,,,,,,,,,,,,,,,,,,,,,,,,,,,,,,,,,,173.67358755399982,None,173.67358755399982,None,173.67358755399982,None,g,1,0.7620544550009072,175.20664976000262,None,175.20664976000262,None,175.20664976000262,None,176.04017708800166,None,176.04017708800166,None,176.04017708800166,None,176.04017708800166,None,,,,,,,,,,,,,,,,,,,,,,,,,,,,,,,,,,,,,,,,,,,,001,156,2020_Feb_20_1354,spring_faces,3.2.3,59.99433869440042,
condition files/Stage0b_1.xlsx,0b,none,beta,g,"['h', 'g']","['Chess', 'Go']","[-0.15, 0.5]","[0.15, 0.5]",0,1,0,8,8,8,0,0,0,1,,,,,,,,,,,,,,,,,,,,,,,,,,,,,,,,,,,,,,,,,,,,,,,,,,,,,,,,,,,,,,,178.02354492400264,None,178.02354492400264,None,178.02354492400264,None,g,1,0.5878906780017132,179.5568011739997,None,179.5568011739997,None,179.5568011739997,None,180.20688328100005,None,180.20688328100005,None,180.20688328100005,None,180.20688328100005,None,,,,,,,,,,,,,,,,,,,,,,,,,,,,,,,,,,,,,,,,,,,,001,156,2020_Feb_20_1354,spring_faces,3.2.3,59.99433869440042,
condition files/Stage0b_1.xlsx,0b,alpha,none,h,"['h', 'g']","['Chess', 'Go']","[-0.15, 0.5]","[0.15, 0.5]",1,0,0,8,8,8,0,1,1,0,,,,,,,,,,,,,,,,,,,,,,,,,,,,,,,,,,,,,,,,,,,,,,,,,,,,,,,,,,,,,,,182.19025722100196,None,182.19025722100196,None,182.19025722100196,None,h,1,0.7893715339996561,183.72330098100065,None,183.72330098100065,None,183.72330098100065,None,184.5902468029999,None,184.5902468029999,None,184.5902468029999,None,184.5902468029999,None,,,,,,,,,,,,,,,,,,,,,,,,,,,,,,,,,,,,,,,,,,,,001,156,2020_Feb_20_1354,spring_faces,3.2.3,59.99433869440042,
condition files/Stage0b_2.xlsx,0b,none,alpha,h,"['h', 'g']","['Chess', 'Go']","[-0.15, 0.5]","[0.15, 0.5]",0,1,0,9,9,9,0,0,0,0,,,,,,,,,,,,,,,,,,,,,,,,,,,,,,,,,,,,,,,,,,,,,,,,,,,,,,,,,,,,,,,186.57358009000018,None,186.57358009000018,None,186.57358009000018,None,h,1,0.7257884600003308,188.10691841299922,None,188.10691841299922,None,188.10691841299922,None,188.89022209900213,None,188.89022209900213,None,188.89022209900213,None,188.89022209900213,None,,,,,,,,,,,,,,,,,,,,,,,,,,,,,,,,,,,,,,,,,,,,001,156,2020_Feb_20_1354,spring_faces,3.2.3,59.99433869440042,
condition files/Stage0b_2.xlsx,0b,beta,none,g,"['h', 'g']","['Chess', 'Go']","[-0.15, 0.5]","[0.15, 0.5]",1,0,0,9,9,9,0,1,1,1,,,,,,,,,,,,,,,,,,,,,,,,,,,,,,,,,,,,,,,,,,,,,,,,,,,,,,,,,,,,,,,190.87356871000156,None,190.87356871000156,None,190.87356871000156,None,g,1,2.8260501730001124,192.40665478400115,None,192.40665478400115,None,192.40665478400115,None,195.3069077680011,None,195.3069077680011,None,195.3069077680011,None,195.3069077680011,None,,,,,,,,,,,,,,,,,,,,,,,,,,,,,,,,,,,,,,,,,,,,001,156,2020_Feb_20_1354,spring_faces,3.2.3,59.99433869440042,
condition files/Stage0b_1.xlsx,0b,none,beta,g,"['h', 'g']","['Chess', 'Go']","[-0.15, 0.5]","[0.15, 0.5]",0,1,0,10,10,10,0,0,0,1,,,,,,,,,,,,,,,,,,,,,,,,,,,,,,,,,,,,,,,,,,,,,,,,,,,,,,,,,,,,,,,197.2902263950018,None,197.2902263950018,None,197.2902263950018,None,g,1,0.6652072219985712,198.8235670560025,None,198.8235670560025,None,198.8235670560025,None,199.55691286,None,199.55691286,None,199.55691286,None,199.55691286,None,,,,,,,,,,,,,,,,,,,,,,,,,,,,,,,,,,,,,,,,,,,,001,156,2020_Feb_20_1354,spring_faces,3.2.3,59.99433869440042,
condition files/Stage0b_1.xlsx,0b,alpha,none,h,"['h', 'g']","['Chess', 'Go']","[-0.15, 0.5]","[0.15, 0.5]",1,0,0,10,10,10,0,1,1,0,,,,,,,,,,,,,,,,,,,,,,,,,,,,,,,,,,,,,,,,,,,,,,,,,,,,,,,,,,,,,,,201.52353340099944,None,201.52353340099944,None,201.52353340099944,None,h,1,0.6239782679986092,203.05666410200138,None,203.05666410200138,None,203.05666410200138,None,203.7568851399992,None,203.7568851399992,None,203.7568851399992,None,203.7568851399992,None,,,,,,,,,,,,,,,,,,,,,,,,,,,,,,,,,,,,,,,,,,,,001,156,2020_Feb_20_1354,spring_faces,3.2.3,59.99433869440042,
condition files/Stage0b_2.xlsx,0b,beta,none,g,"['h', 'g']","['Chess', 'Go']","[-0.15, 0.5]","[0.15, 0.5]",1,0,0,11,11,11,0,0,0,1,,,,,,,,,,,,,,,,,,,,,,,,,,,,,,,,,,,,,,,,,,,,,,,,,,,,,,,,,,,,,,,205.7402187350017,None,205.7402187350017,None,205.7402187350017,None,g,1,0.5510362460008764,207.27355303200238,None,207.27355303200238,None,207.27355303200238,None,207.89019299400024,None,207.89019299400024,None,207.89019299400024,None,207.89019299400024,None,,,,,,,,,,,,,,,,,,,,,,,,,,,,,,,,,,,,,,,,,,,,001,156,2020_Feb_20_1354,spring_faces,3.2.3,59.99433869440042,
condition files/Stage0b_2.xlsx,0b,none,alpha,h,"['h', 'g']","['Chess', 'Go']","[-0.15, 0.5]","[0.15, 0.5]",0,1,0,11,11,11,0,1,1,0,,,,,,,,,,,,,,,,,,,,,,,,,,,,,,,,,,,,,,,,,,,,,,,,,,,,,,,,,,,,,,,209.87347580099959,None,209.87347580099959,None,209.87347580099959,None,h,1,0.6257808500013198,211.40689338499942,None,211.40689338499942,None,211.40689338499942,None,212.1069165930021,None,212.1069165930021,None,212.1069165930021,None,212.1069165930021,None,,,,,,,,,,,,,,,,,,,,,,,,,,,,,,,,,,,,,,,,,,,,001,156,2020_Feb_20_1354,spring_faces,3.2.3,59.99433869440042,
condition files/Stage0c_1.xlsx,0c,alpha,phi,h,"['h', 'g']","['Chess', 'Go']","[-0.15, 0.5]","[0.15, 0.5]",1,1,0,12,12,12,0,0,0,1,,,,,,,,,,,,,,,,,,,,,,,,,,,,,,,,,,,,,,,,,,,,,,,,,,,,,,,,,,,,,,,214.09025485900202,None,214.09025485900202,None,214.09025485900202,None,h,1,3.48131025299881,215.62345907100098,None,215.62345907100098,None,215.62345907100098,None,219.1568015240009,None,219.1568015240009,None,219.1568015240009,None,219.1568015240009,None,,,,,,,,,,,,,,,,,,,,,,,,,,,,,,,,,,,,,,,,,,,,001,156,2020_Feb_20_1354,spring_faces,3.2.3,59.99433869440042,
condition files/Stage0c_1.xlsx,0c,beta,theta,g,"['h', 'g']","['Chess', 'Go']","[-0.15, 0.5]","[0.15, 0.5]",1,1,0,12,12,12,0,1,1,2,,,,,,,,,,,,,,,,,,,,,,,,,,,,,,,,,,,,,,,,,,,,,,,,,,,,,,,,,,,,,,,221.1401458850014,None,221.1401458850014,None,221.1401458850014,None,g,1,1.5511014360017725,222.67350924700077,None,222.67350924700077,None,222.67350924700077,None,224.29023869700177,None,224.29023869700177,None,224.29023869700177,None,224.29023869700177,None,,,,,,,,,,,,,,,,,,,,,,,,,,,,,,,,,,,,,,,,,,,,001,156,2020_Feb_20_1354,spring_faces,3.2.3,59.99433869440042,
condition files/Stage0c_1.xlsx,0c,phi,beta,g,"['h', 'g']","['Chess', 'Go']","[-0.15, 0.5]","[0.15, 0.5]",1,1,0,12,12,12,0,2,2,3,,,,,,,,,,,,,,,,,,,,,,,,,,,,,,,,,,,,,,,,,,,,,,,,,,,,,,,,,,,,,,,226.2734754330013,None,226.2734754330013,None,226.2734754330013,None,g,1,2.0177035329979844,227.80688650999946,None,227.80688650999946,None,227.80688650999946,None,229.89019539400033,None,229.89019539400033,None,229.89019539400033,None,229.89019539400033,None,,,,,,,,,,,,,,,,,,,,,,,,,,,,,,,,,,,,,,,,,,,,001,156,2020_Feb_20_1354,spring_faces,3.2.3,59.99433869440042,
condition files/Stage0c_1.xlsx,0c,theta,alpha,h,"['h', 'g']","['Chess', 'Go']","[-0.15, 0.5]","[0.15, 0.5]",1,1,0,12,12,12,0,3,3,0,,,,,,,,,,,,,,,,,,,,,,,,,,,,,,,,,,,,,,,,,,,,,,,,,,,,,,,,,,,,,,,231.87359968000237,None,231.87359968000237,None,231.87359968000237,None,h,1,1.1857241969992174,233.40689128600206,None,233.40689128600206,None,233.40689128600206,None,234.67351614400104,None,234.67351614400104,None,234.67351614400104,None,234.67351614400104,None,,,,,,,,,,,,,,,,,,,,,,,,,,,,,,,,,,,,,,,,,,,,001,156,2020_Feb_20_1354,spring_faces,3.2.3,59.99433869440042,
condition files/Stage0c_2.xlsx,0c,theta,beta,g,"['h', 'g']","['Chess', 'Go']","[-0.15, 0.5]","[0.15, 0.5]",1,1,0,13,13,13,0,0,0,2,,,,,,,,,,,,,,,,,,,,,,,,,,,,,,,,,,,,,,,,,,,,,,,,,,,,,,,,,,,,,,,236.6569889400016,None,236.6569889400016,None,236.6569889400016,None,g,1,0.7704209550029191,238.1902479550008,None,238.1902479550008,None,238.1902479550008,None,239.0235996980009,None,239.0235996980009,None,239.0235996980009,None,239.0235996980009,None,,,,,,,,,,,,,,,,,,,,,,,,,,,,,,,,,,,,,,,,,,,,001,156,2020_Feb_20_1354,spring_faces,3.2.3,59.99433869440042,
condition files/Stage0c_2.xlsx,0c,phi,alpha,h,"['h', 'g']","['Chess', 'Go']","[-0.15, 0.5]","[0.15, 0.5]",1,1,0,13,13,13,0,1,1,1,,,,,,,,,,,,,,,,,,,,,,,,,,,,,,,,,,,,,,,,,,,,,,,,,,,,,,,,,,,,,,,241.006880637,None,241.006880637,None,241.006880637,None,h,1,1.317473956001777,242.52314402900083,None,242.52314402900083,None,242.52314402900083,None,243.90686732299946,None,243.90686732299946,None,243.90686732299946,None,243.90686732299946,None,,,,,,,,,,,,,,,,,,,,,,,,,,,,,,,,,,,,,,,,,,,,001,156,2020_Feb_20_1354,spring_faces,3.2.3,59.99433869440042,
condition files/Stage0c_2.xlsx,0c,alpha,theta,h,"['h', 'g']","['Chess', 'Go']","[-0.15, 0.5]","[0.15, 0.5]",1,1,0,13,13,13,0,2,2,0,,,,,,,,,,,,,,,,,,,,,,,,,,,,,,,,,,,,,,,,,,,,,,,,,,,,,,,,,,,,,,,245.8901546240013,None,245.8901546240013,None,245.8901546240013,None,h,1,0.9617268850015535,247.42297136300112,None,247.42297136300112,None,247.42297136300112,None,248.44023178399948,None,248.44023178399948,None,248.44023178399948,None,248.44023178399948,None,,,,,,,,,,,,,,,,,,,,,,,,,,,,,,,,,,,,,,,,,,,,001,156,2020_Feb_20_1354,spring_faces,3.2.3,59.99433869440042,
condition files/Stage0c_2.xlsx,0c,beta,phi,g,"['h', 'g']","['Chess', 'Go']","[-0.15, 0.5]","[0.15, 0.5]",1,1,0,13,13,13,0,3,3,3,,,,,,,,,,,,,,,,,,,,,,,,,,,,,,,,,,,,,,,,,,,,,,,,,,,,,,,,,,,,,,,250.42358597000202,None,250.42358597000202,None,250.42358597000202,None,g,1,0.8285237700001744,251.94013323400213,None,251.94013323400213,None,251.94013323400213,None,252.823582473,None,252.823582473,None,252.823582473,None,252.823582473,None,,,,,,,,,,,,,,,,,,,,,,,,,,,,,,,,,,,,,,,,,,,,001,156,2020_Feb_20_1354,spring_faces,3.2.3,59.99433869440042,
condition files/Stage0c_1.xlsx,0c,phi,beta,g,"['h', 'g']","['Chess', 'Go']","[-0.15, 0.5]","[0.15, 0.5]",1,1,0,14,14,14,0,0,0,3,,,,,,,,,,,,,,,,,,,,,,,,,,,,,,,,,,,,,,,,,,,,,,,,,,,,,,,,,,,,,,,254.82356376499956,None,254.82356376499956,None,254.82356376499956,None,g,1,1.1478645880015392,256.3568843489993,None,256.3568843489993,None,256.3568843489993,None,257.5568941420024,None,257.5568941420024,None,257.5568941420024,None,257.5568941420024,None,,,,,,,,,,,,,,,,,,,,,,,,,,,,,,,,,,,,,,,,,,,,001,156,2020_Feb_20_1354,spring_faces,3.2.3,59.99433869440042,
condition files/Stage0c_1.xlsx,0c,theta,alpha,h,"['h', 'g']","['Chess', 'Go']","[-0.15, 0.5]","[0.15, 0.5]",1,1,0,14,14,14,0,1,1,0,,,,,,,,,,,,,,,,,,,,,,,,,,,,,,,,,,,,,,,,,,,,,,,,,,,,,,,,,,,,,,,259.54019231300117,None,259.54019231300117,None,259.54019231300117,None,h,1,0.7671031429999857,261.07352112300214,None,261.07352112300214,None,261.07352112300214,None,261.9068469779995,None,261.9068469779995,None,261.9068469779995,None,261.9068469779995,None,,,,,,,,,,,,,,,,,,,,,,,,,,,,,,,,,,,,,,,,,,,,001,156,2020_Feb_20_1354,spring_faces,3.2.3,59.99433869440042,
condition files/Stage0c_1.xlsx,0c,beta,theta,g,"['h', 'g']","['Chess', 'Go']","[-0.15, 0.5]","[0.15, 0.5]",1,1,0,14,14,14,0,2,2,2,,,,,,,,,,,,,,,,,,,,,,,,,,,,,,,,,,,,,,,,,,,,,,,,,,,,,,,,,,,,,,,263.8901717059998,None,263.8901717059998,None,263.8901717059998,None,g,1,1.0091215209977236,265.4235537610002,None,265.4235537610002,None,265.4235537610002,None,266.4902194440001,None,266.4902194440001,None,266.4902194440001,None,266.4902194440001,None,,,,,,,,,,,,,,,,,,,,,,,,,,,,,,,,,,,,,,,,,,,,001,156,2020_Feb_20_1354,spring_faces,3.2.3,59.99433869440042,
condition files/Stage0c_1.xlsx,0c,alpha,phi,h,"['h', 'g']","['Chess', 'Go']","[-0.15, 0.5]","[0.15, 0.5]",1,1,0,14,14,14,0,3,3,1,,,,,,,,,,,,,,,,,,,,,,,,,,,,,,,,,,,,,,,,,,,,,,,,,,,,,,,,,,,,,,,268.49023988000044,None,268.49023988000044,None,268.49023988000044,None,h,1,0.9218422320009267,270.0068102840014,None,270.0068102840014,None,270.0068102840014,None,270.99022926700127,None,270.99022926700127,None,270.99022926700127,None,270.99022926700127,None,,,,,,,,,,,,,,,,,,,,,,,,,,,,,,,,,,,,,,,,,,,,001,156,2020_Feb_20_1354,spring_faces,3.2.3,59.99433869440042,
condition files/Stage0c_2.xlsx,0c,theta,beta,g,"['h', 'g']","['Chess', 'Go']","[-0.15, 0.5]","[0.15, 0.5]",1,1,0,15,15,15,0,0,0,2,,,,,,,,,,,,,,,,,,,,,,,,,,,,,,,,,,,,,,,,,,,,,,,,,,,,,,,,,,,,,,,272.9902572360006,None,272.9902572360006,None,272.9902572360006,None,g,1,0.8050750020011037,274.52359518100275,None,274.52359518100275,None,274.52359518100275,None,275.3902474660026,None,275.3902474660026,None,275.3902474660026,None,275.3902474660026,None,,,,,,,,,,,,,,,,,,,,,,,,,,,,,,,,,,,,,,,,,,,,001,156,2020_Feb_20_1354,spring_faces,3.2.3,59.99433869440042,
condition files/Stage0c_2.xlsx,0c,beta,phi,g,"['h', 'g']","['Chess', 'Go']","[-0.15, 0.5]","[0.15, 0.5]",1,1,0,15,15,15,0,1,1,3,,,,,,,,,,,,,,,,,,,,,,,,,,,,,,,,,,,,,,,,,,,,,,,,,,,,,,,,,,,,,,,277.37356835000173,None,277.37356835000173,None,277.37356835000173,None,g,1,1.2857228449975082,278.90688823600067,None,278.90688823600067,None,278.90688823600067,None,280.25698874500085,None,280.25698874500085,None,280.25698874500085,None,280.25698874500085,None,,,,,,,,,,,,,,,,,,,,,,,,,,,,,,,,,,,,,,,,,,,,001,156,2020_Feb_20_1354,spring_faces,3.2.3,59.99433869440042,
condition files/Stage0c_2.xlsx,0c,alpha,theta,h,"['h', 'g']","['Chess', 'Go']","[-0.15, 0.5]","[0.15, 0.5]",1,1,0,15,15,15,0,2,2,0,,,,,,,,,,,,,,,,,,,,,,,,,,,,,,,,,,,,,,,,,,,,,,,,,,,,,,,,,,,,,,,282.24024904100224,None,282.24024904100224,None,282.24024904100224,None,h,1,0.5950905789977696,283.7735809980004,None,283.7735809980004,None,283.7735809980004,None,284.4235990849993,None,284.4235990849993,None,284.4235990849993,None,284.4235990849993,None,,,,,,,,,,,,,,,,,,,,,,,,,,,,,,,,,,,,,,,,,,,,001,156,2020_Feb_20_1354,spring_faces,3.2.3,59.99433869440042,
condition files/Stage0c_2.xlsx,0c,phi,alpha,h,"['h', 'g']","['Chess', 'Go']","[-0.15, 0.5]","[0.15, 0.5]",1,1,0,15,15,15,0,3,3,1,,,,,,,,,,,,,,,,,,,,,,,,,,,,,,,,,,,,,,,,,,,,,,,,,,,,,,,,,,,,,,,286.4069250100001,None,286.4069250100001,None,286.4069250100001,None,h,1,1.4523940279977978,287.9402225920021,None,287.9402225920021,None,287.9402225920021,None,289.4570036110017,None,289.4570036110017,None,289.4570036110017,None,289.4570036110017,None,,,,,,,,,,,,,,,,,,,,,,,,,,,,,,,,,,,,,,,,,,,,001,156,2020_Feb_20_1354,spring_faces,3.2.3,59.99433869440042,
condition files/Stage0c_1.xlsx,0c,alpha,phi,h,"['h', 'g']","['Chess', 'Go']","[-0.15, 0.5]","[0.15, 0.5]",1,1,0,16,16,16,0,0,0,1,,,,,,,,,,,,,,,,,,,,,,,,,,,,,,,,,,,,,,,,,,,,,,,,,,,,,,,,,,,,,,,291.4568861200023,None,291.4568861200023,None,291.4568861200023,None,h,1,0.8183690969999589,292.99022107400015,None,292.99022107400015,None,292.99022107400015,None,293.87353072300175,None,293.87353072300175,None,293.87353072300175,None,293.87353072300175,None,,,,,,,,,,,,,,,,,,,,,,,,,,,,,,,,,,,,,,,,,,,,001,156,2020_Feb_20_1354,spring_faces,3.2.3,59.99433869440042,
condition files/Stage0c_1.xlsx,0c,phi,beta,g,"['h', 'g']","['Chess', 'Go']","[-0.15, 0.5]","[0.15, 0.5]",1,1,0,16,16,16,0,1,1,3,,,,,,,,,,,,,,,,,,,,,,,,,,,,,,,,,,,,,,,,,,,,,,,,,,,,,,,,,,,,,,,295.85691608600246,None,295.85691608600246,None,295.85691608600246,None,g,1,0.9145055929984665,297.39022542900057,None,297.39022542900057,None,297.39022542900057,None,298.3568904450003,None,298.3568904450003,None,298.3568904450003,None,298.3568904450003,None,,,,,,,,,,,,,,,,,,,,,,,,,,,,,,,,,,,,,,,,,,,,001,156,2020_Feb_20_1354,spring_faces,3.2.3,59.99433869440042,
condition files/Stage0c_1.xlsx,0c,beta,theta,g,"['h', 'g']","['Chess', 'Go']","[-0.15, 0.5]","[0.15, 0.5]",1,1,0,16,16,16,0,2,2,2,,,,,,,,,,,,,,,,,,,,,,,,,,,,,,,,,,,,,,,,,,,,,,,,,,,,,,,,,,,,,,,300.34017041600237,None,300.34017041600237,None,300.34017041600237,None,g,1,1.1040313710000191,301.85651217600025,None,301.85651217600025,None,301.85651217600025,None,303.02359720800087,None,303.02359720800087,None,303.02359720800087,None,303.02359720800087,None,,,,,,,,,,,,,,,,,,,,,,,,,,,,,,,,,,,,,,,,,,,,001,156,2020_Feb_20_1354,spring_faces,3.2.3,59.99433869440042,
condition files/Stage0c_1.xlsx,0c,theta,alpha,h,"['h', 'g']","['Chess', 'Go']","[-0.15, 0.5]","[0.15, 0.5]",1,1,0,16,16,16,0,3,3,0,,,,,,,,,,,,,,,,,,,,,,,,,,,,,,,,,,,,,,,,,,,,,,,,,,,,,,,,,,,,,,,305.0068981910008,None,305.0068981910008,None,305.0068981910008,None,h,1,0.8204069599996728,306.5402385720008,None,306.5402385720008,None,306.5402385720008,None,307.4402494679998,None,307.4402494679998,None,307.4402494679998,None,307.4402494679998,None,,,,,,,,,,,,,,,,,,,,,,,,,,,,,,,,,,,,,,,,,,,,001,156,2020_Feb_20_1354,spring_faces,3.2.3,59.99433869440042,
condition files/Stage0c_2.xlsx,0c,theta,beta,g,"['h', 'g']","['Chess', 'Go']","[-0.15, 0.5]","[0.15, 0.5]",1,1,0,17,17,17,0,0,0,2,,,,,,,,,,,,,,,,,,,,,,,,,,,,,,,,,,,,,,,,,,,,,,,,,,,,,,,,,,,,,,,309.42359283500264,None,309.42359283500264,None,309.42359283500264,None,g,1,0.7077524449996417,310.9569325070006,None,310.9569325070006,None,310.9569325070006,None,311.7235804129996,None,311.7235804129996,None,311.7235804129996,None,311.7235804129996,None,,,,,,,,,,,,,,,,,,,,,,,,,,,,,,,,,,,,,,,,,,,,001,156,2020_Feb_20_1354,spring_faces,3.2.3,59.99433869440042,
condition files/Stage0c_2.xlsx,0c,beta,phi,g,"['h', 'g']","['Chess', 'Go']","[-0.15, 0.5]","[0.15, 0.5]",1,1,0,17,17,17,0,1,1,3,,,,,,,,,,,,,,,,,,,,,,,,,,,,,,,,,,,,,,,,,,,,,,,,,,,,,,,,,,,,,,,313.7069210080008,None,313.7069210080008,None,313.7069210080008,None,g,1,1.224436845001037,315.24022283700106,None,315.24022283700106,None,315.24022283700106,None,316.5234804270003,None,316.5234804270003,None,316.5234804270003,None,316.5234804270003,None,,,,,,,,,,,,,,,,,,,,,,,,,,,,,,,,,,,,,,,,,,,,001,156,2020_Feb_20_1354,spring_faces,3.2.3,59.99433869440042,
condition files/Stage0c_2.xlsx,0c,alpha,theta,h,"['h', 'g']","['Chess', 'Go']","[-0.15, 0.5]","[0.15, 0.5]",1,1,0,17,17,17,0,2,2,0,,,,,,,,,,,,,,,,,,,,,,,,,,,,,,,,,,,,,,,,,,,,,,,,,,,,,,,,,,,,,,,318.5069194509997,None,318.5069194509997,None,318.5069194509997,None,h,1,1.240466942999774,320.0401475409999,None,320.0401475409999,None,320.0401475409999,None,321.3402223760022,None,321.3402223760022,None,321.3402223760022,None,321.3402223760022,None,,,,,,,,,,,,,,,,,,,,,,,,,,,,,,,,,,,,,,,,,,,,001,156,2020_Feb_20_1354,spring_faces,3.2.3,59.99433869440042,
condition files/Stage0c_2.xlsx,0c,phi,alpha,h,"['h', 'g']","['Chess', 'Go']","[-0.15, 0.5]","[0.15, 0.5]",1,1,0,17,17,17,0,3,3,1,,,,,,,,,,,,,,,,,,,,,,,,,,,,,,,,,,,,,,,,,,,,,,,,,,,,,,,,,,,,,,,323.32361027799925,None,323.32361027799925,None,323.32361027799925,None,h,1,0.8244667889994162,324.84023457700096,None,324.84023457700096,None,324.84023457700096,None,325.7235552310012,None,325.7235552310012,None,325.7235552310012,None,325.7235552310012,None,,,,,,,,,,,,,,,,,,,,,,,,,,,,,,,,,,,,,,,,,,,,001,156,2020_Feb_20_1354,spring_faces,3.2.3,59.99433869440042,
,,,,,,,,,,,,,,,,,,,,,,,,,,,,,,,,,,,,,,,,,,,,,,,,,,,,,,,,,,,,,,,,,,,,,,,,,,,,,,,,,,,,,,,,,,,,,,,,,,,,,,,,327.70690904300136,None,space,6.814550914001302,332.69022168599986,None,,,,,,,,,,,,,,,,,,,,,,,,,,,,,,,,,,,,,,001,156,2020_Feb_20_1354,spring_faces,3.2.3,59.99433869440042,
condition files/Stage1_1.xlsx,,B4,T4,m,"['c', 'm']","['Clue', 'Monopoly']","[-0.15, 0.5]","[0.15, 0.5]",1,1,,,,,,,,,0,0,0,0,0,0,0,7,,,,,,,,,,,,,,,,,,,,,,,,,,,,,,,,,,,,,,,,,,,,,,,,,,,,,,,339.55692285199984,None,339.55692285199984,None,339.55692285199984,None,c,0,4.238522502000706,341.0901597789998,None,341.0901597789998,None,341.0901597789998,None,345.42327642000237,None,345.42327642000237,None,345.42327642000237,None,345.42327642000237,None,,,,,,,332.69022168599986,None,,,,,,,,,,,,,,,,,,,,,,,,,,,,,,,,,,,,001,156,2020_Feb_20_1354,spring_faces,3.2.3,59.99433869440042,
condition files/Stage1_1.xlsx,,T1,B1,c,"['c', 'm']","['Clue', 'Monopoly']","[-0.15, 0.5]","[0.15, 0.5]",1,1,,,,,,,,,0,0,0,0,0,1,1,0,,,,,,,,,,,,,,,,,,,,,,,,,,,,,,,,,,,,,,,,,,,,,,,,,,,,,,,347.3735695630021,None,347.3735695630021,None,347.3735695630021,None,c,1,2.0537827420012036,348.90688688999944,None,348.90688688999944,None,348.90688688999944,None,351.04025283900046,None,351.04025283900046,None,351.04025283900046,None,351.04025283900046,None,,,,,,,,,,,,,,,,,,,,,,,,,,,,,,,,,,,,,,,,,,,,001,156,2020_Feb_20_1354,spring_faces,3.2.3,59.99433869440042,
condition files/Stage1_1.xlsx,,T3,B4,c,"['c', 'm']","['Clue', 'Monopoly']","[-0.15, 0.5]","[0.15, 0.5]",1,1,,,,,,,,,0,0,0,0,0,2,2,5,,,,,,,,,,,,,,,,,,,,,,,,,,,,,,,,,,,,,,,,,,,,,,,,,,,,,,,353.00694510700123,None,353.00694510700123,None,353.00694510700123,None,m,0,1.684341331001633,354.54023872700054,None,354.54023872700054,None,354.54023872700054,None,356.28999166200083,None,356.28999166200083,None,356.28999166200083,None,356.28999166200083,None,,,,,,,,,,,,,,,,,,,,,,,,,,,,,,,,,,,,,,,,,,,,001,156,2020_Feb_20_1354,spring_faces,3.2.3,59.99433869440042,
condition files/Stage1_1.xlsx,,T2,B2,m,"['c', 'm']","['Clue', 'Monopoly']","[-0.15, 0.5]","[0.15, 0.5]",1,1,,,,,,,,,0,0,0,0,0,3,3,3,,,,,,,,,,,,,,,,,,,,,,,,,,,,,,,,,,,,,,,,,,,,,,,,,,,,,,,358.2735209530001,None,358.2735209530001,None,358.2735209530001,None,m,1,1.2336900260015682,359.8069180420025,None,359.8069180420025,None,359.8069180420025,None,361.1235234119995,None,361.1235234119995,None,361.1235234119995,None,361.1235234119995,None,,,,,,,,,,,,,,,,,,,,,,,,,,,,,,,,,,,,,,,,,,,,001,156,2020_Feb_20_1354,spring_faces,3.2.3,59.99433869440042,
condition files/Stage1_1.xlsx,,B3,T3,c,"['c', 'm']","['Clue', 'Monopoly']","[-0.15, 0.5]","[0.15, 0.5]",1,1,,,,,,,,,0,0,0,0,0,4,4,4,,,,,,,,,,,,,,,,,,,,,,,,,,,,,,,,,,,,,,,,,,,,,,,,,,,,,,,363.0902946970018,None,363.0902946970018,None,363.0902946970018,None,c,1,1.60099555099805,364.6235838680004,None,364.6235838680004,None,364.6235838680004,None,366.3069344020005,None,366.3069344020005,None,366.3069344020005,None,366.3069344020005,None,,,,,,,,,,,,,,,,,,,,,,,,,,,,,,,,,,,,,,,,,,,,001,156,2020_Feb_20_1354,spring_faces,3.2.3,59.99433869440042,
condition files/Stage1_1.xlsx,,B2,T1,m,"['c', 'm']","['Clue', 'Monopoly']","[-0.15, 0.5]","[0.15, 0.5]",1,1,,,,,,,,,0,0,0,0,0,5,5,2,,,,,,,,,,,,,,,,,,,,,,,,,,,,,,,,,,,,,,,,,,,,,,,,,,,,,,,368.27350047100117,None,368.27350047100117,None,368.27350047100117,None,m,1,1.2336837990005733,369.80691072800255,None,369.80691072800255,None,369.80691072800255,None,371.1235266959993,None,371.1235266959993,None,371.1235266959993,None,371.1235266959993,None,,,,,,,,,,,,,,,,,,,,,,,,,,,,,,,,,,,,,,,,,,,,001,156,2020_Feb_20_1354,spring_faces,3.2.3,59.99433869440042,
condition files/Stage1_1.xlsx,,T4,B3,m,"['c', 'm']","['Clue', 'Monopoly']","[-0.15, 0.5]","[0.15, 0.5]",1,1,,,,,,,,,0,0,0,0,0,6,6,6,,,,,,,,,,,,,,,,,,,,,,,,,,,,,,,,,,,,,,,,,,,,,,,,,,,,,,,373.0901667580001,None,373.0901667580001,None,373.0901667580001,None,m,1,1.1530515470003593,374.6235880280001,None,374.6235880280001,None,374.6235880280001,None,375.85689210500277,None,375.85689210500277,None,375.85689210500277,None,375.85689210500277,None,,,,,,,,,,,,,,,,,,,,,,,,,,,,,,,,,,,,,,,,,,,,001,156,2020_Feb_20_1354,spring_faces,3.2.3,59.99433869440042,
condition files/Stage1_1.xlsx,,B1,T2,c,"['c', 'm']","['Clue', 'Monopoly']","[-0.15, 0.5]","[0.15, 0.5]",1,1,,,,,,,,,0,0,0,0,0,7,7,1,,,,,,,,,,,,,,,,,,,,,,,,,,,,,,,,,,,,,,,,,,,,,,,,,,,,,,,377.82358553499944,None,377.82358553499944,None,377.82358553499944,None,m,0,1.1877503479990992,379.35688855099943,None,379.35688855099943,None,379.35688855099943,None,380.6235853340004,None,380.6235853340004,None,380.6235853340004,None,380.6235853340004,None,,,,,,,,,,,,,,,,,,,,,,,,,,,,,,,,,,,,,,,,,,,,001,156,2020_Feb_20_1354,spring_faces,3.2.3,59.99433869440042,
condition files/Stage1_2.xlsx,,B4,T3,c,"['c', 'm']","['Clue', 'Monopoly']","[-0.15, 0.5]","[0.15, 0.5]",1,1,,,,,,,,,0,1,1,1,0,0,0,5,,,,,,,,,,,,,,,,,,,,,,,,,,,,,,,,,,,,,,,,,,,,,,,,,,,,,,,382.60693176399946,None,382.60693176399946,None,382.60693176399946,None,m,0,1.3484474680008134,384.140299212002,None,384.140299212002,None,384.140299212002,None,385.5401726939999,None,385.5401726939999,None,385.5401726939999,None,385.5401726939999,None,,,,,,,,,,,,,,,,,,,,,,,,,,,,,,,,,,,,,,,,,,,,001,156,2020_Feb_20_1354,spring_faces,3.2.3,59.99433869440042,
condition files/Stage1_2.xlsx,,T2,B1,c,"['c', 'm']","['Clue', 'Monopoly']","[-0.15, 0.5]","[0.15, 0.5]",1,1,,,,,,,,,0,1,1,1,0,1,1,1,,,,,,,,,,,,,,,,,,,,,,,,,,,,,,,,,,,,,,,,,,,,,,,,,,,,,,,387.523596256,None,387.523596256,None,387.523596256,None,c,1,0.9757822169995052,389.05689474099927,None,389.05689474099927,None,389.05689474099927,None,390.0900855330001,None,390.0900855330001,None,390.0900855330001,None,390.0900855330001,None,,,,,,,,,,,,,,,,,,,,,,,,,,,,,,,,,,,,,,,,,,,,001,156,2020_Feb_20_1354,spring_faces,3.2.3,59.99433869440042,
condition files/Stage1_2.xlsx,,B3,T4,m,"['c', 'm']","['Clue', 'Monopoly']","[-0.15, 0.5]","[0.15, 0.5]",1,1,,,,,,,,,0,1,1,1,0,2,2,6,,,,,,,,,,,,,,,,,,,,,,,,,,,,,,,,,,,,,,,,,,,,,,,,,,,,,,,392.0736088900012,None,392.0736088900012,None,392.0736088900012,None,m,1,2.137730561000353,393.6069221780017,None,393.6069221780017,None,393.6069221780017,None,395.8235820480004,None,395.8235820480004,None,395.8235820480004,None,395.8235820480004,None,,,,,,,,,,,,,,,,,,,,,,,,,,,,,,,,,,,,,,,,,,,,001,156,2020_Feb_20_1354,spring_faces,3.2.3,59.99433869440042,
condition files/Stage1_2.xlsx,,T1,B2,m,"['c', 'm']","['Clue', 'Monopoly']","[-0.15, 0.5]","[0.15, 0.5]",1,1,,,,,,,,,0,1,1,1,0,3,3,2,,,,,,,,,,,,,,,,,,,,,,,,,,,,,,,,,,,,,,,,,,,,,,,,,,,,,,,397.7902578400026,None,397.7902578400026,None,397.7902578400026,None,c,0,1.0450141249966691,399.32364239600065,None,399.32364239600065,None,399.32364239600065,None,400.44025097399935,None,400.44025097399935,None,400.44025097399935,None,400.44025097399935,None,,,,,,,,,,,,,,,,,,,,,,,,,,,,,,,,,,,,,,,,,,,,001,156,2020_Feb_20_1354,spring_faces,3.2.3,59.99433869440042,
condition files/Stage1_2.xlsx,,B1,T1,c,"['c', 'm']","['Clue', 'Monopoly']","[-0.15, 0.5]","[0.15, 0.5]",1,1,,,,,,,,,0,1,1,1,0,4,4,0,,,,,,,,,,,,,,,,,,,,,,,,,,,,,,,,,,,,,,,,,,,,,,,,,,,,,,,402.40691807500116,None,402.40691807500116,None,402.40691807500116,None,c,1,2.684319374999177,403.94026425800257,None,403.94026425800257,None,403.94026425800257,None,406.70689398200193,None,406.70689398200193,None,406.70689398200193,None,406.70689398200193,None,,,,,,,,,,,,,,,,,,,,,,,,,,,,,,,,,,,,,,,,,,,,001,156,2020_Feb_20_1354,spring_faces,3.2.3,59.99433869440042,
condition files/Stage1_2.xlsx,,B2,T2,m,"['c', 'm']","['Clue', 'Monopoly']","[-0.15, 0.5]","[0.15, 0.5]",1,1,,,,,,,,,0,1,1,1,0,5,5,3,,,,,,,,,,,,,,,,,,,,,,,,,,,,,,,,,,,,,,,,,,,,,,,,,,,,,,,408.6734737299994,None,408.6734737299994,None,408.6734737299994,None,m,1,0.7217568730011408,410.20688605800024,None,410.20688605800024,None,410.20688605800024,None,411.0069164960005,None,411.0069164960005,None,411.0069164960005,None,411.0069164960005,None,,,,,,,,,,,,,,,,,,,,,,,,,,,,,,,,,,,,,,,,,,,,001,156,2020_Feb_20_1354,spring_faces,3.2.3,59.99433869440042,
condition files/Stage1_2.xlsx,,T3,B3,c,"['c', 'm']","['Clue', 'Monopoly']","[-0.15, 0.5]","[0.15, 0.5]",1,1,,,,,,,,,0,1,1,1,0,6,6,4,,,,,,,,,,,,,,,,,,,,,,,,,,,,,,,,,,,,,,,,,,,,,,,,,,,,,,,412.973570219001,None,412.973570219001,None,412.973570219001,None,c,1,0.7577461350010708,414.5069283260018,None,414.5069283260018,None,414.5069283260018,None,415.34022768700015,None,415.34022768700015,None,415.34022768700015,None,415.34022768700015,None,,,,,,,,,,,,,,,,,,,,,,,,,,,,,,,,,,,,,,,,,,,,001,156,2020_Feb_20_1354,spring_faces,3.2.3,59.99433869440042,
condition files/Stage1_2.xlsx,,T4,B4,m,"['c', 'm']","['Clue', 'Monopoly']","[-0.15, 0.5]","[0.15, 0.5]",1,1,,,,,,,,,0,1,1,1,0,7,7,7,,,,,,,,,,,,,,,,,,,,,,,,,,,,,,,,,,,,,,,,,,,,,,,,,,,,,,,417.30691941400073,None,417.30691941400073,None,417.30691941400073,None,c,0,2.4244448239987832,418.8402333539998,None,418.8402333539998,None,418.8402333539998,None,421.34017189000224,None,421.34017189000224,None,421.34017189000224,None,421.34017189000224,None,,,,,,,,,,,,,,,,,,,,,,,,,,,,,,,,,,,,,,,,,,,,001,156,2020_Feb_20_1354,spring_faces,3.2.3,59.99433869440042,
condition files/Stage1_1.xlsx,,B2,T1,m,"['c', 'm']","['Clue', 'Monopoly']","[-0.15, 0.5]","[0.15, 0.5]",1,1,,,,,,,,,0,2,2,2,0,0,0,2,,,,,,,,,,,,,,,,,,,,,,,,,,,,,,,,,,,,,,,,,,,,,,,,,,,,,,,423.32359015600014,None,423.32359015600014,None,423.32359015600014,None,m,1,1.4478374870013795,424.85692053000093,None,424.85692053000093,None,424.85692053000093,None,426.356911117,None,426.356911117,None,426.356911117,None,426.356911117,None,,,,,,,,,,,,,,,,,,,,,,,,,,,,,,,,,,,,,,,,,,,,001,156,2020_Feb_20_1354,spring_faces,3.2.3,59.99433869440042,
condition files/Stage1_1.xlsx,,B3,T3,c,"['c', 'm']","['Clue', 'Monopoly']","[-0.15, 0.5]","[0.15, 0.5]",1,1,,,,,,,,,0,2,2,2,0,1,1,4,,,,,,,,,,,,,,,,,,,,,,,,,,,,,,,,,,,,,,,,,,,,,,,,,,,,,,,428.34025505500176,None,428.34025505500176,None,428.34025505500176,None,m,0,1.2472575819992926,429.8735006300012,None,429.8735006300012,None,429.8735006300012,None,431.19022860100085,None,431.19022860100085,None,431.19022860100085,None,431.19022860100085,None,,,,,,,,,,,,,,,,,,,,,,,,,,,,,,,,,,,,,,,,,,,,001,156,2020_Feb_20_1354,spring_faces,3.2.3,59.99433869440042,
condition files/Stage1_1.xlsx,,T1,B1,c,"['c', 'm']","['Clue', 'Monopoly']","[-0.15, 0.5]","[0.15, 0.5]",1,1,,,,,,,,,0,2,2,2,0,2,2,0,,,,,,,,,,,,,,,,,,,,,,,,,,,,,,,,,,,,,,,,,,,,,,,,,,,,,,,433.1568001220003,None,433.1568001220003,None,433.1568001220003,None,c,1,4.270424288999493,434.6902205059996,None,434.6902205059996,None,434.6902205059996,None,439.0235574690014,None,439.0235574690014,None,439.0235574690014,None,439.0235574690014,None,,,,,,,,,,,,,,,,,,,,,,,,,,,,,,,,,,,,,,,,,,,,001,156,2020_Feb_20_1354,spring_faces,3.2.3,59.99433869440042,
condition files/Stage1_1.xlsx,,B1,T2,c,"['c', 'm']","['Clue', 'Monopoly']","[-0.15, 0.5]","[0.15, 0.5]",1,1,,,,,,,,,0,2,2,2,0,3,3,1,,,,,,,,,,,,,,,,,,,,,,,,,,,,,,,,,,,,,,,,,,,,,,,,,,,,,,,441.0068907310015,None,441.0068907310015,None,441.0068907310015,None,m,0,5.364468551000755,442.54028948999985,None,442.54028948999985,None,442.54028948999985,None,447.973570047001,None,447.973570047001,None,447.973570047001,None,447.973570047001,None,,,,,,,,,,,,,,,,,,,,,,,,,,,,,,,,,,,,,,,,,,,,001,156,2020_Feb_20_1354,spring_faces,3.2.3,59.99433869440042,
condition files/Stage1_1.xlsx,,T3,B4,c,"['c', 'm']","['Clue', 'Monopoly']","[-0.15, 0.5]","[0.15, 0.5]",1,1,,,,,,,,,0,2,2,2,0,4,4,5,,,,,,,,,,,,,,,,,,,,,,,,,,,,,,,,,,,,,,,,,,,,,,,,,,,,,,,449.94016065899996,None,449.94016065899996,None,449.94016065899996,None,c,1,1.29518021399781,451.4735277330001,None,451.4735277330001,None,451.4735277330001,None,452.84022533499956,None,452.84022533499956,None,452.84022533499956,None,452.84022533499956,None,,,,,,,,,,,,,,,,,,,,,,,,,,,,,,,,,,,,,,,,,,,,001,156,2020_Feb_20_1354,spring_faces,3.2.3,59.99433869440042,
condition files/Stage1_1.xlsx,,B4,T4,m,"['c', 'm']","['Clue', 'Monopoly']","[-0.15, 0.5]","[0.15, 0.5]",1,1,,,,,,,,,0,2,2,2,0,5,5,7,,,,,,,,,,,,,,,,,,,,,,,,,,,,,,,,,,,,,,,,,,,,,,,,,,,,,,,454.80691180400026,None,454.80691180400026,None,454.80691180400026,None,m,1,2.3486100120026094,456.3401684780001,None,456.3401684780001,None,456.3401684780001,None,458.7569033809996,None,458.7569033809996,None,458.7569033809996,None,458.7569033809996,None,,,,,,,,,,,,,,,,,,,,,,,,,,,,,,,,,,,,,,,,,,,,001,156,2020_Feb_20_1354,spring_faces,3.2.3,59.99433869440042,
condition files/Stage1_1.xlsx,,T4,B3,m,"['c', 'm']","['Clue', 'Monopoly']","[-0.15, 0.5]","[0.15, 0.5]",1,1,,,,,,,,,0,2,2,2,0,6,6,6,,,,,,,,,,,,,,,,,,,,,,,,,,,,,,,,,,,,,,,,,,,,,,,,,,,,,,,460.72347776600145,None,460.72347776600145,None,460.72347776600145,None,c,0,2.2396532130005653,462.2569194150019,None,462.2569194150019,None,462.2569194150019,None,464.57348242300213,None,464.57348242300213,None,464.57348242300213,None,464.57348242300213,None,,,,,,,,,,,,,,,,,,,,,,,,,,,,,,,,,,,,,,,,,,,,001,156,2020_Feb_20_1354,spring_faces,3.2.3,59.99433869440042,
condition files/Stage1_1.xlsx,,T2,B2,m,"['c', 'm']","['Clue', 'Monopoly']","[-0.15, 0.5]","[0.15, 0.5]",1,1,,,,,,,,,0,2,2,2,0,7,7,3,,,,,,,,,,,,,,,,,,,,,,,,,,,,,,,,,,,,,,,,,,,,,,,,,,,,,,,466.5402145549997,None,466.5402145549997,None,466.5402145549997,None,m,1,1.703077548998408,468.07356593000077,None,468.07356593000077,None,468.07356593000077,None,469.8569042750023,None,469.8569042750023,None,469.8569042750023,None,469.8569042750023,None,,,,,,,,,,,,,,,,,,,,,,,,,,,,,,,,,,,,,,,,,,,,001,156,2020_Feb_20_1354,spring_faces,3.2.3,59.99433869440042,
condition files/Stage1_2.xlsx,,B1,T1,c,"['c', 'm']","['Clue', 'Monopoly']","[-0.15, 0.5]","[0.15, 0.5]",1,1,,,,,,,,,0,3,3,3,0,0,0,0,,,,,,,,,,,,,,,,,,,,,,,,,,,,,,,,,,,,,,,,,,,,,,,,,,,,,,,471.84022443300273,None,471.84022443300273,None,471.84022443300273,None,c,1,1.0751361650000035,473.3735614420002,None,473.3735614420002,None,473.3735614420002,None,474.52355800400255,None,474.52355800400255,None,474.52355800400255,None,474.52355800400255,None,,,,,,,,,,,,,,,,,,,,,,,,,,,,,,,,,,,,,,,,,,,,001,156,2020_Feb_20_1354,spring_faces,3.2.3,59.99433869440042,
condition files/Stage1_2.xlsx,,B3,T4,m,"['c', 'm']","['Clue', 'Monopoly']","[-0.15, 0.5]","[0.15, 0.5]",1,1,,,,,,,,,0,3,3,3,0,1,1,6,,,,,,,,,,,,,,,,,,,,,,,,,,,,,,,,,,,,,,,,,,,,,,,,,,,,,,,476.4902521860022,None,476.4902521860022,None,476.4902521860022,None,c,0,1.4170390389990644,478.0235649269998,None,478.0235649269998,None,478.0235649269998,None,479.5235384100015,None,479.5235384100015,None,479.5235384100015,None,479.5235384100015,None,,,,,,,,,,,,,,,,,,,,,,,,,,,,,,,,,,,,,,,,,,,,001,156,2020_Feb_20_1354,spring_faces,3.2.3,59.99433869440042,
condition files/Stage1_2.xlsx,,T2,B1,c,"['c', 'm']","['Clue', 'Monopoly']","[-0.15, 0.5]","[0.15, 0.5]",1,1,,,,,,,,,0,3,3,3,0,2,2,1,,,,,,,,,,,,,,,,,,,,,,,,,,,,,,,,,,,,,,,,,,,,,,,,,,,,,,,481.4901532389995,None,481.4901532389995,None,481.4901532389995,None,m,0,1.2971643400014727,483.02356911800234,None,483.02356911800234,None,483.02356911800234,None,484.3902456899996,None,484.3902456899996,None,484.3902456899996,None,484.3902456899996,None,,,,,,,,,,,,,,,,,,,,,,,,,,,,,,,,,,,,,,,,,,,,001,156,2020_Feb_20_1354,spring_faces,3.2.3,59.99433869440042,
condition files/Stage1_2.xlsx,,B4,T3,c,"['c', 'm']","['Clue', 'Monopoly']","[-0.15, 0.5]","[0.15, 0.5]",1,1,,,,,,,,,0,3,3,3,0,3,3,5,,,,,,,,,,,,,,,,,,,,,,,,,,,,,,,,,,,,,,,,,,,,,,,,,,,,,,,486.3569057679997,None,486.3569057679997,None,486.3569057679997,None,c,1,1.35851517500123,487.8901972900021,None,487.8901972900021,None,487.8901972900021,None,489.30688682899927,None,489.30688682899927,None,489.30688682899927,None,489.30688682899927,None,,,,,,,,,,,,,,,,,,,,,,,,,,,,,,,,,,,,,,,,,,,,001,156,2020_Feb_20_1354,spring_faces,3.2.3,59.99433869440042,
condition files/Stage1_2.xlsx,,B2,T2,m,"['c', 'm']","['Clue', 'Monopoly']","[-0.15, 0.5]","[0.15, 0.5]",1,1,,,,,,,,,0,3,3,3,0,4,4,3,,,,,,,,,,,,,,,,,,,,,,,,,,,,,,,,,,,,,,,,,,,,,,,,,,,,,,,491.2902586950004,None,491.2902586950004,None,491.2902586950004,None,m,1,1.433152562000032,492.82358588600255,None,492.82358588600255,None,492.82358588600255,None,494.3234981360001,None,494.3234981360001,None,494.3234981360001,None,494.3234981360001,None,,,,,,,,,,,,,,,,,,,,,,,,,,,,,,,,,,,,,,,,,,,,001,156,2020_Feb_20_1354,spring_faces,3.2.3,59.99433869440042,
condition files/Stage1_2.xlsx,,T1,B2,m,"['c', 'm']","['Clue', 'Monopoly']","[-0.15, 0.5]","[0.15, 0.5]",1,1,,,,,,,,,0,3,3,3,0,5,5,2,,,,,,,,,,,,,,,,,,,,,,,,,,,,,,,,,,,,,,,,,,,,,,,,,,,,,,,496.2901578000019,None,496.2901578000019,None,496.2901578000019,None,m,1,1.2971728390002681,497.8235592029996,None,497.8235592029996,None,497.8235592029996,None,499.1735902040018,None,499.1735902040018,None,499.1735902040018,None,499.1735902040018,None,,,,,,,,,,,,,,,,,,,,,,,,,,,,,,,,,,,,,,,,,,,,001,156,2020_Feb_20_1354,spring_faces,3.2.3,59.99433869440042,
condition files/Stage1_2.xlsx,,T4,B4,m,"['c', 'm']","['Clue', 'Monopoly']","[-0.15, 0.5]","[0.15, 0.5]",1,1,,,,,,,,,0,3,3,3,0,6,6,7,,,,,,,,,,,,,,,,,,,,,,,,,,,,,,,,,,,,,,,,,,,,,,,,,,,,,,,501.1568977749994,None,501.1568977749994,None,501.1568977749994,None,c,0,0.7504747189996124,502.69016151100004,None,502.69016151100004,None,502.69016151100004,None,503.50686516100177,None,503.50686516100177,None,503.50686516100177,None,503.50686516100177,None,,,,,,,,,,,,,,,,,,,,,,,,,,,,,,,,,,,,,,,,,,,,001,156,2020_Feb_20_1354,spring_faces,3.2.3,59.99433869440042,
condition files/Stage1_2.xlsx,,T3,B3,c,"['c', 'm']","['Clue', 'Monopoly']","[-0.15, 0.5]","[0.15, 0.5]",1,1,,,,,,,,,0,3,3,3,0,7,7,4,,,,,,,,,,,,,,,,,,,,,,,,,,,,,,,,,,,,,,,,,,,,,,,,,,,,,,,505.49016120500164,None,505.49016120500164,None,505.49016120500164,None,c,1,0.9771164770027099,507.02356417600095,None,507.02356417600095,None,507.02356417600095,None,508.07356719699965,None,508.07356719699965,None,508.07356719699965,None,508.07356719699965,None,,,,,,,,,,,,,,,,,,,,,,,,,,,,,,,,,,,,,,,,,,,,001,156,2020_Feb_20_1354,spring_faces,3.2.3,59.99433869440042,
condition files/Stage1_1.xlsx,,B3,T3,c,"['c', 'm']","['Clue', 'Monopoly']","[-0.15, 0.5]","[0.15, 0.5]",1,1,,,,,,,,,0,4,4,4,0,0,0,4,,,,,,,,,,,,,,,,,,,,,,,,,,,,,,,,,,,,,,,,,,,,,,,,,,,,,,,510.0568907920024,None,510.0568907920024,None,510.0568907920024,None,c,1,0.9864559990019188,511.59021004100214,None,511.59021004100214,None,511.59021004100214,None,512.6569819950018,None,512.6569819950018,None,512.6569819950018,None,512.6569819950018,None,,,,,,,,,,,,,,,,,,,,,,,,,,,,,,,,,,,,,,,,,,,,001,156,2020_Feb_20_1354,spring_faces,3.2.3,59.99433869440042,
condition files/Stage1_1.xlsx,,B2,T1,m,"['c', 'm']","['Clue', 'Monopoly']","[-0.15, 0.5]","[0.15, 0.5]",1,1,,,,,,,,,0,4,4,4,0,1,1,2,,,,,,,,,,,,,,,,,,,,,,,,,,,,,,,,,,,,,,,,,,,,,,,,,,,,,,,514.6235744040023,None,514.6235744040023,None,514.6235744040023,None,m,1,0.9956543400003284,516.1569273189998,None,516.1569273189998,None,516.1569273189998,None,517.2235686170025,None,517.2235686170025,None,517.2235686170025,None,517.2235686170025,None,,,,,,,,,,,,,,,,,,,,,,,,,,,,,,,,,,,,,,,,,,,,001,156,2020_Feb_20_1354,spring_faces,3.2.3,59.99433869440042,
condition files/Stage1_1.xlsx,,B1,T2,c,"['c', 'm']","['Clue', 'Monopoly']","[-0.15, 0.5]","[0.15, 0.5]",1,1,,,,,,,,,0,4,4,4,0,2,2,1,,,,,,,,,,,,,,,,,,,,,,,,,,,,,,,,,,,,,,,,,,,,,,,,,,,,,,,519.1902329050026,None,519.1902329050026,None,519.1902329050026,None,c,1,2.2531887580007606,520.7234960860005,None,520.7234960860005,None,520.7234960860005,None,523.0570117960015,None,523.0570117960015,None,523.0570117960015,None,523.0570117960015,None,,,,,,,,,,,,,,,,,,,,,,,,,,,,,,,,,,,,,,,,,,,,001,156,2020_Feb_20_1354,spring_faces,3.2.3,59.99433869440042,
condition files/Stage1_1.xlsx,,T2,B2,m,"['c', 'm']","['Clue', 'Monopoly']","[-0.15, 0.5]","[0.15, 0.5]",1,1,,,,,,,,,0,4,4,4,0,3,3,3,,,,,,,,,,,,,,,,,,,,,,,,,,,,,,,,,,,,,,,,,,,,,,,,,,,,,,,525.0236110260012,None,525.0236110260012,None,525.0236110260012,None,m,1,1.6998063620012545,526.556923262,None,526.556923262,None,526.556923262,None,528.3235116860014,None,528.3235116860014,None,528.3235116860014,None,528.3235116860014,None,,,,,,,,,,,,,,,,,,,,,,,,,,,,,,,,,,,,,,,,,,,,001,156,2020_Feb_20_1354,spring_faces,3.2.3,59.99433869440042,
condition files/Stage1_1.xlsx,,T4,B3,m,"['c', 'm']","['Clue', 'Monopoly']","[-0.15, 0.5]","[0.15, 0.5]",1,1,,,,,,,,,0,4,4,4,0,4,4,6,,,,,,,,,,,,,,,,,,,,,,,,,,,,,,,,,,,,,,,,,,,,,,,,,,,,,,,530.2902834720007,None,530.2902834720007,None,530.2902834720007,None,c,0,1.2651990039994416,531.8235593919999,None,531.8235593919999,None,531.8235593919999,None,533.1569226730026,None,533.1569226730026,None,533.1569226730026,None,533.1569226730026,None,,,,,,,,,,,,,,,,,,,,,,,,,,,,,,,,,,,,,,,,,,,,001,156,2020_Feb_20_1354,spring_faces,3.2.3,59.99433869440042,
condition files/Stage1_1.xlsx,,B4,T4,m,"['c', 'm']","['Clue', 'Monopoly']","[-0.15, 0.5]","[0.15, 0.5]",1,1,,,,,,,,,0,4,4,4,0,5,5,7,,,,,,,,,,,,,,,,,,,,,,,,,,,,,,,,,,,,,,,,,,,,,,,,,,,,,,,535.1235056299993,None,535.1235056299993,None,535.1235056299993,None,c,0,1.2797871330003545,536.6569204750012,None,536.6569204750012,None,536.6569204750012,None,537.9902580140006,None,537.9902580140006,None,537.9902580140006,None,537.9902580140006,None,,,,,,,,,,,,,,,,,,,,,,,,,,,,,,,,,,,,,,,,,,,,001,156,2020_Feb_20_1354,spring_faces,3.2.3,59.99433869440042,
condition files/Stage1_1.xlsx,,T3,B4,c,"['c', 'm']","['Clue', 'Monopoly']","[-0.15, 0.5]","[0.15, 0.5]",1,1,,,,,,,,,0,4,4,4,0,6,6,5,,,,,,,,,,,,,,,,,,,,,,,,,,,,,,,,,,,,,,,,,,,,,,,,,,,,,,,539.9734688600001,None,539.9734688600001,None,539.9734688600001,None,c,1,0.573792148999928,541.5069032220017,None,541.5069032220017,None,541.5069032220017,None,542.1568953339993,None,542.1568953339993,None,542.1568953339993,None,542.1568953339993,None,,,,,,,,,,,,,,,,,,,,,,,,,,,,,,,,,,,,,,,,,,,,001,156,2020_Feb_20_1354,spring_faces,3.2.3,59.99433869440042,
condition files/Stage1_1.xlsx,,T1,B1,c,"['c', 'm']","['Clue', 'Monopoly']","[-0.15, 0.5]","[0.15, 0.5]",1,1,,,,,,,,,0,4,4,4,0,7,7,0,,,,,,,,,,,,,,,,,,,,,,,,,,,,,,,,,,,,,,,,,,,,,,,,,,,,,,,544.1235720639997,None,544.1235720639997,None,544.1235720639997,None,m,0,0.3917728119995445,545.6569101620007,None,545.6569101620007,None,545.6569101620007,None,546.1069332620027,None,546.1069332620027,None,546.1069332620027,None,546.1069332620027,None,,,,,,,,,,,,,,,,,,,,,,,,,,,,,,,,,,,,,,,,,,,,001,156,2020_Feb_20_1354,spring_faces,3.2.3,59.99433869440042,
condition files/Stage1_2.xlsx,,T3,B3,c,"['c', 'm']","['Clue', 'Monopoly']","[-0.15, 0.5]","[0.15, 0.5]",1,1,,,,,,,,,0,5,5,5,0,0,0,4,,,,,,,,,,,,,,,,,,,,,,,,,,,,,,,,,,,,,,,,,,,,,,,,,,,,,,,548.106894433,None,548.106894433,None,548.106894433,None,c,1,0.9044437720003771,549.6402292940002,None,549.6402292940002,None,549.6402292940002,None,550.6235587090014,None,550.6235587090014,None,550.6235587090014,None,550.6235587090014,None,,,,,,,,,,,,,,,,,,,,,,,,,,,,,,,,,,,,,,,,,,,,001,156,2020_Feb_20_1354,spring_faces,3.2.3,59.99433869440042,
condition files/Stage1_2.xlsx,,B2,T2,m,"['c', 'm']","['Clue', 'Monopoly']","[-0.15, 0.5]","[0.15, 0.5]",1,1,,,,,,,,,0,5,5,5,0,1,1,3,,,,,,,,,,,,,,,,,,,,,,,,,,,,,,,,,,,,,,,,,,,,,,,,,,,,,,,552.5902248780003,None,552.5902248780003,None,552.5902248780003,None,m,1,1.3331780640000943,554.1235629559997,None,554.1235629559997,None,554.1235629559997,None,555.5235212190019,None,555.5235212190019,None,555.5235212190019,None,555.5235212190019,None,,,,,,,,,,,,,,,,,,,,,,,,,,,,,,,,,,,,,,,,,,,,001,156,2020_Feb_20_1354,spring_faces,3.2.3,59.99433869440042,
condition files/Stage1_2.xlsx,,B4,T3,c,"['c', 'm']","['Clue', 'Monopoly']","[-0.15, 0.5]","[0.15, 0.5]",1,1,,,,,,,,,0,5,5,5,0,2,2,5,,,,,,,,,,,,,,,,,,,,,,,,,,,,,,,,,,,,,,,,,,,,,,,,,,,,,,,557.4901712680003,None,557.4901712680003,None,557.4901712680003,None,m,0,1.2009920329983288,559.0235866330004,None,559.0235866330004,None,559.0235866330004,None,560.3069281570024,None,560.3069281570024,None,560.3069281570024,None,560.3069281570024,None,,,,,,,,,,,,,,,,,,,,,,,,,,,,,,,,,,,,,,,,,,,,001,156,2020_Feb_20_1354,spring_faces,3.2.3,59.99433869440042,
condition files/Stage1_2.xlsx,,T4,B4,m,"['c', 'm']","['Clue', 'Monopoly']","[-0.15, 0.5]","[0.15, 0.5]",1,1,,,,,,,,,0,5,5,5,0,3,3,7,,,,,,,,,,,,,,,,,,,,,,,,,,,,,,,,,,,,,,,,,,,,,,,,,,,,,,,562.2735978060009,None,562.2735978060009,None,562.2735978060009,None,m,1,1.5536843779991614,563.8069231360023,None,563.8069231360023,None,563.8069231360023,None,565.4402435299999,None,565.4402435299999,None,565.4402435299999,None,565.4402435299999,None,,,,,,,,,,,,,,,,,,,,,,,,,,,,,,,,,,,,,,,,,,,,001,156,2020_Feb_20_1354,spring_faces,3.2.3,59.99433869440042,
condition files/Stage1_2.xlsx,,T2,B1,c,"['c', 'm']","['Clue', 'Monopoly']","[-0.15, 0.5]","[0.15, 0.5]",1,1,,,,,,,,,0,5,5,5,0,4,4,1,,,,,,,,,,,,,,,,,,,,,,,,,,,,,,,,,,,,,,,,,,,,,,,,,,,,,,,567.4069386170013,None,567.4069386170013,None,567.4069386170013,None,c,1,1.3325098200002685,568.9402491690016,None,568.9402491690016,None,568.9402491690016,None,570.3401838099999,None,570.3401838099999,None,570.3401838099999,None,570.3401838099999,None,,,,,,,,,,,,,,,,,,,,,,,,,,,,,,,,,,,,,,,,,,,,001,156,2020_Feb_20_1354,spring_faces,3.2.3,59.99433869440042,
condition files/Stage1_2.xlsx,,T1,B2,m,"['c', 'm']","['Clue', 'Monopoly']","[-0.15, 0.5]","[0.15, 0.5]",1,1,,,,,,,,,0,5,5,5,0,5,5,2,,,,,,,,,,,,,,,,,,,,,,,,,,,,,,,,,,,,,,,,,,,,,,,,,,,,,,,572.3069313230008,None,572.3069313230008,None,572.3069313230008,None,c,0,2.01648115900025,573.8402479630022,None,573.8402479630022,None,573.8402479630022,None,575.9234248089997,None,575.9234248089997,None,575.9234248089997,None,575.9234248089997,None,,,,,,,,,,,,,,,,,,,,,,,,,,,,,,,,,,,,,,,,,,,,001,156,2020_Feb_20_1354,spring_faces,3.2.3,59.99433869440042,
condition files/Stage1_2.xlsx,,B3,T4,m,"['c', 'm']","['Clue', 'Monopoly']","[-0.15, 0.5]","[0.15, 0.5]",1,1,,,,,,,,,0,5,5,5,0,6,6,6,,,,,,,,,,,,,,,,,,,,,,,,,,,,,,,,,,,,,,,,,,,,,,,,,,,,,,,577.8901866460001,None,577.8901866460001,None,577.8901866460001,None,m,1,2.0009939490009856,579.4235881820023,None,579.4235881820023,None,579.4235881820023,None,581.5069240779994,None,581.5069240779994,None,581.5069240779994,None,581.5069240779994,None,,,,,,,,,,,,,,,,,,,,,,,,,,,,,,,,,,,,,,,,,,,,001,156,2020_Feb_20_1354,spring_faces,3.2.3,59.99433869440042,
condition files/Stage1_2.xlsx,,B1,T1,c,"['c', 'm']","['Clue', 'Monopoly']","[-0.15, 0.5]","[0.15, 0.5]",1,1,,,,,,,,,0,5,5,5,0,7,7,0,,,,,,,,,,,,,,,,,,,,,,,,,,,,,,,,,,,,,,,,,,,,,,,,,,,,,,,583.4735190200008,None,583.4735190200008,None,583.4735190200008,None,c,1,0.881820577000326,585.0069306639998,None,585.0069306639998,None,585.0069306639998,None,585.9569220190024,None,585.9569220190024,None,585.9569220190024,None,585.9569220190024,None,,,,,,,,,,,,,,,,,,,,,,,,,,,,,,,,,,,,,,,,,,,,001,156,2020_Feb_20_1354,spring_faces,3.2.3,59.99433869440042,
condition files/Stage1_1.xlsx,,B1,T2,c,"['c', 'm']","['Clue', 'Monopoly']","[-0.15, 0.5]","[0.15, 0.5]",1,1,,,,,,,,,0,6,6,6,0,0,0,1,,,,,,,,,,,,,,,,,,,,,,,,,,,,,,,,,,,,,,,,,,,,,,,,,,,,,,,587.9402157460027,None,587.9402157460027,None,587.9402157460027,None,m,0,1.1510877509972488,589.4735368729998,None,589.4735368729998,None,589.4735368729998,None,590.7068420930009,None,590.7068420930009,None,590.7068420930009,None,590.7068420930009,None,,,,,,,,,,,,,,,,,,,,,,,,,,,,,,,,,,,,,,,,,,,,001,156,2020_Feb_20_1354,spring_faces,3.2.3,59.99433869440042,
condition files/Stage1_1.xlsx,,B2,T1,m,"['c', 'm']","['Clue', 'Monopoly']","[-0.15, 0.5]","[0.15, 0.5]",1,1,,,,,,,,,0,6,6,6,0,1,1,2,,,,,,,,,,,,,,,,,,,,,,,,,,,,,,,,,,,,,,,,,,,,,,,,,,,,,,,592.6735581489993,None,592.6735581489993,None,592.6735581489993,None,m,1,1.0257773000012094,594.2068988060018,None,594.2068988060018,None,594.2068988060018,None,595.3069260500015,None,595.3069260500015,None,595.3069260500015,None,595.3069260500015,None,,,,,,,,,,,,,,,,,,,,,,,,,,,,,,,,,,,,,,,,,,,,001,156,2020_Feb_20_1354,spring_faces,3.2.3,59.99433869440042,
condition files/Stage1_1.xlsx,,B4,T4,m,"['c', 'm']","['Clue', 'Monopoly']","[-0.15, 0.5]","[0.15, 0.5]",1,1,,,,,,,,,0,6,6,6,0,2,2,7,,,,,,,,,,,,,,,,,,,,,,,,,,,,,,,,,,,,,,,,,,,,,,,,,,,,,,,597.2735965259999,None,597.2735965259999,None,597.2735965259999,None,m,1,0.9537307140017219,598.8069209290006,None,598.8069209290006,None,598.8069209290006,None,599.8231155499998,None,599.8231155499998,None,599.8231155499998,None,599.8231155499998,None,,,,,,,,,,,,,,,,,,,,,,,,,,,,,,,,,,,,,,,,,,,,001,156,2020_Feb_20_1354,spring_faces,3.2.3,59.99433869440042,
condition files/Stage1_1.xlsx,,T2,B2,m,"['c', 'm']","['Clue', 'Monopoly']","[-0.15, 0.5]","[0.15, 0.5]",1,1,,,,,,,,,0,6,6,6,0,3,3,3,,,,,,,,,,,,,,,,,,,,,,,,,,,,,,,,,,,,,,,,,,,,,,,,,,,,,,,601.8069465139997,None,601.8069465139997,None,601.8069465139997,None,m,1,1.284352751001279,603.3402473900023,None,603.3402473900023,None,603.3402473900023,None,604.7068997060014,None,604.7068997060014,None,604.7068997060014,None,604.7068997060014,None,,,,,,,,,,,,,,,,,,,,,,,,,,,,,,,,,,,,,,,,,,,,001,156,2020_Feb_20_1354,spring_faces,3.2.3,59.99433869440042,
condition files/Stage1_1.xlsx,,T1,B1,c,"['c', 'm']","['Clue', 'Monopoly']","[-0.15, 0.5]","[0.15, 0.5]",1,1,,,,,,,,,0,6,6,6,0,4,4,0,,,,,,,,,,,,,,,,,,,,,,,,,,,,,,,,,,,,,,,,,,,,,,,,,,,,,,,606.673477196,None,606.673477196,None,606.673477196,None,m,0,0.8016921739981626,608.2068949090026,None,608.2068949090026,None,608.2068949090026,None,609.0901920590004,None,609.0901920590004,None,609.0901920590004,None,609.0901920590004,None,,,,,,,,,,,,,,,,,,,,,,,,,,,,,,,,,,,,,,,,,,,,001,156,2020_Feb_20_1354,spring_faces,3.2.3,59.99433869440042,
condition files/Stage1_1.xlsx,,T3,B4,c,"['c', 'm']","['Clue', 'Monopoly']","[-0.15, 0.5]","[0.15, 0.5]",1,1,,,,,,,,,0,6,6,6,0,5,5,5,,,,,,,,,,,,,,,,,,,,,,,,,,,,,,,,,,,,,,,,,,,,,,,,,,,,,,,611.0569095140017,None,611.0569095140017,None,611.0569095140017,None,m,0,1.1063303910013929,612.5902307979995,None,612.5902307979995,None,612.5902307979995,None,613.7568951380017,None,613.7568951380017,None,613.7568951380017,None,613.7568951380017,None,,,,,,,,,,,,,,,,,,,,,,,,,,,,,,,,,,,,,,,,,,,,001,156,2020_Feb_20_1354,spring_faces,3.2.3,59.99433869440042,
condition files/Stage1_1.xlsx,,B3,T3,c,"['c', 'm']","['Clue', 'Monopoly']","[-0.15, 0.5]","[0.15, 0.5]",1,1,,,,,,,,,0,6,6,6,0,6,6,4,,,,,,,,,,,,,,,,,,,,,,,,,,,,,,,,,,,,,,,,,,,,,,,,,,,,,,,615.7402837910013,None,615.7402837910013,None,615.7402837910013,None,c,1,1.063119173002633,617.2735928229995,None,617.2735928229995,None,617.2735928229995,None,618.3902262720003,None,618.3902262720003,None,618.3902262720003,None,618.3902262720003,None,,,,,,,,,,,,,,,,,,,,,,,,,,,,,,,,,,,,,,,,,,,,001,156,2020_Feb_20_1354,spring_faces,3.2.3,59.99433869440042,
condition files/Stage1_1.xlsx,,T4,B3,m,"['c', 'm']","['Clue', 'Monopoly']","[-0.15, 0.5]","[0.15, 0.5]",1,1,,,,,,,,,0,6,6,6,0,7,7,6,,,,,,,,,,,,,,,,,,,,,,,,,,,,,,,,,,,,,,,,,,,,,,,,,,,,,,,620.3735744900005,None,620.3735744900005,None,620.3735744900005,None,c,0,1.3418717099993955,621.906844854002,None,621.906844854002,None,621.906844854002,None,623.3235638400001,None,623.3235638400001,None,623.3235638400001,None,623.3235638400001,None,,,,,,,,,,,,,,,,,,,,,,,,,,,,,,,,,,,,,,,,,,,,001,156,2020_Feb_20_1354,spring_faces,3.2.3,59.99433869440042,
condition files/Stage1_2.xlsx,,T1,B2,m,"['c', 'm']","['Clue', 'Monopoly']","[-0.15, 0.5]","[0.15, 0.5]",1,1,,,,,,,,,0,7,7,7,0,0,0,2,,,,,,,,,,,,,,,,,,,,,,,,,,,,,,,,,,,,,,,,,,,,,,,,,,,,,,,625.3068876600009,None,625.3068876600009,None,625.3068876600009,None,m,1,0.9044209769999725,626.8402520279997,None,626.8402520279997,None,626.8402520279997,None,627.806905554,None,627.806905554,None,627.806905554,None,627.806905554,None,,,,,,,,,,,,,,,,,,,,,,,,,,,,,,,,,,,,,,,,,,,,001,156,2020_Feb_20_1354,spring_faces,3.2.3,59.99433869440042,
condition files/Stage1_2.xlsx,,B1,T1,c,"['c', 'm']","['Clue', 'Monopoly']","[-0.15, 0.5]","[0.15, 0.5]",1,1,,,,,,,,,0,7,7,7,0,1,1,0,,,,,,,,,,,,,,,,,,,,,,,,,,,,,,,,,,,,,,,,,,,,,,,,,,,,,,,629.7902350190016,None,629.7902350190016,None,629.7902350190016,None,c,1,1.5091191140018054,631.3235665400025,None,631.3235665400025,None,631.3235665400025,None,632.9069148359995,None,632.9069148359995,None,632.9069148359995,None,632.9069148359995,None,,,,,,,,,,,,,,,,,,,,,,,,,,,,,,,,,,,,,,,,,,,,001,156,2020_Feb_20_1354,spring_faces,3.2.3,59.99433869440042,
condition files/Stage1_2.xlsx,,T2,B1,c,"['c', 'm']","['Clue', 'Monopoly']","[-0.15, 0.5]","[0.15, 0.5]",1,1,,,,,,,,,0,7,7,7,0,2,2,1,,,,,,,,,,,,,,,,,,,,,,,,,,,,,,,,,,,,,,,,,,,,,,,,,,,,,,,634.8736193290024,None,634.8736193290024,None,634.8736193290024,None,c,1,1.6737426399995456,636.4069203030012,None,636.4069203030012,None,636.4069203030012,None,638.1569248730011,None,638.1569248730011,None,638.1569248730011,None,638.1569248730011,None,,,,,,,,,,,,,,,,,,,,,,,,,,,,,,,,,,,,,,,,,,,,001,156,2020_Feb_20_1354,spring_faces,3.2.3,59.99433869440042,
condition files/Stage1_2.xlsx,,B4,T3,c,"['c', 'm']","['Clue', 'Monopoly']","[-0.15, 0.5]","[0.15, 0.5]",1,1,,,,,,,,,0,7,7,7,0,3,3,5,,,,,,,,,,,,,,,,,,,,,,,,,,,,,,,,,,,,,,,,,,,,,,,,,,,,,,,640.1236166800009,None,640.1236166800009,None,640.1236166800009,None,c,1,1.9917549640013021,641.6569268650019,None,641.6569268650019,None,641.6569268650019,None,643.7066890280003,None,643.7066890280003,None,643.7066890280003,None,643.7066890280003,None,,,,,,,,,,,,,,,,,,,,,,,,,,,,,,,,,,,,,,,,,,,,001,156,2020_Feb_20_1354,spring_faces,3.2.3,59.99433869440042,
condition files/Stage1_2.xlsx,,T3,B3,c,"['c', 'm']","['Clue', 'Monopoly']","[-0.15, 0.5]","[0.15, 0.5]",1,1,,,,,,,,,0,7,7,7,0,4,4,4,,,,,,,,,,,,,,,,,,,,,,,,,,,,,,,,,,,,,,,,,,,,,,,,,,,,,,,645.6902728259993,None,645.6902728259993,None,645.6902728259993,None,c,1,1.369032413000241,647.2236006740022,None,647.2236006740022,None,647.2236006740022,None,648.6735872360005,None,648.6735872360005,None,648.6735872360005,None,648.6735872360005,None,,,,,,,,,,,,,,,,,,,,,,,,,,,,,,,,,,,,,,,,,,,,001,156,2020_Feb_20_1354,spring_faces,3.2.3,59.99433869440042,
condition files/Stage1_2.xlsx,,B3,T4,m,"['c', 'm']","['Clue', 'Monopoly']","[-0.15, 0.5]","[0.15, 0.5]",1,1,,,,,,,,,0,7,7,7,0,5,5,6,,,,,,,,,,,,,,,,,,,,,,,,,,,,,,,,,,,,,,,,,,,,,,,,,,,,,,,650.6402511699998,None,650.6402511699998,None,650.6402511699998,None,m,1,1.5070760620001238,652.1735980680023,None,652.1735980680023,None,652.1735980680023,None,653.7569236830022,None,653.7569236830022,None,653.7569236830022,None,653.7569236830022,None,,,,,,,,,,,,,,,,,,,,,,,,,,,,,,,,,,,,,,,,,,,,001,156,2020_Feb_20_1354,spring_faces,3.2.3,59.99433869440042,
condition files/Stage1_2.xlsx,,B2,T2,m,"['c', 'm']","['Clue', 'Monopoly']","[-0.15, 0.5]","[0.15, 0.5]",1,1,,,,,,,,,0,7,7,7,0,6,6,3,,,,,,,,,,,,,,,,,,,,,,,,,,,,,,,,,,,,,,,,,,,,,,,,,,,,,,,655.7235919880004,None,655.7235919880004,None,655.7235919880004,None,m,1,0.9197304590015847,657.2569223470018,None,657.2569223470018,None,657.2569223470018,None,658.240213977002,None,658.240213977002,None,658.240213977002,None,658.240213977002,None,,,,,,,,,,,,,,,,,,,,,,,,,,,,,,,,,,,,,,,,,,,,001,156,2020_Feb_20_1354,spring_faces,3.2.3,59.99433869440042,
condition files/Stage1_2.xlsx,,T4,B4,m,"['c', 'm']","['Clue', 'Monopoly']","[-0.15, 0.5]","[0.15, 0.5]",1,1,,,,,,,,,0,7,7,7,0,7,7,7,,,,,,,,,,,,,,,,,,,,,,,,,,,,,,,,,,,,,,,,,,,,,,,,,,,,,,,660.2235947170011,None,660.2235947170011,None,660.2235947170011,None,m,1,3.6996702480028034,661.7569144720001,None,661.7569144720001,None,661.7569144720001,None,665.5067504720028,None,665.5067504720028,None,665.5067504720028,None,665.5067504720028,None,,,,,,,,,,,,,,,,,,,,,,,,,,,,,,,,,,,,,,,,,,,,001,156,2020_Feb_20_1354,spring_faces,3.2.3,59.99433869440042,
condition files/Stage1_1.xlsx,,T2,B2,m,"['c', 'm']","['Clue', 'Monopoly']","[-0.15, 0.5]","[0.15, 0.5]",1,1,,,,,,,,,0,8,8,8,0,0,0,3,,,,,,,,,,,,,,,,,,,,,,,,,,,,,,,,,,,,,,,,,,,,,,,,,,,,,,,667.5069355060004,None,667.5069355060004,None,667.5069355060004,None,m,1,0.9284533559984993,669.0402496130009,None,669.0402496130009,None,669.0402496130009,None,670.0402465690022,None,670.0402465690022,None,670.0402465690022,None,670.0402465690022,None,,,,,,,,,,,,,,,,,,,,,,,,,,,,,,,,,,,,,,,,,,,,001,156,2020_Feb_20_1354,spring_faces,3.2.3,59.99433869440042,
condition files/Stage1_1.xlsx,,T3,B4,c,"['c', 'm']","['Clue', 'Monopoly']","[-0.15, 0.5]","[0.15, 0.5]",1,1,,,,,,,,,0,8,8,8,0,1,1,5,,,,,,,,,,,,,,,,,,,,,,,,,,,,,,,,,,,,,,,,,,,,,,,,,,,,,,,672.006932706001,None,672.006932706001,None,672.006932706001,None,c,1,1.5805956969998078,673.5401741550013,None,673.5401741550013,None,673.5401741550013,None,675.1902268119993,None,675.1902268119993,None,675.1902268119993,None,675.1902268119993,None,,,,,,,,,,,,,,,,,,,,,,,,,,,,,,,,,,,,,,,,,,,,001,156,2020_Feb_20_1354,spring_faces,3.2.3,59.99433869440042,
condition files/Stage1_1.xlsx,,B3,T3,c,"['c', 'm']","['Clue', 'Monopoly']","[-0.15, 0.5]","[0.15, 0.5]",1,1,,,,,,,,,0,8,8,8,0,2,2,4,,,,,,,,,,,,,,,,,,,,,,,,,,,,,,,,,,,,,,,,,,,,,,,,,,,,,,,677.1569452809999,None,677.1569452809999,None,677.1569452809999,None,c,1,0.8305407570005627,678.6902075120015,None,678.6902075120015,None,678.6902075120015,None,679.5735521240022,None,679.5735521240022,None,679.5735521240022,None,679.5735521240022,None,,,,,,,,,,,,,,,,,,,,,,,,,,,,,,,,,,,,,,,,,,,,001,156,2020_Feb_20_1354,spring_faces,3.2.3,59.99433869440042,
condition files/Stage1_1.xlsx,,T1,B1,c,"['c', 'm']","['Clue', 'Monopoly']","[-0.15, 0.5]","[0.15, 0.5]",1,1,,,,,,,,,0,8,8,8,0,3,3,0,,,,,,,,,,,,,,,,,,,,,,,,,,,,,,,,,,,,,,,,,,,,,,,,,,,,,,,681.5569378750006,None,681.5569378750006,None,681.5569378750006,None,c,1,0.9265417210008309,683.090173640001,None,683.090173640001,None,683.090173640001,None,684.0736138899993,None,684.0736138899993,None,684.0736138899993,None,684.0736138899993,None,,,,,,,,,,,,,,,,,,,,,,,,,,,,,,,,,,,,,,,,,,,,001,156,2020_Feb_20_1354,spring_faces,3.2.3,59.99433869440042,
condition files/Stage1_1.xlsx,,B1,T2,c,"['c', 'm']","['Clue', 'Monopoly']","[-0.15, 0.5]","[0.15, 0.5]",1,1,,,,,,,,,0,8,8,8,0,4,4,1,,,,,,,,,,,,,,,,,,,,,,,,,,,,,,,,,,,,,,,,,,,,,,,,,,,,,,,686.0569086079995,None,686.0569086079995,None,686.0569086079995,None,m,0,0.8584522050005035,687.5902269149992,None,687.5902269149992,None,687.5902269149992,None,688.5069425090005,None,688.5069425090005,None,688.5069425090005,None,688.5069425090005,None,,,,,,,,,,,,,,,,,,,,,,,,,,,,,,,,,,,,,,,,,,,,001,156,2020_Feb_20_1354,spring_faces,3.2.3,59.99433869440042,
condition files/Stage1_1.xlsx,,B4,T4,m,"['c', 'm']","['Clue', 'Monopoly']","[-0.15, 0.5]","[0.15, 0.5]",1,1,,,,,,,,,0,8,8,8,0,5,5,7,,,,,,,,,,,,,,,,,,,,,,,,,,,,,,,,,,,,,,,,,,,,,,,,,,,,,,,690.490241710002,None,690.490241710002,None,690.490241710002,None,m,1,1.5131473049987108,692.0235722530015,None,692.0235722530015,None,692.0235722530015,None,693.606899421,None,693.606899421,None,693.606899421,None,693.606899421,None,,,,,,,,,,,,,,,,,,,,,,,,,,,,,,,,,,,,,,,,,,,,001,156,2020_Feb_20_1354,spring_faces,3.2.3,59.99433869440042,
condition files/Stage1_1.xlsx,,B2,T1,m,"['c', 'm']","['Clue', 'Monopoly']","[-0.15, 0.5]","[0.15, 0.5]",1,1,,,,,,,,,0,8,8,8,0,6,6,2,,,,,,,,,,,,,,,,,,,,,,,,,,,,,,,,,,,,,,,,,,,,,,,,,,,,,,,695.5735591910016,None,695.5735591910016,None,695.5735591910016,None,m,1,0.9098727359996701,697.106843652,None,697.106843652,None,697.106843652,None,698.0734453969999,None,698.0734453969999,None,698.0734453969999,None,698.0734453969999,None,,,,,,,,,,,,,,,,,,,,,,,,,,,,,,,,,,,,,,,,,,,,001,156,2020_Feb_20_1354,spring_faces,3.2.3,59.99433869440042,
condition files/Stage1_1.xlsx,,T4,B3,m,"['c', 'm']","['Clue', 'Monopoly']","[-0.15, 0.5]","[0.15, 0.5]",1,1,,,,,,,,,0,8,8,8,0,7,7,6,,,,,,,,,,,,,,,,,,,,,,,,,,,,,,,,,,,,,,,,,,,,,,,,,,,,,,,700.0569299090021,None,700.0569299090021,None,700.0569299090021,None,c,0,1.7543985000011162,701.5902577939996,None,701.5902577939996,None,701.5902577939996,None,703.4068966199993,None,703.4068966199993,None,703.4068966199993,None,703.4068966199993,None,,,,,,,,,,,,,,,,,,,,,,,,,,,,,,,,,,,,,,,,,,,,001,156,2020_Feb_20_1354,spring_faces,3.2.3,59.99433869440042,
condition files/Stage1_2.xlsx,,B1,T1,c,"['c', 'm']","['Clue', 'Monopoly']","[-0.15, 0.5]","[0.15, 0.5]",1,1,,,,,,,,,0,9,9,9,0,0,0,0,,,,,,,,,,,,,,,,,,,,,,,,,,,,,,,,,,,,,,,,,,,,,,,,,,,,,,,705.4069169590002,None,705.4069169590002,None,705.4069169590002,None,c,1,1.028445661002479,706.9402583110023,None,706.9402583110023,None,706.9402583110023,None,708.04023934,None,708.04023934,None,708.04023934,None,708.04023934,None,,,,,,,,,,,,,,,,,,,,,,,,,,,,,,,,,,,,,,,,,,,,001,156,2020_Feb_20_1354,spring_faces,3.2.3,59.99433869440042,
condition files/Stage1_2.xlsx,,B2,T2,m,"['c', 'm']","['Clue', 'Monopoly']","[-0.15, 0.5]","[0.15, 0.5]",1,1,,,,,,,,,0,9,9,9,0,1,1,3,,,,,,,,,,,,,,,,,,,,,,,,,,,,,,,,,,,,,,,,,,,,,,,,,,,,,,,710.0068986200022,None,710.0068986200022,None,710.0068986200022,None,m,1,0.684445817998494,711.5401728950019,None,711.5401728950019,None,711.5401728950019,None,712.306929937,None,712.306929937,None,712.306929937,None,712.306929937,None,,,,,,,,,,,,,,,,,,,,,,,,,,,,,,,,,,,,,,,,,,,,001,156,2020_Feb_20_1354,spring_faces,3.2.3,59.99433869440042,
condition files/Stage1_2.xlsx,,B4,T3,c,"['c', 'm']","['Clue', 'Monopoly']","[-0.15, 0.5]","[0.15, 0.5]",1,1,,,,,,,,,0,9,9,9,0,2,2,5,,,,,,,,,,,,,,,,,,,,,,,,,,,,,,,,,,,,,,,,,,,,,,,,,,,,,,,714.2734975780004,None,714.2734975780004,None,714.2734975780004,None,c,1,1.2016645319999952,715.8069178030019,None,715.8069178030019,None,715.8069178030019,None,717.0902051330013,None,717.0902051330013,None,717.0902051330013,None,717.0902051330013,None,,,,,,,,,,,,,,,,,,,,,,,,,,,,,,,,,,,,,,,,,,,,001,156,2020_Feb_20_1354,spring_faces,3.2.3,59.99433869440042,
condition files/Stage1_2.xlsx,,T2,B1,c,"['c', 'm']","['Clue', 'Monopoly']","[-0.15, 0.5]","[0.15, 0.5]",1,1,,,,,,,,,0,9,9,9,0,3,3,1,,,,,,,,,,,,,,,,,,,,,,,,,,,,,,,,,,,,,,,,,,,,,,,,,,,,,,,719.0569302240001,None,719.0569302240001,None,719.0569302240001,None,c,1,2.498398855997948,720.5902667980008,None,720.5902667980008,None,720.5902667980008,None,723.1402035030005,None,723.1402035030005,None,723.1402035030005,None,723.1402035030005,None,,,,,,,,,,,,,,,,,,,,,,,,,,,,,,,,,,,,,,,,,,,,001,156,2020_Feb_20_1354,spring_faces,3.2.3,59.99433869440042,
condition files/Stage1_2.xlsx,,T1,B2,m,"['c', 'm']","['Clue', 'Monopoly']","[-0.15, 0.5]","[0.15, 0.5]",1,1,,,,,,,,,0,9,9,9,0,4,4,2,,,,,,,,,,,,,,,,,,,,,,,,,,,,,,,,,,,,,,,,,,,,,,,,,,,,,,,725.1235157250012,None,725.1235157250012,None,725.1235157250012,None,m,1,1.5197070729991538,726.6569699840002,None,726.6569699840002,None,726.6569699840002,None,728.2569093070015,None,728.2569093070015,None,728.2569093070015,None,728.2569093070015,None,,,,,,,,,,,,,,,,,,,,,,,,,,,,,,,,,,,,,,,,,,,,001,156,2020_Feb_20_1354,spring_faces,3.2.3,59.99433869440042,
condition files/Stage1_2.xlsx,,B3,T4,m,"['c', 'm']","['Clue', 'Monopoly']","[-0.15, 0.5]","[0.15, 0.5]",1,1,,,,,,,,,0,9,9,9,0,5,5,6,,,,,,,,,,,,,,,,,,,,,,,,,,,,,,,,,,,,,,,,,,,,,,,,,,,,,,,730.2235949330025,None,730.2235949330025,None,730.2235949330025,None,c,0,1.0277517030008312,731.7569145800007,None,731.7569145800007,None,731.7569145800007,None,732.8569241730002,None,732.8569241730002,None,732.8569241730002,None,732.8569241730002,None,,,,,,,,,,,,,,,,,,,,,,,,,,,,,,,,,,,,,,,,,,,,001,156,2020_Feb_20_1354,spring_faces,3.2.3,59.99433869440042,
condition files/Stage1_2.xlsx,,T4,B4,m,"['c', 'm']","['Clue', 'Monopoly']","[-0.15, 0.5]","[0.15, 0.5]",1,1,,,,,,,,,0,9,9,9,0,6,6,7,,,,,,,,,,,,,,,,,,,,,,,,,,,,,,,,,,,,,,,,,,,,,,,,,,,,,,,734.823616998001,None,734.823616998001,None,734.823616998001,None,m,1,1.7557333180011483,736.3569252699999,None,736.3569252699999,None,736.3569252699999,None,738.173547655002,None,738.173547655002,None,738.173547655002,None,738.173547655002,None,,,,,,,,,,,,,,,,,,,,,,,,,,,,,,,,,,,,,,,,,,,,001,156,2020_Feb_20_1354,spring_faces,3.2.3,59.99433869440042,
condition files/Stage1_2.xlsx,,T3,B3,c,"['c', 'm']","['Clue', 'Monopoly']","[-0.15, 0.5]","[0.15, 0.5]",1,1,,,,,,,,,0,9,9,9,0,7,7,4,,,,,,,,,,,,,,,,,,,,,,,,,,,,,,,,,,,,,,,,,,,,,,,,,,,,,,,740.1569281440024,None,740.1569281440024,None,740.1569281440024,None,c,1,0.726424352000322,741.6902566930003,None,741.6902566930003,None,741.6902566930003,None,742.4902412800002,None,742.4902412800002,None,742.4902412800002,None,742.4902412800002,None,,,,,,,,,,,,,,,,,,,,,,,,,,,,,,,,,,,,,,,,,,,,001,156,2020_Feb_20_1354,spring_faces,3.2.3,59.99433869440042,
condition files/Stage1_1.xlsx,,B2,T1,m,"['c', 'm']","['Clue', 'Monopoly']","[-0.15, 0.5]","[0.15, 0.5]",1,1,,,,,,,,,0,10,10,10,0,0,0,2,,,,,,,,,,,,,,,,,,,,,,,,,,,,,,,,,,,,,,,,,,,,,,,,,,,,,,,744.4735634429999,None,744.4735634429999,None,744.4735634429999,None,m,1,1.1457061340006476,746.0069022019998,None,746.0069022019998,None,746.0069022019998,None,747.2235885800001,None,747.2235885800001,None,747.2235885800001,None,747.2235885800001,None,,,,,,,,,,,,,,,,,,,,,,,,,,,,,,,,,,,,,,,,,,,,001,156,2020_Feb_20_1354,spring_faces,3.2.3,59.99433869440042,
condition files/Stage1_1.xlsx,,B4,T4,m,"['c', 'm']","['Clue', 'Monopoly']","[-0.15, 0.5]","[0.15, 0.5]",1,1,,,,,,,,,0,10,10,10,0,1,1,7,,,,,,,,,,,,,,,,,,,,,,,,,,,,,,,,,,,,,,,,,,,,,,,,,,,,,,,749.1902660710002,None,749.1902660710002,None,749.1902660710002,None,m,1,2.5572088039989467,750.7234990319994,None,750.7234990319994,None,750.7234990319994,None,753.3402651510005,None,753.3402651510005,None,753.3402651510005,None,753.3402651510005,None,,,,,,,,,,,,,,,,,,,,,,,,,,,,,,,,,,,,,,,,,,,,001,156,2020_Feb_20_1354,spring_faces,3.2.3,59.99433869440042,
condition files/Stage1_1.xlsx,,B1,T2,c,"['c', 'm']","['Clue', 'Monopoly']","[-0.15, 0.5]","[0.15, 0.5]",1,1,,,,,,,,,0,10,10,10,0,2,2,1,,,,,,,,,,,,,,,,,,,,,,,,,,,,,,,,,,,,,,,,,,,,,,,,,,,,,,,755.3235732710018,None,755.3235732710018,None,755.3235732710018,None,c,1,1.4638421829986328,756.8568996530012,None,756.8568996530012,None,756.8568996530012,None,758.3902503400022,None,758.3902503400022,None,758.3902503400022,None,758.3902503400022,None,,,,,,,,,,,,,,,,,,,,,,,,,,,,,,,,,,,,,,,,,,,,001,156,2020_Feb_20_1354,spring_faces,3.2.3,59.99433869440042,
condition files/Stage1_1.xlsx,,B3,T3,c,"['c', 'm']","['Clue', 'Monopoly']","[-0.15, 0.5]","[0.15, 0.5]",1,1,,,,,,,,,0,10,10,10,0,3,3,4,,,,,,,,,,,,,,,,,,,,,,,,,,,,,,,,,,,,,,,,,,,,,,,,,,,,,,,760.3569332949992,None,760.3569332949992,None,760.3569332949992,None,c,1,0.8305573499965249,761.8902145020002,None,761.8902145020002,None,761.8902145020002,None,762.7902291560022,None,762.7902291560022,None,762.7902291560022,None,762.7902291560022,None,,,,,,,,,,,,,,,,,,,,,,,,,,,,,,,,,,,,,,,,,,,,001,156,2020_Feb_20_1354,spring_faces,3.2.3,59.99433869440042,
condition files/Stage1_1.xlsx,,T2,B2,m,"['c', 'm']","['Clue', 'Monopoly']","[-0.15, 0.5]","[0.15, 0.5]",1,1,,,,,,,,,0,10,10,10,0,4,4,3,,,,,,,,,,,,,,,,,,,,,,,,,,,,,,,,,,,,,,,,,,,,,,,,,,,,,,,764.7569193529998,None,764.7569193529998,None,764.7569193529998,None,m,1,1.966594907000399,766.2901805559995,None,766.2901805559995,None,766.2901805559995,None,768.3235184940022,None,768.3235184940022,None,768.3235184940022,None,768.3235184940022,None,,,,,,,,,,,,,,,,,,,,,,,,,,,,,,,,,,,,,,,,,,,,001,156,2020_Feb_20_1354,spring_faces,3.2.3,59.99433869440042,
condition files/Stage1_1.xlsx,,T1,B1,c,"['c', 'm']","['Clue', 'Monopoly']","[-0.15, 0.5]","[0.15, 0.5]",1,1,,,,,,,,,0,10,10,10,0,5,5,0,,,,,,,,,,,,,,,,,,,,,,,,,,,,,,,,,,,,,,,,,,,,,,,,,,,,,,,770.2901837570025,None,770.2901837570025,None,770.2901837570025,None,c,1,1.2331658069997502,771.8235909110008,None,771.8235909110008,None,771.8235909110008,None,773.1235089580005,None,773.1235089580005,None,773.1235089580005,None,773.1235089580005,None,,,,,,,,,,,,,,,,,,,,,,,,,,,,,,,,,,,,,,,,,,,,001,156,2020_Feb_20_1354,spring_faces,3.2.3,59.99433869440042,
condition files/Stage1_1.xlsx,,T3,B4,c,"['c', 'm']","['Clue', 'Monopoly']","[-0.15, 0.5]","[0.15, 0.5]",1,1,,,,,,,,,0,10,10,10,0,6,6,5,,,,,,,,,,,,,,,,,,,,,,,,,,,,,,,,,,,,,,,,,,,,,,,,,,,,,,,775.0901634239999,None,775.0901634239999,None,775.0901634239999,None,c,1,2.3690600430018094,776.6235717140007,None,776.6235717140007,None,776.6235717140007,None,779.0735622960019,None,779.0735622960019,None,779.0735622960019,None,779.0735622960019,None,,,,,,,,,,,,,,,,,,,,,,,,,,,,,,,,,,,,,,,,,,,,001,156,2020_Feb_20_1354,spring_faces,3.2.3,59.99433869440042,
condition files/Stage1_1.xlsx,,T4,B3,m,"['c', 'm']","['Clue', 'Monopoly']","[-0.15, 0.5]","[0.15, 0.5]",1,1,,,,,,,,,0,10,10,10,0,7,7,6,,,,,,,,,,,,,,,,,,,,,,,,,,,,,,,,,,,,,,,,,,,,,,,,,,,,,,,781.0401245819994,None,781.0401245819994,None,781.0401245819994,None,m,1,3.331159330002265,782.5735805450022,None,782.5735805450022,None,782.5735805450022,None,785.9735836530017,None,785.9735836530017,None,785.9735836530017,None,785.9735836530017,None,,,,,,,,,,,,,,,,,,,,,,,,,,,,,,,,,,,,,,,,,,,,001,156,2020_Feb_20_1354,spring_faces,3.2.3,59.99433869440042,
condition files/Stage1_2.xlsx,,B4,T3,c,"['c', 'm']","['Clue', 'Monopoly']","[-0.15, 0.5]","[0.15, 0.5]",1,1,,,,,,,,,0,11,11,11,0,0,0,5,,,,,,,,,,,,,,,,,,,,,,,,,,,,,,,,,,,,,,,,,,,,,,,,,,,,,,,787.9569188090027,None,787.9569188090027,None,787.9569188090027,None,c,1,0.8143949810000777,789.4902528910025,None,789.4902528910025,None,789.4902528910025,None,790.3735758430012,None,790.3735758430012,None,790.3735758430012,None,790.3735758430012,None,,,,,,,,,,,,,,,,,,,,,,,,,,,,,,,,,,,,,,,,,,,,001,156,2020_Feb_20_1354,spring_faces,3.2.3,59.99433869440042,
condition files/Stage1_2.xlsx,,T4,B4,m,"['c', 'm']","['Clue', 'Monopoly']","[-0.15, 0.5]","[0.15, 0.5]",1,1,,,,,,,,,0,11,11,11,0,1,1,7,,,,,,,,,,,,,,,,,,,,,,,,,,,,,,,,,,,,,,,,,,,,,,,,,,,,,,,792.3401590840003,None,792.3401590840003,None,792.3401590840003,None,c,0,5.199251964000723,793.873530891,None,793.873530891,None,793.873530891,None,799.140184701002,None,799.140184701002,None,799.140184701002,None,799.140184701002,None,,,,,,,,,,,,,,,,,,,,,,,,,,,,,,,,,,,,,,,,,,,,001,156,2020_Feb_20_1354,spring_faces,3.2.3,59.99433869440042,
condition files/Stage1_2.xlsx,,B2,T2,m,"['c', 'm']","['Clue', 'Monopoly']","[-0.15, 0.5]","[0.15, 0.5]",1,1,,,,,,,,,0,11,11,11,0,2,2,3,,,,,,,,,,,,,,,,,,,,,,,,,,,,,,,,,,,,,,,,,,,,,,,,,,,,,,,801.1068109629996,None,801.1068109629996,None,801.1068109629996,None,m,1,1.0404307120006706,802.6402387779999,None,802.6402387779999,None,802.6402387779999,None,803.7568963640006,None,803.7568963640006,None,803.7568963640006,None,803.7568963640006,None,,,,,,,,,,,,,,,,,,,,,,,,,,,,,,,,,,,,,,,,,,,,001,156,2020_Feb_20_1354,spring_faces,3.2.3,59.99433869440042,
condition files/Stage1_2.xlsx,,T2,B1,c,"['c', 'm']","['Clue', 'Monopoly']","[-0.15, 0.5]","[0.15, 0.5]",1,1,,,,,,,,,0,11,11,11,0,3,3,1,,,,,,,,,,,,,,,,,,,,,,,,,,,,,,,,,,,,,,,,,,,,,,,,,,,,,,,805.7235730860011,None,805.7235730860011,None,805.7235730860011,None,c,1,1.351688232000015,807.2568999899995,None,807.2568999899995,None,807.2568999899995,None,808.6902914150014,None,808.6902914150014,None,808.6902914150014,None,808.6902914150014,None,,,,,,,,,,,,,,,,,,,,,,,,,,,,,,,,,,,,,,,,,,,,001,156,2020_Feb_20_1354,spring_faces,3.2.3,59.99433869440042,
condition files/Stage1_2.xlsx,,B3,T4,m,"['c', 'm']","['Clue', 'Monopoly']","[-0.15, 0.5]","[0.15, 0.5]",1,1,,,,,,,,,0,11,11,11,0,4,4,6,,,,,,,,,,,,,,,,,,,,,,,,,,,,,,,,,,,,,,,,,,,,,,,,,,,,,,,810.6569142869994,None,810.6569142869994,None,810.6569142869994,None,m,1,1.090400260000024,812.1902676339996,None,812.1902676339996,None,812.1902676339996,None,813.3569015339999,None,813.3569015339999,None,813.3569015339999,None,813.3569015339999,None,,,,,,,,,,,,,,,,,,,,,,,,,,,,,,,,,,,,,,,,,,,,001,156,2020_Feb_20_1354,spring_faces,3.2.3,59.99433869440042,
condition files/Stage1_2.xlsx,,T3,B3,c,"['c', 'm']","['Clue', 'Monopoly']","[-0.15, 0.5]","[0.15, 0.5]",1,1,,,,,,,,,0,11,11,11,0,5,5,4,,,,,,,,,,,,,,,,,,,,,,,,,,,,,,,,,,,,,,,,,,,,,,,,,,,,,,,815.3235829520017,None,815.3235829520017,None,815.3235829520017,None,c,1,0.7757811440023943,816.8569036590015,None,816.8569036590015,None,816.8569036590015,None,817.7069077510023,None,817.7069077510023,None,817.7069077510023,None,817.7069077510023,None,,,,,,,,,,,,,,,,,,,,,,,,,,,,,,,,,,,,,,,,,,,,001,156,2020_Feb_20_1354,spring_faces,3.2.3,59.99433869440042,
condition files/Stage1_2.xlsx,,T1,B2,m,"['c', 'm']","['Clue', 'Monopoly']","[-0.15, 0.5]","[0.15, 0.5]",1,1,,,,,,,,,0,11,11,11,0,6,6,2,,,,,,,,,,,,,,,,,,,,,,,,,,,,,,,,,,,,,,,,,,,,,,,,,,,,,,,819.6735642509993,None,819.6735642509993,None,819.6735642509993,None,m,1,2.1057523639974534,821.2069049090023,None,821.2069049090023,None,821.2069049090023,None,823.3902300459995,None,823.3902300459995,None,823.3902300459995,None,823.3902300459995,None,,,,,,,,,,,,,,,,,,,,,,,,,,,,,,,,,,,,,,,,,,,,001,156,2020_Feb_20_1354,spring_faces,3.2.3,59.99433869440042,
condition files/Stage1_2.xlsx,,B1,T1,c,"['c', 'm']","['Clue', 'Monopoly']","[-0.15, 0.5]","[0.15, 0.5]",1,1,,,,,,,,,0,11,11,11,0,7,7,0,,,,,,,,,,,,,,,,,,,,,,,,,,,,,,,,,,,,,,,,,,,,,,,,,,,,,,,825.3568965920022,None,825.3568965920022,None,825.3568965920022,None,c,1,1.750372006001271,826.8902341520006,None,826.8902341520006,None,826.8902341520006,None,828.7235335990008,None,828.7235335990008,None,828.7235335990008,None,828.7235335990008,None,,,,,,,,,,,,,,,,,,,,,,,,,,,,,,,,,,,,,,,,,,,,001,156,2020_Feb_20_1354,spring_faces,3.2.3,59.99433869440042,
,,,,,,,,,,,,,,,,,,,,,,,,,,,,,,,,,,,,,,,,,,,,,,,,,,,,,,,,,,,,,,,,,,,,,,,,,,,,,,,,,,,,,,,,,,,,,,,,,,,,,,,,,,,,,,,,830.6901987000019,None,space,13.95914249999987,835.6735653079995,None,,,,,,,,,,,,,,,,,,,,,,,,,,,,,,001,156,2020_Feb_20_1354,spring_faces,3.2.3,59.99433869440042,
condition files/Stage2_1.xlsx,,B4,T4,r,"['s', 'r']","['Stratego', 'Risk']","[-0.15, 0.5]","[0.15, 0.5]",1,1,,,,,,,,,,,,,,,,,0,0,0,0,0,0,0,5,,,,,,,,,,,,,,,,,,,,,,,,,,,,,,,,,,,,,,,,,,,,,,,849.6902536849993,None,849.6902536849993,None,849.6902536849993,None,s,0,1.849868974997662,851.2069010369996,None,851.2069010369996,None,851.2069010369996,None,853.1235192599997,None,853.1235192599997,None,853.1235192599997,None,853.1235192599997,None,,,,,,,,,,,,,,,835.6735653079995,None,,,,,,,,,,,,,,,,,,,,,,,,,,,,001,156,2020_Feb_20_1354,spring_faces,3.2.3,59.99433869440042,
condition files/Stage2_1.xlsx,,B6,T6,r,"['s', 'r']","['Stratego', 'Risk']","[-0.15, 0.5]","[0.15, 0.5]",1,1,,,,,,,,,,,,,,,,,0,0,0,0,0,1,1,1,,,,,,,,,,,,,,,,,,,,,,,,,,,,,,,,,,,,,,,,,,,,,,,855.0901625780025,None,855.0901625780025,None,855.0901625780025,None,s,0,1.3290059479986667,856.6235794250024,None,856.6235794250024,None,856.6235794250024,None,858.0064903269995,None,858.0064903269995,None,858.0064903269995,None,858.0064903269995,None,,,,,,,,,,,,,,,,,,,,,,,,,,,,,,,,,,,,,,,,,,,,001,156,2020_Feb_20_1354,spring_faces,3.2.3,59.99433869440042,
condition files/Stage2_1.xlsx,,T1,B1,s,"['s', 'r']","['Stratego', 'Risk']","[-0.15, 0.5]","[0.15, 0.5]",1,1,,,,,,,,,,,,,,,,,0,0,0,0,0,2,2,2,,,,,,,,,,,,,,,,,,,,,,,,,,,,,,,,,,,,,,,,,,,,,,,859.9902478710028,None,859.9902478710028,None,859.9902478710028,None,s,1,1.341149971998675,861.5235518750014,None,861.5235518750014,None,861.5235518750014,None,862.9402351909994,None,862.9402351909994,None,862.9402351909994,None,862.9402351909994,None,,,,,,,,,,,,,,,,,,,,,,,,,,,,,,,,,,,,,,,,,,,,001,156,2020_Feb_20_1354,spring_faces,3.2.3,59.99433869440042,
condition files/Stage2_1.xlsx,,T5,B5,s,"['s', 'r']","['Stratego', 'Risk']","[-0.15, 0.5]","[0.15, 0.5]",1,1,,,,,,,,,,,,,,,,,0,0,0,0,0,3,3,0,,,,,,,,,,,,,,,,,,,,,,,,,,,,,,,,,,,,,,,,,,,,,,,864.9069251559995,None,864.9069251559995,None,864.9069251559995,None,r,0,1.3044189259999257,866.4402372860022,None,866.4402372860022,None,866.4402372860022,None,867.8235649369999,None,867.8235649369999,None,867.8235649369999,None,867.8235649369999,None,,,,,,,,,,,,,,,,,,,,,,,,,,,,,,,,,,,,,,,,,,,,001,156,2020_Feb_20_1354,spring_faces,3.2.3,59.99433869440042,
condition files/Stage2_1.xlsx,,T3,B3,s,"['s', 'r']","['Stratego', 'Risk']","[-0.15, 0.5]","[0.15, 0.5]",1,1,,,,,,,,,,,,,,,,,0,0,0,0,0,4,4,4,,,,,,,,,,,,,,,,,,,,,,,,,,,,,,,,,,,,,,,,,,,,,,,869.806899995001,None,869.806899995001,None,869.806899995001,None,r,0,0.8683550679998007,871.3402548279992,None,871.3402548279992,None,871.3402548279992,None,872.2735035789992,None,872.2735035789992,None,872.2735035789992,None,872.2735035789992,None,,,,,,,,,,,,,,,,,,,,,,,,,,,,,,,,,,,,,,,,,,,,001,156,2020_Feb_20_1354,spring_faces,3.2.3,59.99433869440042,
condition files/Stage2_1.xlsx,,B2,T2,r,"['s', 'r']","['Stratego', 'Risk']","[-0.15, 0.5]","[0.15, 0.5]",1,1,,,,,,,,,,,,,,,,,0,0,0,0,0,5,5,3,,,,,,,,,,,,,,,,,,,,,,,,,,,,,,,,,,,,,,,,,,,,,,,874.2569786720014,None,874.2569786720014,None,874.2569786720014,None,s,0,1.2023791230021743,875.7902535409994,None,875.7902535409994,None,875.7902535409994,None,877.0735913030003,None,877.0735913030003,None,877.0735913030003,None,877.0735913030003,None,,,,,,,,,,,,,,,,,,,,,,,,,,,,,,,,,,,,,,,,,,,,001,156,2020_Feb_20_1354,spring_faces,3.2.3,59.99433869440042,
condition files/Stage2_2.xlsx,,B5,T5,s,"['s', 'r']","['Stratego', 'Risk']","[-0.15, 0.5]","[0.15, 0.5]",1,1,,,,,,,,,,,,,,,,,0,1,1,1,0,0,0,0,,,,,,,,,,,,,,,,,,,,,,,,,,,,,,,,,,,,,,,,,,,,,,,879.0569097280022,None,879.0569097280022,None,879.0569097280022,None,r,0,1.4904287040008057,880.5902546780017,None,880.5902546780017,None,880.5902546780017,None,882.1569126780014,None,882.1569126780014,None,882.1569126780014,None,882.1569126780014,None,,,,,,,,,,,,,,,,,,,,,,,,,,,,,,,,,,,,,,,,,,,,001,156,2020_Feb_20_1354,spring_faces,3.2.3,59.99433869440042,
condition files/Stage2_2.xlsx,,T2,B2,r,"['s', 'r']","['Stratego', 'Risk']","[-0.15, 0.5]","[0.15, 0.5]",1,1,,,,,,,,,,,,,,,,,0,1,1,1,0,1,1,3,,,,,,,,,,,,,,,,,,,,,,,,,,,,,,,,,,,,,,,,,,,,,,,884.1235654459997,None,884.1235654459997,None,884.1235654459997,None,s,0,0.6158799299992097,885.6568908059999,None,885.6568908059999,None,885.6568908059999,None,886.3401790700009,None,886.3401790700009,None,886.3401790700009,None,886.3401790700009,None,,,,,,,,,,,,,,,,,,,,,,,,,,,,,,,,,,,,,,,,,,,,001,156,2020_Feb_20_1354,spring_faces,3.2.3,59.99433869440042,
condition files/Stage2_2.xlsx,,T6,B6,r,"['s', 'r']","['Stratego', 'Risk']","[-0.15, 0.5]","[0.15, 0.5]",1,1,,,,,,,,,,,,,,,,,0,1,1,1,0,2,2,1,,,,,,,,,,,,,,,,,,,,,,,,,,,,,,,,,,,,,,,,,,,,,,,888.3068650140012,None,888.3068650140012,None,888.3068650140012,None,s,0,0.8324833829974523,889.8402529360028,None,889.8402529360028,None,889.8402529360028,None,890.7401818860017,None,890.7401818860017,None,890.7401818860017,None,890.7401818860017,None,,,,,,,,,,,,,,,,,,,,,,,,,,,,,,,,,,,,,,,,,,,,001,156,2020_Feb_20_1354,spring_faces,3.2.3,59.99433869440042,
condition files/Stage2_2.xlsx,,T4,B4,r,"['s', 'r']","['Stratego', 'Risk']","[-0.15, 0.5]","[0.15, 0.5]",1,1,,,,,,,,,,,,,,,,,0,1,1,1,0,3,3,5,,,,,,,,,,,,,,,,,,,,,,,,,,,,,,,,,,,,,,,,,,,,,,,892.706844065,None,892.706844065,None,892.706844065,None,r,1,0.8645896859998174,894.2401858820012,None,894.2401858820012,None,894.2401858820012,None,895.1569082370006,None,895.1569082370006,None,895.1569082370006,None,895.1569082370006,None,,,,,,,,,,,,,,,,,,,,,,,,,,,,,,,,,,,,,,,,,,,,001,156,2020_Feb_20_1354,spring_faces,3.2.3,59.99433869440042,
condition files/Stage2_2.xlsx,,B1,T1,s,"['s', 'r']","['Stratego', 'Risk']","[-0.15, 0.5]","[0.15, 0.5]",1,1,,,,,,,,,,,,,,,,,0,1,1,1,0,4,4,2,,,,,,,,,,,,,,,,,,,,,,,,,,,,,,,,,,,,,,,,,,,,,,,897.1401858259997,None,897.1401858259997,None,897.1401858259997,None,s,1,1.3110939349971886,898.6735940090002,None,898.6735940090002,None,898.6735940090002,None,900.0569287729995,None,900.0569287729995,None,900.0569287729995,None,900.0569287729995,None,,,,,,,,,,,,,,,,,,,,,,,,,,,,,,,,,,,,,,,,,,,,001,156,2020_Feb_20_1354,spring_faces,3.2.3,59.99433869440042,
condition files/Stage2_2.xlsx,,B3,T3,s,"['s', 'r']","['Stratego', 'Risk']","[-0.15, 0.5]","[0.15, 0.5]",1,1,,,,,,,,,,,,,,,,,0,1,1,1,0,5,5,4,,,,,,,,,,,,,,,,,,,,,,,,,,,,,,,,,,,,,,,,,,,,,,,902.0236087190024,None,902.0236087190024,None,902.0236087190024,None,r,0,1.2917560809983115,903.5569355789994,None,903.5569355789994,None,903.5569355789994,None,904.9235675490017,None,904.9235675490017,None,904.9235675490017,None,904.9235675490017,None,,,,,,,,,,,,,,,,,,,,,,,,,,,,,,,,,,,,,,,,,,,,001,156,2020_Feb_20_1354,spring_faces,3.2.3,59.99433869440042,
condition files/Stage2_1.xlsx,,B2,T2,r,"['s', 'r']","['Stratego', 'Risk']","[-0.15, 0.5]","[0.15, 0.5]",1,1,,,,,,,,,,,,,,,,,0,2,2,2,0,0,0,3,,,,,,,,,,,,,,,,,,,,,,,,,,,,,,,,,,,,,,,,,,,,,,,906.906880257,None,906.906880257,None,906.906880257,None,s,0,0.9683776519996172,908.4402389019997,None,908.4402389019997,None,908.4402389019997,None,909.4901109240018,None,909.4901109240018,None,909.4901109240018,None,909.4901109240018,None,,,,,,,,,,,,,,,,,,,,,,,,,,,,,,,,,,,,,,,,,,,,001,156,2020_Feb_20_1354,spring_faces,3.2.3,59.99433869440042,
condition files/Stage2_1.xlsx,,T3,B3,s,"['s', 'r']","['Stratego', 'Risk']","[-0.15, 0.5]","[0.15, 0.5]",1,1,,,,,,,,,,,,,,,,,0,2,2,2,0,1,1,4,,,,,,,,,,,,,,,,,,,,,,,,,,,,,,,,,,,,,,,,,,,,,,,911.4569215740012,None,911.4569215740012,None,911.4569215740012,None,r,0,2.194441455998458,912.9902477030009,None,912.9902477030009,None,912.9902477030009,None,915.2569343690011,None,915.2569343690011,None,915.2569343690011,None,915.2569343690011,None,,,,,,,,,,,,,,,,,,,,,,,,,,,,,,,,,,,,,,,,,,,,001,156,2020_Feb_20_1354,spring_faces,3.2.3,59.99433869440042,
condition files/Stage2_1.xlsx,,B4,T4,r,"['s', 'r']","['Stratego', 'Risk']","[-0.15, 0.5]","[0.15, 0.5]",1,1,,,,,,,,,,,,,,,,,0,2,2,2,0,2,2,5,,,,,,,,,,,,,,,,,,,,,,,,,,,,,,,,,,,,,,,,,,,,,,,917.2236276330004,None,917.2236276330004,None,917.2236276330004,None,s,0,0.42775199999960023,918.7569256499992,None,918.7569256499992,None,918.7569256499992,None,919.2569015629997,None,919.2569015629997,None,919.2569015629997,None,919.2569015629997,None,,,,,,,,,,,,,,,,,,,,,,,,,,,,,,,,,,,,,,,,,,,,001,156,2020_Feb_20_1354,spring_faces,3.2.3,59.99433869440042,
condition files/Stage2_1.xlsx,,T1,B1,s,"['s', 'r']","['Stratego', 'Risk']","[-0.15, 0.5]","[0.15, 0.5]",1,1,,,,,,,,,,,,,,,,,0,2,2,2,0,3,3,2,,,,,,,,,,,,,,,,,,,,,,,,,,,,,,,,,,,,,,,,,,,,,,,921.2235955819997,None,921.2235955819997,None,921.2235955819997,None,r,0,0.23572711499946308,922.7569125690025,None,922.7569125690025,None,922.7569125690025,None,923.0735210410021,None,923.0735210410021,None,923.0735210410021,None,923.0735210410021,None,,,,,,,,,,,,,,,,,,,,,,,,,,,,,,,,,,,,,,,,,,,,001,156,2020_Feb_20_1354,spring_faces,3.2.3,59.99433869440042,
condition files/Stage2_1.xlsx,,B6,T6,r,"['s', 'r']","['Stratego', 'Risk']","[-0.15, 0.5]","[0.15, 0.5]",1,1,,,,,,,,,,,,,,,,,0,2,2,2,0,4,4,1,,,,,,,,,,,,,,,,,,,,,,,,,,,,,,,,,,,,,,,,,,,,,,,925.0402295700005,None,925.0402295700005,None,925.0402295700005,None,r,1,0.22710970099797123,926.5735738389994,None,926.5735738389994,None,926.5735738389994,None,926.8735981470018,None,926.8735981470018,None,926.8735981470018,None,926.8735981470018,None,,,,,,,,,,,,,,,,,,,,,,,,,,,,,,,,,,,,,,,,,,,,001,156,2020_Feb_20_1354,spring_faces,3.2.3,59.99433869440042,
condition files/Stage2_1.xlsx,,T5,B5,s,"['s', 'r']","['Stratego', 'Risk']","[-0.15, 0.5]","[0.15, 0.5]",1,1,,,,,,,,,,,,,,,,,0,2,2,2,0,5,5,0,,,,,,,,,,,,,,,,,,,,,,,,,,,,,,,,,,,,,,,,,,,,,,,928.8402974150013,None,928.8402974150013,None,928.8402974150013,None,r,0,0.21904181799982325,930.3735926750014,None,930.3735926750014,None,930.3735926750014,None,930.6735674250012,None,930.6735674250012,None,930.6735674250012,None,930.6735674250012,None,,,,,,,,,,,,,,,,,,,,,,,,,,,,,,,,,,,,,,,,,,,,001,156,2020_Feb_20_1354,spring_faces,3.2.3,59.99433869440042,
condition files/Stage2_2.xlsx,,T2,B2,r,"['s', 'r']","['Stratego', 'Risk']","[-0.15, 0.5]","[0.15, 0.5]",1,1,,,,,,,,,,,,,,,,,0,3,3,3,0,0,0,3,,,,,,,,,,,,,,,,,,,,,,,,,,,,,,,,,,,,,,,,,,,,,,,932.6569792100017,None,932.6569792100017,None,932.6569792100017,None,r,1,0.4024099509988446,934.1902320860027,None,934.1902320860027,None,934.1902320860027,None,934.6735096379998,None,934.6735096379998,None,934.6735096379998,None,934.6735096379998,None,,,,,,,,,,,,,,,,,,,,,,,,,,,,,,,,,,,,,,,,,,,,001,156,2020_Feb_20_1354,spring_faces,3.2.3,59.99433869440042,
condition files/Stage2_2.xlsx,,B5,T5,s,"['s', 'r']","['Stratego', 'Risk']","[-0.15, 0.5]","[0.15, 0.5]",1,1,,,,,,,,,,,,,,,,,0,3,3,3,0,1,1,0,,,,,,,,,,,,,,,,,,,,,,,,,,,,,,,,,,,,,,,,,,,,,,,936.6402264900025,None,936.6402264900025,None,936.6402264900025,None,s,1,0.21111437600120553,938.1735721910009,None,938.1735721910009,None,938.1735721910009,None,938.4569030310013,None,938.4569030310013,None,938.4569030310013,None,938.4569030310013,None,,,,,,,,,,,,,,,,,,,,,,,,,,,,,,,,,,,,,,,,,,,,001,156,2020_Feb_20_1354,spring_faces,3.2.3,59.99433869440042,
condition files/Stage2_2.xlsx,,T4,B4,r,"['s', 'r']","['Stratego', 'Risk']","[-0.15, 0.5]","[0.15, 0.5]",1,1,,,,,,,,,,,,,,,,,0,3,3,3,0,2,2,5,,,,,,,,,,,,,,,,,,,,,,,,,,,,,,,,,,,,,,,,,,,,,,,940.4236033920024,None,940.4236033920024,None,940.4236033920024,None,s,0,0.3798139899990929,941.9569087950003,None,941.9569087950003,None,941.9569087950003,None,942.4069263679994,None,942.4069263679994,None,942.4069263679994,None,942.4069263679994,None,,,,,,,,,,,,,,,,,,,,,,,,,,,,,,,,,,,,,,,,,,,,001,156,2020_Feb_20_1354,spring_faces,3.2.3,59.99433869440042,
condition files/Stage2_2.xlsx,,B3,T3,s,"['s', 'r']","['Stratego', 'Risk']","[-0.15, 0.5]","[0.15, 0.5]",1,1,,,,,,,,,,,,,,,,,0,3,3,3,0,3,3,4,,,,,,,,,,,,,,,,,,,,,,,,,,,,,,,,,,,,,,,,,,,,,,,944.3736057160022,None,944.3736057160022,None,944.3736057160022,None,r,0,0.07784908900066512,945.9068634040013,None,945.9068634040013,None,945.9068634040013,None,946.0569044190015,None,946.0569044190015,None,946.0569044190015,None,946.0569044190015,None,,,,,,,,,,,,,,,,,,,,,,,,,,,,,,,,,,,,,,,,,,,,001,156,2020_Feb_20_1354,spring_faces,3.2.3,59.99433869440042,
condition files/Stage2_2.xlsx,,B1,T1,s,"['s', 'r']","['Stratego', 'Risk']","[-0.15, 0.5]","[0.15, 0.5]",1,1,,,,,,,,,,,,,,,,,0,3,3,3,0,4,4,2,,,,,,,,,,,,,,,,,,,,,,,,,,,,,,,,,,,,,,,,,,,,,,,948.0235901209999,None,948.0235901209999,None,948.0235901209999,None,s,1,0.1397262230020715,949.5569075300009,None,949.5569075300009,None,949.5569075300009,None,949.7734917960006,None,949.7734917960006,None,949.7734917960006,None,949.7734917960006,None,,,,,,,,,,,,,,,,,,,,,,,,,,,,,,,,,,,,,,,,,,,,001,156,2020_Feb_20_1354,spring_faces,3.2.3,59.99433869440042,
condition files/Stage2_2.xlsx,,T6,B6,r,"['s', 'r']","['Stratego', 'Risk']","[-0.15, 0.5]","[0.15, 0.5]",1,1,,,,,,,,,,,,,,,,,0,3,3,3,0,5,5,1,,,,,,,,,,,,,,,,,,,,,,,,,,,,,,,,,,,,,,,,,,,,,,,951.7402645130023,None,951.7402645130023,None,951.7402645130023,None,s,0,0.37508846600030665,953.2735849510027,None,953.2735849510027,None,953.2735849510027,None,953.7235687110006,None,953.7235687110006,None,953.7235687110006,None,953.7235687110006,None,,,,,,,,,,,,,,,,,,,,,,,,,,,,,,,,,,,,,,,,,,,,001,156,2020_Feb_20_1354,spring_faces,3.2.3,59.99433869440042,
condition files/Stage2_1.xlsx,,B2,T2,r,"['s', 'r']","['Stratego', 'Risk']","[-0.15, 0.5]","[0.15, 0.5]",1,1,,,,,,,,,,,,,,,,,0,4,4,4,0,0,0,3,,,,,,,,,,,,,,,,,,,,,,,,,,,,,,,,,,,,,,,,,,,,,,,955.7069068470009,None,955.7069068470009,None,955.7069068470009,None,r,1,1.1444508410022536,957.2402387610018,None,957.2402387610018,None,957.2402387610018,None,958.4569124260015,None,958.4569124260015,None,958.4569124260015,None,958.4569124260015,None,,,,,,,,,,,,,,,,,,,,,,,,,,,,,,,,,,,,,,,,,,,,001,156,2020_Feb_20_1354,spring_faces,3.2.3,59.99433869440042,
condition files/Stage2_1.xlsx,,T5,B5,s,"['s', 'r']","['Stratego', 'Risk']","[-0.15, 0.5]","[0.15, 0.5]",1,1,,,,,,,,,,,,,,,,,0,4,4,4,0,1,1,0,,,,,,,,,,,,,,,,,,,,,,,,,,,,,,,,,,,,,,,,,,,,,,,960.4235836059997,None,960.4235836059997,None,960.4235836059997,None,s,1,0.3798107100010384,961.9569047920013,None,961.9569047920013,None,961.9569047920013,None,962.406903299001,None,962.406903299001,None,962.406903299001,None,962.406903299001,None,,,,,,,,,,,,,,,,,,,,,,,,,,,,,,,,,,,,,,,,,,,,001,156,2020_Feb_20_1354,spring_faces,3.2.3,59.99433869440042,
condition files/Stage2_1.xlsx,,T1,B1,s,"['s', 'r']","['Stratego', 'Risk']","[-0.15, 0.5]","[0.15, 0.5]",1,1,,,,,,,,,,,,,,,,,0,4,4,4,0,2,2,2,,,,,,,,,,,,,,,,,,,,,,,,,,,,,,,,,,,,,,,,,,,,,,,964.373604020002,None,964.373604020002,None,964.373604020002,None,r,0,0.3016860239986272,965.9069050910002,None,965.9069050910002,None,965.9069050910002,None,966.2733751560008,None,966.2733751560008,None,966.2733751560008,None,966.2733751560008,None,,,,,,,,,,,,,,,,,,,,,,,,,,,,,,,,,,,,,,,,,,,,001,156,2020_Feb_20_1354,spring_faces,3.2.3,59.99433869440042,
condition files/Stage2_1.xlsx,,B4,T4,r,"['s', 'r']","['Stratego', 'Risk']","[-0.15, 0.5]","[0.15, 0.5]",1,1,,,,,,,,,,,,,,,,,0,4,4,4,0,3,3,5,,,,,,,,,,,,,,,,,,,,,,,,,,,,,,,,,,,,,,,,,,,,,,,968.2569342380011,None,968.2569342380011,None,968.2569342380011,None,s,0,0.6744227490016783,969.7902632820005,None,969.7902632820005,None,969.7902632820005,None,970.5402650200012,None,970.5402650200012,None,970.5402650200012,None,970.5402650200012,None,,,,,,,,,,,,,,,,,,,,,,,,,,,,,,,,,,,,,,,,,,,,001,156,2020_Feb_20_1354,spring_faces,3.2.3,59.99433869440042,
