condsFile,subStage,cue1,cue2,correct,responseKeys,responseNames,cue1Position,cue2Position,cue1Opacity,cue2Opacity,stageLoop0.thisRepN,stageLoop0.thisTrialN,stageLoop0.thisN,stageLoop0.thisIndex,blockLoop0.thisRepN,blockLoop0.thisTrialN,blockLoop0.thisN,blockLoop0.thisIndex,stage1Loop.thisRepN,stage1Loop.thisTrialN,stage1Loop.thisN,stage1Loop.thisIndex,blockLoop1.thisRepN,blockLoop1.thisTrialN,blockLoop1.thisN,blockLoop1.thisIndex,stage2Loop.thisRepN,stage2Loop.thisTrialN,stage2Loop.thisN,stage2Loop.thisIndex,blockLoop2.thisRepN,blockLoop2.thisTrialN,blockLoop2.thisN,blockLoop2.thisIndex,testLoop.thisRepN,testLoop.thisTrialN,testLoop.thisN,testLoop.thisIndex,blockLoopTest.thisRepN,blockLoopTest.thisTrialN,blockLoopTest.thisN,blockLoopTest.thisIndex,cuePics,id_instr_text.started,id_instr_text.stopped,space_to_continue_2.started,space_to_continue_2.stopped,end_instructions_resp_3.keys,end_instructions_resp_3.rt,end_instructions_resp_3.started,end_instructions_resp_3.stopped,id_input_instr.started,id_input_instr.stopped,id_input_rect.started,id_input_rect.stopped,id_input_resp.keys,id_input_resp.rt,id_input_resp.started,id_input_resp.stopped,sonaID,id_input_text.started,id_input_text.stopped,final_text.started,final_text.stopped,instructions.started,instructions.stopped,end_instructions_resp.keys,end_instructions_resp.rt,end_instructions_resp.started,end_instructions_resp.stopped,space_to_continue.started,space_to_continue.stopped,instructions_stage0.started,instructions_stage0.stopped,end_instructions_resp_stage0.keys,end_instructions_resp_stage0.rt,end_instructions_resp_stage0.started,end_instructions_resp_stage0.stopped,space_to_continue_stage0.started,space_to_continue_stage0.stopped,text.started,text.stopped,resp_text1.started,resp_text1.stopped,resp_text2.started,resp_text2.stopped,trial_resp.keys,trial_resp.corr,trial_resp.rt,trial_resp.started,trial_resp.stopped,cue1Image.started,cue1Image.stopped,cue2Image.started,cue2Image.stopped,cue1Image_fb.started,cue1Image_fb.stopped,cue2Image_fb.started,cue2Image_fb.stopped,fb_text_answer.started,fb_text_answer.stopped,feedback_image.started,feedback_image.stopped,instructions_stage1.started,instructions_stage1.stopped,end_instructions_resp_stage1.keys,end_instructions_resp_stage1.rt,end_instructions_resp_stage1.started,end_instructions_resp_stage1.stopped,space_to_continue_stage1.started,space_to_continue_stage1.stopped,instructions_2.started,instructions_2.stopped,end_instructions_resp_2.keys,end_instructions_resp_2.rt,end_instructions_resp_2.started,end_instructions_resp_2.stopped,press_space_to_continue_stage2.started,press_space_to_continue_stage2.stopped,instructions_testStage1.started,instructions_testStage1.stopped,end_instructions_resp_test1.keys,end_instructions_resp_test1.rt,end_instructions_resp_test1.started,end_instructions_resp_test1.stopped,press_space_to_continue_test1.started,press_space_to_continue_test1.stopped,cue1Image_testChoice.started,cue1Image_testChoice.stopped,cue2Image_testChoice.started,cue2Image_testChoice.stopped,test_resp.keys,test_resp.corr,test_resp.rt,test_resp.started,test_resp.stopped,cue1Image_testConf.started,cue1Image_testConf.stopped,cue2Image_testConf.started,cue2Image_testConf.stopped,conf_reminder.started,conf_reminder.stopped,conf_rating.response,conf_rating.rt,conf_rating.started,conf_rating.stopped,session,participant,date,expName,psychopyVersion,frameRate,
,,,,,,,,,,,,,,,,,,,,,,,,,,,,,,,,,,,,,,,,,,,"{'none': 'pictures/20M_AN_C.png', 'alpha': 'pictures/SHINEd_pepper.png', 'beta': 'pictures/SHINEd_pear.png', 'theta': 'pictures/SHINEd_apple.png', 'phi': 'pictures/SHINEd_melon.png', 'T1': 'pictures/33M_AN_C.png', 'T2': 'pictures/20M_AN_C.png', 'T3': 'pictures/38M_AN_C.png', 'T4': 'pictures/36M_AN_C.png', 'T5': 'pictures/37M_AN_C.png', 'T6': 'pictures/25M_AN_C.png', 'B1': 'pictures/22M_NE_C.png', 'B2': 'pictures/32M_NE_C.png', 'B3': 'pictures/26M_NE_C.png', 'B4': 'pictures/34M_NE_C.png', 'B5': 'pictures/23M_NE_C.png', 'B6': 'pictures/31M_NE_C.png'}",152.98572183999931,None,157.9691030799995,None,space,648.3146783209995,157.9691030799995,None,,,,,,,,,,,,,,,,,,,,,,,,,,,,,,,,,,,,,,,,,,,,,,,,,,,,,,,,,,,,,,,,,,,,,,,,,,,,,,,,,,,,,,,,,,,,,,,,001,163,2020_Feb_25_1043,spring_faces,3.1.5,60.01039560097843,
,,,,,,,,,,,,,,,,,,,,,,,,,,,,,,,,,,,,,,,,,,,,,,,,,,,,806.6692713209995,None,806.6692713209995,None,"['0', '2', '1', '2', 'b', 'a', 'b', 'e', 'n']","[8.702512645000752, 9.05450845300038, 11.950457723, 12.206502287999683, 14.750464060000013, 14.942590123000628, 16.990463977999752, 17.16648292500031, 17.422504198000752]",806.6692713209995,None,,,,,,,,,,,,,,,,,,,,,,,,,,,,,,,,,,,,,,,,,,,,,,,,,,,,,,,,,,,,,,,,,,,,,,,,,,,,,,,,,,,,,,,,001,163,2020_Feb_25_1043,spring_faces,3.1.5,60.01039560097843,
,,,,,,,,,,,,,,,,,,,,,,,,,,,,,,,,,,,,,,,,,,,,,,,,,,,,,,,,,,,,0212baben,806.6692713209995,None,806.6692713209995,None,829.1690065370003,None,space,1.2666790259991103,834.1691147740003,None,,,,,,,,,,,,,,,,,,,,,,,,,,,,,,,,,,,,,,,,,,,,,,,,,,,,,,,,,,,,,,,,,,,,,,,,,,,,,001,163,2020_Feb_25_1043,spring_faces,3.1.5,60.01039560097843,
,,,,,,,,,,,,,,,,,,,,,,,,,,,,,,,,,,,,,,,,,,,,,,,,,,,,,,,,,,,,,,,,,,,,,,,834.1691147740003,None,835.4695789649995,None,space,1.6547543479991873,840.4690483719987,None,,,,,,,,,,,,,,,,,,,,,,,,,,,,,,,,,,,,,,,,,,,,,,,,,,,,,,,,,,,,,,,,,,,,,001,163,2020_Feb_25_1043,spring_faces,3.1.5,60.01039560097843,
condition files/Stage0a.xlsx,0a,beta,none,g,"['h', 'g']","['Chess', 'Go']","[0, 0.5]","[0, 0]",1,0,0,0,0,0,0,0,0,1,,,,,,,,,,,,,,,,,,,,,,,,,,,,,,,,,,,,,,,,,,,,,,,,,,,,,,,,,,,,,840.4690483719987,None,842.1860224129996,None,842.1860224129996,None,842.1860224129996,None,h,0,2.4027375709993066,843.7690913959996,None,843.7690913959996,None,843.7690913959996,None,846.2525491859997,None,846.2525491859997,None,846.2525491859997,None,846.2525491859997,None,,,,,,,,,,,,,,,,,,,,,,,,,,,,,,,,,,,,,,,,,,,,001,163,2020_Feb_25_1043,spring_faces,3.1.5,60.01039560097843,
condition files/Stage0a.xlsx,0a,alpha,none,h,"['h', 'g']","['Chess', 'Go']","[0, 0.5]","[0, 0]",1,0,0,0,0,0,0,1,1,0,,,,,,,,,,,,,,,,,,,,,,,,,,,,,,,,,,,,,,,,,,,,,,,,,,,,,,,,,,,,,,,848.2022398979989,None,848.2022398979989,None,848.2022398979989,None,h,1,0.7387756509997416,849.7530084659993,None,849.7530084659993,None,849.7530084659993,None,850.5522115229996,None,850.5522115229996,None,850.5522115229996,None,850.5522115229996,None,,,,,,,,,,,,,,,,,,,,,,,,,,,,,,,,,,,,,,,,,,,,001,163,2020_Feb_25_1043,spring_faces,3.1.5,60.01039560097843,
condition files/Stage0a.xlsx,0a,alpha,none,h,"['h', 'g']","['Chess', 'Go']","[0, 0.5]","[0, 0]",1,0,0,1,1,1,0,0,0,0,,,,,,,,,,,,,,,,,,,,,,,,,,,,,,,,,,,,,,,,,,,,,,,,,,,,,,,,,,,,,,,852.5357887949995,None,852.5357887949995,None,852.5357887949995,None,h,1,0.8547635630002333,854.0690335540003,None,854.0690335540003,None,854.0690335540003,None,854.9856378429995,None,854.9856378429995,None,854.9856378429995,None,854.9856378429995,None,,,,,,,,,,,,,,,,,,,,,,,,,,,,,,,,,,,,,,,,,,,,001,163,2020_Feb_25_1043,spring_faces,3.1.5,60.01039560097843,
condition files/Stage0a.xlsx,0a,beta,none,g,"['h', 'g']","['Chess', 'Go']","[0, 0.5]","[0, 0]",1,0,0,1,1,1,0,1,1,1,,,,,,,,,,,,,,,,,,,,,,,,,,,,,,,,,,,,,,,,,,,,,,,,,,,,,,,,,,,,,,,856.9523292630001,None,856.9523292630001,None,856.9523292630001,None,g,1,0.48593639400132815,858.4858589619998,None,858.4858589619998,None,858.4858589619998,None,859.0355255939994,None,859.0355255939994,None,859.0355255939994,None,859.0355255939994,None,,,,,,,,,,,,,,,,,,,,,,,,,,,,,,,,,,,,,,,,,,,,001,163,2020_Feb_25_1043,spring_faces,3.1.5,60.01039560097843,
condition files/Stage0a.xlsx,0a,alpha,none,h,"['h', 'g']","['Chess', 'Go']","[0, 0.5]","[0, 0]",1,0,0,2,2,2,0,0,0,0,,,,,,,,,,,,,,,,,,,,,,,,,,,,,,,,,,,,,,,,,,,,,,,,,,,,,,,,,,,,,,,861.0190901049991,None,861.0190901049991,None,861.0190901049991,None,h,1,0.579638609999165,862.552149956,None,862.552149956,None,862.552149956,None,863.1856234690003,None,863.1856234690003,None,863.1856234690003,None,863.1856234690003,None,,,,,,,,,,,,,,,,,,,,,,,,,,,,,,,,,,,,,,,,,,,,001,163,2020_Feb_25_1043,spring_faces,3.1.5,60.01039560097843,
condition files/Stage0a.xlsx,0a,beta,none,g,"['h', 'g']","['Chess', 'Go']","[0, 0.5]","[0, 0]",1,0,0,2,2,2,0,1,1,1,,,,,,,,,,,,,,,,,,,,,,,,,,,,,,,,,,,,,,,,,,,,,,,,,,,,,,,,,,,,,,,865.1523356469988,None,865.1523356469988,None,865.1523356469988,None,g,1,2.5899795410005026,866.6858497470002,None,866.6858497470002,None,866.6858497470002,None,869.3359297169991,None,869.3359297169991,None,869.3359297169991,None,869.3359297169991,None,,,,,,,,,,,,,,,,,,,,,,,,,,,,,,,,,,,,,,,,,,,,001,163,2020_Feb_25_1043,spring_faces,3.1.5,60.01039560097843,
condition files/Stage0a.xlsx,0a,alpha,none,h,"['h', 'g']","['Chess', 'Go']","[0, 0.5]","[0, 0]",1,0,0,3,3,3,0,0,0,0,,,,,,,,,,,,,,,,,,,,,,,,,,,,,,,,,,,,,,,,,,,,,,,,,,,,,,,,,,,,,,,871.319066479,None,871.319066479,None,871.319066479,None,h,1,0.5508520189996489,872.8529036500004,None,872.8529036500004,None,872.8529036500004,None,873.469236469,None,873.469236469,None,873.469236469,None,873.469236469,None,,,,,,,,,,,,,,,,,,,,,,,,,,,,,,,,,,,,,,,,,,,,001,163,2020_Feb_25_1043,spring_faces,3.1.5,60.01039560097843,
condition files/Stage0a.xlsx,0a,beta,none,g,"['h', 'g']","['Chess', 'Go']","[0, 0.5]","[0, 0]",1,0,0,3,3,3,0,1,1,1,,,,,,,,,,,,,,,,,,,,,,,,,,,,,,,,,,,,,,,,,,,,,,,,,,,,,,,,,,,,,,,875.4356413699988,None,875.4356413699988,None,875.4356413699988,None,g,1,0.41892755900153134,876.9688485379993,None,876.9688485379993,None,876.9688485379993,None,877.4527168379991,None,877.4527168379991,None,877.4527168379991,None,877.4527168379991,None,,,,,,,,,,,,,,,,,,,,,,,,,,,,,,,,,,,,,,,,,,,,001,163,2020_Feb_25_1043,spring_faces,3.1.5,60.01039560097843,
condition files/Stage0a.xlsx,0a,beta,none,g,"['h', 'g']","['Chess', 'Go']","[0, 0.5]","[0, 0]",1,0,0,4,4,4,0,0,0,1,,,,,,,,,,,,,,,,,,,,,,,,,,,,,,,,,,,,,,,,,,,,,,,,,,,,,,,,,,,,,,,879.4353466529992,None,879.4353466529992,None,879.4353466529992,None,g,1,0.5637136360001023,880.9523550119993,None,880.9523550119993,None,880.9523550119993,None,881.5688455559994,None,881.5688455559994,None,881.5688455559994,None,881.5688455559994,None,,,,,,,,,,,,,,,,,,,,,,,,,,,,,,,,,,,,,,,,,,,,001,163,2020_Feb_25_1043,spring_faces,3.1.5,60.01039560097843,
condition files/Stage0a.xlsx,0a,alpha,none,h,"['h', 'g']","['Chess', 'Go']","[0, 0.5]","[0, 0]",1,0,0,4,4,4,0,1,1,0,,,,,,,,,,,,,,,,,,,,,,,,,,,,,,,,,,,,,,,,,,,,,,,,,,,,,,,,,,,,,,,883.5357700349996,None,883.5357700349996,None,883.5357700349996,None,h,1,0.4467648250010825,885.069016849,None,885.069016849,None,885.069016849,None,885.5706584149993,None,885.5706584149993,None,885.5706584149993,None,885.5706584149993,None,,,,,,,,,,,,,,,,,,,,,,,,,,,,,,,,,,,,,,,,,,,,001,163,2020_Feb_25_1043,spring_faces,3.1.5,60.01039560097843,
condition files/Stage0a.xlsx,0a,alpha,none,h,"['h', 'g']","['Chess', 'Go']","[0, 0.5]","[0, 0]",1,0,0,5,5,5,0,0,0,0,,,,,,,,,,,,,,,,,,,,,,,,,,,,,,,,,,,,,,,,,,,,,,,,,,,,,,,,,,,,,,,887.5524964609995,None,887.5524964609995,None,887.5524964609995,None,h,1,0.5585853579996183,889.0852714020002,None,889.0852714020002,None,889.0852714020002,None,889.702347556,None,889.702347556,None,889.702347556,None,889.702347556,None,,,,,,,,,,,,,,,,,,,,,,,,,,,,,,,,,,,,,,,,,,,,001,163,2020_Feb_25_1043,spring_faces,3.1.5,60.01039560097843,
condition files/Stage0a.xlsx,0a,beta,none,g,"['h', 'g']","['Chess', 'Go']","[0, 0.5]","[0, 0]",1,0,0,5,5,5,0,1,1,1,,,,,,,,,,,,,,,,,,,,,,,,,,,,,,,,,,,,,,,,,,,,,,,,,,,,,,,,,,,,,,,891.6690862269988,None,891.6690862269988,None,891.6690862269988,None,g,1,0.377266695999424,893.2025924150003,None,893.2025924150003,None,893.2025924150003,None,893.6355508819997,None,893.6355508819997,None,893.6355508819997,None,893.6355508819997,None,,,,,,,,,,,,,,,,,,,,,,,,,,,,,,,,,,,,,,,,,,,,001,163,2020_Feb_25_1043,spring_faces,3.1.5,60.01039560097843,
condition files/Stage0b_1.xlsx,0b,alpha,none,h,"['h', 'g']","['Chess', 'Go']","[-0.15, 0.5]","[0.15, 0.5]",1,0,0,6,6,6,0,0,0,0,,,,,,,,,,,,,,,,,,,,,,,,,,,,,,,,,,,,,,,,,,,,,,,,,,,,,,,,,,,,,,,895.6189844269993,None,895.6189844269993,None,895.6189844269993,None,h,1,1.1954040630007512,897.1523383109998,None,897.1523383109998,None,897.1523383109998,None,898.4017628139991,None,898.4017628139991,None,898.4017628139991,None,898.4017628139991,None,,,,,,,,,,,,,,,,,,,,,,,,,,,,,,,,,,,,,,,,,,,,001,163,2020_Feb_25_1043,spring_faces,3.1.5,60.01039560097843,
condition files/Stage0b_1.xlsx,0b,none,beta,g,"['h', 'g']","['Chess', 'Go']","[-0.15, 0.5]","[0.15, 0.5]",0,1,0,6,6,6,0,1,1,1,,,,,,,,,,,,,,,,,,,,,,,,,,,,,,,,,,,,,,,,,,,,,,,,,,,,,,,,,,,,,,,900.369015196,None,900.369015196,None,900.369015196,None,g,1,0.6370315809999738,901.9187511339987,None,901.9187511339987,None,901.9187511339987,None,902.6216348079997,None,902.6216348079997,None,902.6216348079997,None,902.6216348079997,None,,,,,,,,,,,,,,,,,,,,,,,,,,,,,,,,,,,,,,,,,,,,001,163,2020_Feb_25_1043,spring_faces,3.1.5,60.01039560097843,
condition files/Stage0b_2.xlsx,0b,none,alpha,h,"['h', 'g']","['Chess', 'Go']","[-0.15, 0.5]","[0.15, 0.5]",0,1,0,7,7,7,0,0,0,0,,,,,,,,,,,,,,,,,,,,,,,,,,,,,,,,,,,,,,,,,,,,,,,,,,,,,,,,,,,,,,,904.6025012339996,None,904.6025012339996,None,904.6025012339996,None,h,1,1.5875934380001127,906.1362080540002,None,906.1362080540002,None,906.1362080540002,None,907.7861896300001,None,907.7861896300001,None,907.7861896300001,None,907.7861896300001,None,,,,,,,,,,,,,,,,,,,,,,,,,,,,,,,,,,,,,,,,,,,,001,163,2020_Feb_25_1043,spring_faces,3.1.5,60.01039560097843,
condition files/Stage0b_2.xlsx,0b,beta,none,g,"['h', 'g']","['Chess', 'Go']","[-0.15, 0.5]","[0.15, 0.5]",1,0,0,7,7,7,0,1,1,1,,,,,,,,,,,,,,,,,,,,,,,,,,,,,,,,,,,,,,,,,,,,,,,,,,,,,,,,,,,,,,,909.7522495789999,None,909.7522495789999,None,909.7522495789999,None,g,1,0.6934469359985087,911.3023229849987,None,911.3023229849987,None,911.3023229849987,None,912.0573853409987,None,912.0573853409987,None,912.0573853409987,None,912.0573853409987,None,,,,,,,,,,,,,,,,,,,,,,,,,,,,,,,,,,,,,,,,,,,,001,163,2020_Feb_25_1043,spring_faces,3.1.5,60.01039560097843,
condition files/Stage0b_1.xlsx,0b,none,beta,g,"['h', 'g']","['Chess', 'Go']","[-0.15, 0.5]","[0.15, 0.5]",0,1,0,8,8,8,0,0,0,1,,,,,,,,,,,,,,,,,,,,,,,,,,,,,,,,,,,,,,,,,,,,,,,,,,,,,,,,,,,,,,,914.0360644880002,None,914.0360644880002,None,914.0360644880002,None,g,1,1.2419157519998407,915.585940777999,None,915.585940777999,None,915.585940777999,None,916.8857122949994,None,916.8857122949994,None,916.8857122949994,None,916.8857122949994,None,,,,,,,,,,,,,,,,,,,,,,,,,,,,,,,,,,,,,,,,,,,,001,163,2020_Feb_25_1043,spring_faces,3.1.5,60.01039560097843,
condition files/Stage0b_1.xlsx,0b,alpha,none,h,"['h', 'g']","['Chess', 'Go']","[-0.15, 0.5]","[0.15, 0.5]",1,0,0,8,8,8,0,1,1,0,,,,,,,,,,,,,,,,,,,,,,,,,,,,,,,,,,,,,,,,,,,,,,,,,,,,,,,,,,,,,,,918.8523630649997,None,918.8523630649997,None,918.8523630649997,None,h,1,0.3918250700007775,920.3880313469999,None,920.3880313469999,None,920.3880313469999,None,920.8412188789989,None,920.8412188789989,None,920.8412188789989,None,920.8412188789989,None,,,,,,,,,,,,,,,,,,,,,,,,,,,,,,,,,,,,,,,,,,,,001,163,2020_Feb_25_1043,spring_faces,3.1.5,60.01039560097843,
condition files/Stage0b_2.xlsx,0b,beta,none,g,"['h', 'g']","['Chess', 'Go']","[-0.15, 0.5]","[0.15, 0.5]",1,0,0,9,9,9,0,0,0,1,,,,,,,,,,,,,,,,,,,,,,,,,,,,,,,,,,,,,,,,,,,,,,,,,,,,,,,,,,,,,,,922.8191666219991,None,922.8191666219991,None,922.8191666219991,None,g,1,0.7317727770005149,924.3520119189998,None,924.3520119189998,None,924.3520119189998,None,925.1363027939988,None,925.1363027939988,None,925.1363027939988,None,925.1363027939988,None,,,,,,,,,,,,,,,,,,,,,,,,,,,,,,,,,,,,,,,,,,,,001,163,2020_Feb_25_1043,spring_faces,3.1.5,60.01039560097843,
condition files/Stage0b_2.xlsx,0b,none,alpha,h,"['h', 'g']","['Chess', 'Go']","[-0.15, 0.5]","[0.15, 0.5]",0,1,0,9,9,9,0,1,1,0,,,,,,,,,,,,,,,,,,,,,,,,,,,,,,,,,,,,,,,,,,,,,,,,,,,,,,,,,,,,,,,927.102353446,None,927.102353446,None,927.102353446,None,h,1,0.45930721200056723,928.6404510350003,None,928.6404510350003,None,928.6404510350003,None,929.1571240239991,None,929.1571240239991,None,929.1571240239991,None,929.1571240239991,None,,,,,,,,,,,,,,,,,,,,,,,,,,,,,,,,,,,,,,,,,,,,001,163,2020_Feb_25_1043,spring_faces,3.1.5,60.01039560097843,
condition files/Stage0b_1.xlsx,0b,alpha,none,h,"['h', 'g']","['Chess', 'Go']","[-0.15, 0.5]","[0.15, 0.5]",1,0,0,10,10,10,0,0,0,0,,,,,,,,,,,,,,,,,,,,,,,,,,,,,,,,,,,,,,,,,,,,,,,,,,,,,,,,,,,,,,,931.1357029150004,None,931.1357029150004,None,931.1357029150004,None,h,1,0.5386333340011333,932.6732600239993,None,932.6732600239993,None,932.6732600239993,None,933.2689911380003,None,933.2689911380003,None,933.2689911380003,None,933.2689911380003,None,,,,,,,,,,,,,,,,,,,,,,,,,,,,,,,,,,,,,,,,,,,,001,163,2020_Feb_25_1043,spring_faces,3.1.5,60.01039560097843,
condition files/Stage0b_1.xlsx,0b,none,beta,g,"['h', 'g']","['Chess', 'Go']","[-0.15, 0.5]","[0.15, 0.5]",0,1,0,10,10,10,0,1,1,1,,,,,,,,,,,,,,,,,,,,,,,,,,,,,,,,,,,,,,,,,,,,,,,,,,,,,,,,,,,,,,,935.2356848700001,None,935.2356848700001,None,935.2356848700001,None,g,1,0.45721790000061446,936.7706417569989,None,936.7706417569989,None,936.7706417569989,None,937.2879166839994,None,937.2879166839994,None,937.2879166839994,None,937.2879166839994,None,,,,,,,,,,,,,,,,,,,,,,,,,,,,,,,,,,,,,,,,,,,,001,163,2020_Feb_25_1043,spring_faces,3.1.5,60.01039560097843,
condition files/Stage0b_2.xlsx,0b,none,alpha,h,"['h', 'g']","['Chess', 'Go']","[-0.15, 0.5]","[0.15, 0.5]",0,1,0,11,11,11,0,0,0,0,,,,,,,,,,,,,,,,,,,,,,,,,,,,,,,,,,,,,,,,,,,,,,,,,,,,,,,,,,,,,,,939.2692111630004,None,939.2692111630004,None,939.2692111630004,None,h,1,0.5852074209997227,940.802580775,None,940.802580775,None,940.802580775,None,941.4524598609987,None,941.4524598609987,None,941.4524598609987,None,941.4524598609987,None,,,,,,,,,,,,,,,,,,,,,,,,,,,,,,,,,,,,,,,,,,,,001,163,2020_Feb_25_1043,spring_faces,3.1.5,60.01039560097843,
condition files/Stage0b_2.xlsx,0b,beta,none,g,"['h', 'g']","['Chess', 'Go']","[-0.15, 0.5]","[0.15, 0.5]",1,0,0,11,11,11,0,1,1,1,,,,,,,,,,,,,,,,,,,,,,,,,,,,,,,,,,,,,,,,,,,,,,,,,,,,,,,,,,,,,,,943.4188715199998,None,943.4188715199998,None,943.4188715199998,None,g,1,0.5784372779999103,944.9692964099995,None,944.9692964099995,None,944.9692964099995,None,945.6056073789987,None,945.6056073789987,None,945.6056073789987,None,945.6056073789987,None,,,,,,,,,,,,,,,,,,,,,,,,,,,,,,,,,,,,,,,,,,,,001,163,2020_Feb_25_1043,spring_faces,3.1.5,60.01039560097843,
condition files/Stage0c_1.xlsx,0c,alpha,phi,h,"['h', 'g']","['Chess', 'Go']","[-0.15, 0.5]","[0.15, 0.5]",1,1,0,12,12,12,0,0,0,1,,,,,,,,,,,,,,,,,,,,,,,,,,,,,,,,,,,,,,,,,,,,,,,,,,,,,,,,,,,,,,,947.585939143999,None,947.585939143999,None,947.585939143999,None,h,1,2.2686611709996214,949.1191277549988,None,949.1191277549988,None,949.1191277549988,None,951.4526837430003,None,951.4526837430003,None,951.4526837430003,None,951.4526837430003,None,,,,,,,,,,,,,,,,,,,,,,,,,,,,,,,,,,,,,,,,,,,,001,163,2020_Feb_25_1043,spring_faces,3.1.5,60.01039560097843,
condition files/Stage0c_1.xlsx,0c,theta,alpha,h,"['h', 'g']","['Chess', 'Go']","[-0.15, 0.5]","[0.15, 0.5]",1,1,0,12,12,12,0,1,1,0,,,,,,,,,,,,,,,,,,,,,,,,,,,,,,,,,,,,,,,,,,,,,,,,,,,,,,,,,,,,,,,953.4194160299994,None,953.4194160299994,None,953.4194160299994,None,g,0,2.003310780000902,954.9524696890003,None,954.9524696890003,None,954.9524696890003,None,957.0189213430003,None,957.0189213430003,None,957.0189213430003,None,957.0189213430003,None,,,,,,,,,,,,,,,,,,,,,,,,,,,,,,,,,,,,,,,,,,,,001,163,2020_Feb_25_1043,spring_faces,3.1.5,60.01039560097843,
condition files/Stage0c_1.xlsx,0c,phi,beta,g,"['h', 'g']","['Chess', 'Go']","[-0.15, 0.5]","[0.15, 0.5]",1,1,0,12,12,12,0,2,2,3,,,,,,,,,,,,,,,,,,,,,,,,,,,,,,,,,,,,,,,,,,,,,,,,,,,,,,,,,,,,,,,958.9857870229989,None,958.9857870229989,None,958.9857870229989,None,g,1,0.8367506240010698,960.5190512839999,None,960.5190512839999,None,960.5190512839999,None,961.4188407250003,None,961.4188407250003,None,961.4188407250003,None,961.4188407250003,None,,,,,,,,,,,,,,,,,,,,,,,,,,,,,,,,,,,,,,,,,,,,001,163,2020_Feb_25_1043,spring_faces,3.1.5,60.01039560097843,
condition files/Stage0c_1.xlsx,0c,beta,theta,g,"['h', 'g']","['Chess', 'Go']","[-0.15, 0.5]","[0.15, 0.5]",1,1,0,12,12,12,0,3,3,2,,,,,,,,,,,,,,,,,,,,,,,,,,,,,,,,,,,,,,,,,,,,,,,,,,,,,,,,,,,,,,,963.3854631939994,None,963.3854631939994,None,963.3854631939994,None,g,1,1.3806038170005195,964.9191867959998,None,964.9191867959998,None,964.9191867959998,None,966.337250524999,None,966.337250524999,None,966.337250524999,None,966.337250524999,None,,,,,,,,,,,,,,,,,,,,,,,,,,,,,,,,,,,,,,,,,,,,001,163,2020_Feb_25_1043,spring_faces,3.1.5,60.01039560097843,
condition files/Stage0c_2.xlsx,0c,phi,alpha,h,"['h', 'g']","['Chess', 'Go']","[-0.15, 0.5]","[0.15, 0.5]",1,1,0,13,13,13,0,0,0,1,,,,,,,,,,,,,,,,,,,,,,,,,,,,,,,,,,,,,,,,,,,,,,,,,,,,,,,,,,,,,,,968.3360365560002,None,968.3360365560002,None,968.3360365560002,None,h,1,0.6540927440000814,969.8697046919988,None,969.8697046919988,None,969.8697046919988,None,970.5857657919987,None,970.5857657919987,None,970.5857657919987,None,970.5857657919987,None,,,,,,,,,,,,,,,,,,,,,,,,,,,,,,,,,,,,,,,,,,,,001,163,2020_Feb_25_1043,spring_faces,3.1.5,60.01039560097843,
condition files/Stage0c_2.xlsx,0c,alpha,theta,h,"['h', 'g']","['Chess', 'Go']","[-0.15, 0.5]","[0.15, 0.5]",1,1,0,13,13,13,0,1,1,0,,,,,,,,,,,,,,,,,,,,,,,,,,,,,,,,,,,,,,,,,,,,,,,,,,,,,,,,,,,,,,,972.5523760449996,None,972.5523760449996,None,972.5523760449996,None,h,1,0.9979085329996451,974.0858829539993,None,974.0858829539993,None,974.0858829539993,None,975.1217025139995,None,975.1217025139995,None,975.1217025139995,None,975.1217025139995,None,,,,,,,,,,,,,,,,,,,,,,,,,,,,,,,,,,,,,,,,,,,,001,163,2020_Feb_25_1043,spring_faces,3.1.5,60.01039560097843,
condition files/Stage0c_2.xlsx,0c,theta,beta,g,"['h', 'g']","['Chess', 'Go']","[-0.15, 0.5]","[0.15, 0.5]",1,1,0,13,13,13,0,2,2,2,,,,,,,,,,,,,,,,,,,,,,,,,,,,,,,,,,,,,,,,,,,,,,,,,,,,,,,,,,,,,,,977.1024229309987,None,977.1024229309987,None,977.1024229309987,None,g,1,1.4878788200003328,978.6358961770002,None,978.6358961770002,None,978.6358961770002,None,980.1859898109997,None,980.1859898109997,None,980.1859898109997,None,980.1859898109997,None,,,,,,,,,,,,,,,,,,,,,,,,,,,,,,,,,,,,,,,,,,,,001,163,2020_Feb_25_1043,spring_faces,3.1.5,60.01039560097843,
condition files/Stage0c_2.xlsx,0c,beta,phi,g,"['h', 'g']","['Chess', 'Go']","[-0.15, 0.5]","[0.15, 0.5]",1,1,0,13,13,13,0,3,3,3,,,,,,,,,,,,,,,,,,,,,,,,,,,,,,,,,,,,,,,,,,,,,,,,,,,,,,,,,,,,,,,982.152372348999,None,982.152372348999,None,982.152372348999,None,g,1,0.7579172269997798,983.6859334679993,None,983.6859334679993,None,983.6859334679993,None,984.485891622,None,984.485891622,None,984.485891622,None,984.485891622,None,,,,,,,,,,,,,,,,,,,,,,,,,,,,,,,,,,,,,,,,,,,,001,163,2020_Feb_25_1043,spring_faces,3.1.5,60.01039560097843,
condition files/Stage0c_1.xlsx,0c,phi,beta,g,"['h', 'g']","['Chess', 'Go']","[-0.15, 0.5]","[0.15, 0.5]",1,1,0,14,14,14,0,0,0,3,,,,,,,,,,,,,,,,,,,,,,,,,,,,,,,,,,,,,,,,,,,,,,,,,,,,,,,,,,,,,,,986.4852000999999,None,986.4852000999999,None,986.4852000999999,None,g,1,0.9372220010009187,988.0185717969998,None,988.0185717969998,None,988.0185717969998,None,989.0022374460004,None,989.0022374460004,None,989.0022374460004,None,989.0022374460004,None,,,,,,,,,,,,,,,,,,,,,,,,,,,,,,,,,,,,,,,,,,,,001,163,2020_Feb_25_1043,spring_faces,3.1.5,60.01039560097843,
condition files/Stage0c_1.xlsx,0c,beta,theta,g,"['h', 'g']","['Chess', 'Go']","[-0.15, 0.5]","[0.15, 0.5]",1,1,0,14,14,14,0,1,1,2,,,,,,,,,,,,,,,,,,,,,,,,,,,,,,,,,,,,,,,,,,,,,,,,,,,,,,,,,,,,,,,990.9858171329997,None,990.9858171329997,None,990.9858171329997,None,g,1,1.0767406149989256,992.5191358579996,None,992.5191358579996,None,992.5191358579996,None,993.6360196940004,None,993.6360196940004,None,993.6360196940004,None,993.6360196940004,None,,,,,,,,,,,,,,,,,,,,,,,,,,,,,,,,,,,,,,,,,,,,001,163,2020_Feb_25_1043,spring_faces,3.1.5,60.01039560097843,
condition files/Stage0c_1.xlsx,0c,alpha,phi,h,"['h', 'g']","['Chess', 'Go']","[-0.15, 0.5]","[0.15, 0.5]",1,1,0,14,14,14,0,2,2,1,,,,,,,,,,,,,,,,,,,,,,,,,,,,,,,,,,,,,,,,,,,,,,,,,,,,,,,,,,,,,,,995.6185114849995,None,995.6185114849995,None,995.6185114849995,None,h,1,0.9388908929995523,997.152887029999,None,997.152887029999,None,997.152887029999,None,998.1527207189993,None,998.1527207189993,None,998.1527207189993,None,998.1527207189993,None,,,,,,,,,,,,,,,,,,,,,,,,,,,,,,,,,,,,,,,,,,,,001,163,2020_Feb_25_1043,spring_faces,3.1.5,60.01039560097843,
condition files/Stage0c_1.xlsx,0c,theta,alpha,h,"['h', 'g']","['Chess', 'Go']","[-0.15, 0.5]","[0.15, 0.5]",1,1,0,14,14,14,0,3,3,0,,,,,,,,,,,,,,,,,,,,,,,,,,,,,,,,,,,,,,,,,,,,,,,,,,,,,,,,,,,,,,,1000.1190060839999,None,1000.1190060839999,None,1000.1190060839999,None,h,1,0.7430256029983866,1001.6528147279987,None,1001.6528147279987,None,1001.6528147279987,None,1002.4526183620001,None,1002.4526183620001,None,1002.4526183620001,None,1002.4526183620001,None,,,,,,,,,,,,,,,,,,,,,,,,,,,,,,,,,,,,,,,,,,,,001,163,2020_Feb_25_1043,spring_faces,3.1.5,60.01039560097843,
condition files/Stage0c_2.xlsx,0c,beta,phi,g,"['h', 'g']","['Chess', 'Go']","[-0.15, 0.5]","[0.15, 0.5]",1,1,0,15,15,15,0,0,0,3,,,,,,,,,,,,,,,,,,,,,,,,,,,,,,,,,,,,,,,,,,,,,,,,,,,,,,,,,,,,,,,1004.4355672589991,None,1004.4355672589991,None,1004.4355672589991,None,g,1,0.7148871839999629,1005.9688986649999,None,1005.9688986649999,None,1005.9688986649999,None,1006.7358888399995,None,1006.7358888399995,None,1006.7358888399995,None,1006.7358888399995,None,,,,,,,,,,,,,,,,,,,,,,,,,,,,,,,,,,,,,,,,,,,,001,163,2020_Feb_25_1043,spring_faces,3.1.5,60.01039560097843,
condition files/Stage0c_2.xlsx,0c,theta,beta,g,"['h', 'g']","['Chess', 'Go']","[-0.15, 0.5]","[0.15, 0.5]",1,1,0,15,15,15,0,1,1,2,,,,,,,,,,,,,,,,,,,,,,,,,,,,,,,,,,,,,,,,,,,,,,,,,,,,,,,,,,,,,,,1008.7028319389992,None,1008.7028319389992,None,1008.7028319389992,None,g,1,0.5437052180004684,1010.2361569679997,None,1010.2361569679997,None,1010.2361569679997,None,1010.8200885369988,None,1010.8200885369988,None,1010.8200885369988,None,1010.8200885369988,None,,,,,,,,,,,,,,,,,,,,,,,,,,,,,,,,,,,,,,,,,,,,001,163,2020_Feb_25_1043,spring_faces,3.1.5,60.01039560097843,
condition files/Stage0c_2.xlsx,0c,alpha,theta,h,"['h', 'g']","['Chess', 'Go']","[-0.15, 0.5]","[0.15, 0.5]",1,1,0,15,15,15,0,2,2,0,,,,,,,,,,,,,,,,,,,,,,,,,,,,,,,,,,,,,,,,,,,,,,,,,,,,,,,,,,,,,,,1012.8023901609995,None,1012.8023901609995,None,1012.8023901609995,None,h,1,0.6998345510000945,1014.3359437090003,None,1014.3359437090003,None,1014.3359437090003,None,1015.0853315240001,None,1015.0853315240001,None,1015.0853315240001,None,1015.0853315240001,None,,,,,,,,,,,,,,,,,,,,,,,,,,,,,,,,,,,,,,,,,,,,001,163,2020_Feb_25_1043,spring_faces,3.1.5,60.01039560097843,
condition files/Stage0c_2.xlsx,0c,phi,alpha,h,"['h', 'g']","['Chess', 'Go']","[-0.15, 0.5]","[0.15, 0.5]",1,1,0,15,15,15,0,3,3,1,,,,,,,,,,,,,,,,,,,,,,,,,,,,,,,,,,,,,,,,,,,,,,,,,,,,,,,,,,,,,,,1017.052419181,None,1017.052419181,None,1017.052419181,None,h,1,0.9456949479990726,1018.5860537230001,None,1018.5860537230001,None,1018.5860537230001,None,1019.5702328749994,None,1019.5702328749994,None,1019.5702328749994,None,1019.5702328749994,None,,,,,,,,,,,,,,,,,,,,,,,,,,,,,,,,,,,,,,,,,,,,001,163,2020_Feb_25_1043,spring_faces,3.1.5,60.01039560097843,
condition files/Stage0c_1.xlsx,0c,beta,theta,g,"['h', 'g']","['Chess', 'Go']","[-0.15, 0.5]","[0.15, 0.5]",1,1,0,16,16,16,0,0,0,2,,,,,,,,,,,,,,,,,,,,,,,,,,,,,,,,,,,,,,,,,,,,,,,,,,,,,,,,,,,,,,,1021.5694550379994,None,1021.5694550379994,None,1021.5694550379994,None,g,1,0.8452400030000717,1023.102549317,None,1023.102549317,None,1023.102549317,None,1024.0023406259988,None,1024.0023406259988,None,1024.0023406259988,None,1024.0023406259988,None,,,,,,,,,,,,,,,,,,,,,,,,,,,,,,,,,,,,,,,,,,,,001,163,2020_Feb_25_1043,spring_faces,3.1.5,60.01039560097843,
condition files/Stage0c_1.xlsx,0c,phi,beta,g,"['h', 'g']","['Chess', 'Go']","[-0.15, 0.5]","[0.15, 0.5]",1,1,0,16,16,16,0,1,1,3,,,,,,,,,,,,,,,,,,,,,,,,,,,,,,,,,,,,,,,,,,,,,,,,,,,,,,,,,,,,,,,1025.9690747980003,None,1025.9690747980003,None,1025.9690747980003,None,g,1,0.7817049599998427,1027.5020697269993,None,1027.5020697269993,None,1027.5020697269993,None,1028.319757670999,None,1028.319757670999,None,1028.319757670999,None,1028.319757670999,None,,,,,,,,,,,,,,,,,,,,,,,,,,,,,,,,,,,,,,,,,,,,001,163,2020_Feb_25_1043,spring_faces,3.1.5,60.01039560097843,
condition files/Stage0c_1.xlsx,0c,alpha,phi,h,"['h', 'g']","['Chess', 'Go']","[-0.15, 0.5]","[0.15, 0.5]",1,1,0,16,16,16,0,2,2,1,,,,,,,,,,,,,,,,,,,,,,,,,,,,,,,,,,,,,,,,,,,,,,,,,,,,,,,,,,,,,,,1030.3025187759995,None,1030.3025187759995,None,1030.3025187759995,None,h,1,0.8802471300004981,1031.8356923369993,None,1031.8356923369993,None,1031.8356923369993,None,1032.769404277,None,1032.769404277,None,1032.769404277,None,1032.769404277,None,,,,,,,,,,,,,,,,,,,,,,,,,,,,,,,,,,,,,,,,,,,,001,163,2020_Feb_25_1043,spring_faces,3.1.5,60.01039560097843,
condition files/Stage0c_1.xlsx,0c,theta,alpha,h,"['h', 'g']","['Chess', 'Go']","[-0.15, 0.5]","[0.15, 0.5]",1,1,0,16,16,16,0,3,3,0,,,,,,,,,,,,,,,,,,,,,,,,,,,,,,,,,,,,,,,,,,,,,,,,,,,,,,,,,,,,,,,1034.7353820749995,None,1034.7353820749995,None,1034.7353820749995,None,h,1,0.6864444050006568,1036.269340806999,None,1036.269340806999,None,1036.269340806999,None,1037.0022542299994,None,1037.0022542299994,None,1037.0022542299994,None,1037.0022542299994,None,,,,,,,,,,,,,,,,,,,,,,,,,,,,,,,,,,,,,,,,,,,,001,163,2020_Feb_25_1043,spring_faces,3.1.5,60.01039560097843,
condition files/Stage0c_2.xlsx,0c,theta,beta,g,"['h', 'g']","['Chess', 'Go']","[-0.15, 0.5]","[0.15, 0.5]",1,1,0,17,17,17,0,0,0,2,,,,,,,,,,,,,,,,,,,,,,,,,,,,,,,,,,,,,,,,,,,,,,,,,,,,,,,,,,,,,,,1039.0026143859995,None,1039.0026143859995,None,1039.0026143859995,None,g,1,0.8834240270007285,1040.5363407289988,None,1040.5363407289988,None,1040.5363407289988,None,1041.486032617,None,1041.486032617,None,1041.486032617,None,1041.486032617,None,,,,,,,,,,,,,,,,,,,,,,,,,,,,,,,,,,,,,,,,,,,,001,163,2020_Feb_25_1043,spring_faces,3.1.5,60.01039560097843,
condition files/Stage0c_2.xlsx,0c,beta,phi,g,"['h', 'g']","['Chess', 'Go']","[-0.15, 0.5]","[0.15, 0.5]",1,1,0,17,17,17,0,1,1,3,,,,,,,,,,,,,,,,,,,,,,,,,,,,,,,,,,,,,,,,,,,,,,,,,,,,,,,,,,,,,,,1043.452467002,None,1043.452467002,None,1043.452467002,None,g,1,0.7860905569996248,1044.9856895909998,None,1044.9856895909998,None,1044.9856895909998,None,1045.820342822999,None,1045.820342822999,None,1045.820342822999,None,1045.820342822999,None,,,,,,,,,,,,,,,,,,,,,,,,,,,,,,,,,,,,,,,,,,,,001,163,2020_Feb_25_1043,spring_faces,3.1.5,60.01039560097843,
condition files/Stage0c_2.xlsx,0c,alpha,theta,h,"['h', 'g']","['Chess', 'Go']","[-0.15, 0.5]","[0.15, 0.5]",1,1,0,17,17,17,0,2,2,0,,,,,,,,,,,,,,,,,,,,,,,,,,,,,,,,,,,,,,,,,,,,,,,,,,,,,,,,,,,,,,,1047.802206634,None,1047.802206634,None,1047.802206634,None,h,1,0.756284978999247,1049.3355026030004,None,1049.3355026030004,None,1049.3355026030004,None,1050.1529112589997,None,1050.1529112589997,None,1050.1529112589997,None,1050.1529112589997,None,,,,,,,,,,,,,,,,,,,,,,,,,,,,,,,,,,,,,,,,,,,,001,163,2020_Feb_25_1043,spring_faces,3.1.5,60.01039560097843,
condition files/Stage0c_2.xlsx,0c,phi,alpha,h,"['h', 'g']","['Chess', 'Go']","[-0.15, 0.5]","[0.15, 0.5]",1,1,0,17,17,17,0,3,3,1,,,,,,,,,,,,,,,,,,,,,,,,,,,,,,,,,,,,,,,,,,,,,,,,,,,,,,,,,,,,,,,1052.1189989819995,None,1052.1189989819995,None,1052.1189989819995,None,h,1,0.43889916199987056,1053.652889957999,None,1053.652889957999,None,1053.652889957999,None,1054.1355641640002,None,1054.1355641640002,None,1054.1355641640002,None,1054.1355641640002,None,,,,,,,,,,,,,,,,,,,,,,,,,,,,,,,,,,,,,,,,,,,,001,163,2020_Feb_25_1043,spring_faces,3.1.5,60.01039560097843,
,,,,,,,,,,,,,,,,,,,,,,,,,,,,,,,,,,,,,,,,,,,,,,,,,,,,,,,,,,,,,,,,,,,,,,,,,,,,,,,,,,,,,,,,,,,,,,,,,,,,,,,,1056.1359144919988,None,space,1.6601734630003193,1061.1356759209993,None,,,,,,,,,,,,,,,,,,,,,,,,,,,,,,,,,,,,,,001,163,2020_Feb_25_1043,spring_faces,3.1.5,60.01039560097843,
condition files/Stage1_1.xlsx,,B2,T1,m,"['c', 'm']","['Clue', 'Monopoly']","[-0.15, 0.5]","[0.15, 0.5]",1,1,,,,,,,,,0,0,0,0,0,0,0,2,,,,,,,,,,,,,,,,,,,,,,,,,,,,,,,,,,,,,,,,,,,,,,,,,,,,,,,1062.8526765139995,None,1062.8526765139995,None,1062.8526765139995,None,m,1,3.736424149001323,1064.4193550389991,None,1064.4193550389991,None,1064.4193550389991,None,1068.2356318729999,None,1068.2356318729999,None,1068.2356318729999,None,1068.2356318729999,None,,,,,,,1061.1356759209993,None,,,,,,,,,,,,,,,,,,,,,,,,,,,,,,,,,,,,001,163,2020_Feb_25_1043,spring_faces,3.1.5,60.01039560097843,
condition files/Stage1_1.xlsx,,T3,B4,c,"['c', 'm']","['Clue', 'Monopoly']","[-0.15, 0.5]","[0.15, 0.5]",1,1,,,,,,,,,0,0,0,0,0,1,1,5,,,,,,,,,,,,,,,,,,,,,,,,,,,,,,,,,,,,,,,,,,,,,,,,,,,,,,,1070.185794469,None,1070.185794469,None,1070.185794469,None,c,1,1.107938232999004,1071.7359122899998,None,1071.7359122899998,None,1071.7359122899998,None,1072.9192206219996,None,1072.9192206219996,None,1072.9192206219996,None,1072.9192206219996,None,,,,,,,,,,,,,,,,,,,,,,,,,,,,,,,,,,,,,,,,,,,,001,163,2020_Feb_25_1043,spring_faces,3.1.5,60.01039560097843,
condition files/Stage1_1.xlsx,,B4,T4,m,"['c', 'm']","['Clue', 'Monopoly']","[-0.15, 0.5]","[0.15, 0.5]",1,1,,,,,,,,,0,0,0,0,0,2,2,7,,,,,,,,,,,,,,,,,,,,,,,,,,,,,,,,,,,,,,,,,,,,,,,,,,,,,,,1074.869125878,None,1074.869125878,None,1074.869125878,None,m,1,1.257480629001293,1076.4023835690004,None,1076.4023835690004,None,1076.4023835690004,None,1077.7197916120003,None,1077.7197916120003,None,1077.7197916120003,None,1077.7197916120003,None,,,,,,,,,,,,,,,,,,,,,,,,,,,,,,,,,,,,,,,,,,,,001,163,2020_Feb_25_1043,spring_faces,3.1.5,60.01039560097843,
condition files/Stage1_1.xlsx,,T4,B3,m,"['c', 'm']","['Clue', 'Monopoly']","[-0.15, 0.5]","[0.15, 0.5]",1,1,,,,,,,,,0,0,0,0,0,3,3,6,,,,,,,,,,,,,,,,,,,,,,,,,,,,,,,,,,,,,,,,,,,,,,,,,,,,,,,1079.6857393739992,None,1079.6857393739992,None,1079.6857393739992,None,m,1,0.9207896449988766,1081.219017948999,None,1081.219017948999,None,1081.219017948999,None,1082.202181536999,None,1082.202181536999,None,1082.202181536999,None,1082.202181536999,None,,,,,,,,,,,,,,,,,,,,,,,,,,,,,,,,,,,,,,,,,,,,001,163,2020_Feb_25_1043,spring_faces,3.1.5,60.01039560097843,
condition files/Stage1_1.xlsx,,B1,T2,c,"['c', 'm']","['Clue', 'Monopoly']","[-0.15, 0.5]","[0.15, 0.5]",1,1,,,,,,,,,0,0,0,0,0,4,4,1,,,,,,,,,,,,,,,,,,,,,,,,,,,,,,,,,,,,,,,,,,,,,,,,,,,,,,,1084.1690814929989,None,1084.1690814929989,None,1084.1690814929989,None,m,0,1.6330031889992824,1085.802722508999,None,1085.802722508999,None,1085.802722508999,None,1087.488375130999,None,1087.488375130999,None,1087.488375130999,None,1087.488375130999,None,,,,,,,,,,,,,,,,,,,,,,,,,,,,,,,,,,,,,,,,,,,,001,163,2020_Feb_25_1043,spring_faces,3.1.5,60.01039560097843,
condition files/Stage1_1.xlsx,,B3,T3,c,"['c', 'm']","['Clue', 'Monopoly']","[-0.15, 0.5]","[0.15, 0.5]",1,1,,,,,,,,,0,0,0,0,0,5,5,4,,,,,,,,,,,,,,,,,,,,,,,,,,,,,,,,,,,,,,,,,,,,,,,,,,,,,,,1089.4524423909988,None,1089.4524423909988,None,1089.4524423909988,None,c,1,1.4737489889994322,1090.9861222809996,None,1090.9861222809996,None,1090.9861222809996,None,1092.5191512049987,None,1092.5191512049987,None,1092.5191512049987,None,1092.5191512049987,None,,,,,,,,,,,,,,,,,,,,,,,,,,,,,,,,,,,,,,,,,,,,001,163,2020_Feb_25_1043,spring_faces,3.1.5,60.01039560097843,
condition files/Stage1_1.xlsx,,T2,B2,m,"['c', 'm']","['Clue', 'Monopoly']","[-0.15, 0.5]","[0.15, 0.5]",1,1,,,,,,,,,0,0,0,0,0,6,6,3,,,,,,,,,,,,,,,,,,,,,,,,,,,,,,,,,,,,,,,,,,,,,,,,,,,,,,,1094.4858065879998,None,1094.4858065879998,None,1094.4858065879998,None,m,1,1.0492288109999208,1096.018553173999,None,1096.018553173999,None,1096.018553173999,None,1097.1361283650003,None,1097.1361283650003,None,1097.1361283650003,None,1097.1361283650003,None,,,,,,,,,,,,,,,,,,,,,,,,,,,,,,,,,,,,,,,,,,,,001,163,2020_Feb_25_1043,spring_faces,3.1.5,60.01039560097843,
condition files/Stage1_1.xlsx,,T1,B1,c,"['c', 'm']","['Clue', 'Monopoly']","[-0.15, 0.5]","[0.15, 0.5]",1,1,,,,,,,,,0,0,0,0,0,7,7,0,,,,,,,,,,,,,,,,,,,,,,,,,,,,,,,,,,,,,,,,,,,,,,,,,,,,,,,1099.08571623,None,1099.08571623,None,1099.08571623,None,m,0,0.9289876300008473,1100.6187591929993,None,1100.6187591929993,None,1100.6187591929993,None,1101.6028116460002,None,1101.6028116460002,None,1101.6028116460002,None,1101.6028116460002,None,,,,,,,,,,,,,,,,,,,,,,,,,,,,,,,,,,,,,,,,,,,,001,163,2020_Feb_25_1043,spring_faces,3.1.5,60.01039560097843,
condition files/Stage1_2.xlsx,,T2,B1,c,"['c', 'm']","['Clue', 'Monopoly']","[-0.15, 0.5]","[0.15, 0.5]",1,1,,,,,,,,,0,1,1,1,0,0,0,1,,,,,,,,,,,,,,,,,,,,,,,,,,,,,,,,,,,,,,,,,,,,,,,,,,,,,,,1103.5856924559994,None,1103.5856924559994,None,1103.5856924559994,None,m,0,1.1622591149989603,1105.121538645999,None,1105.121538645999,None,1105.121538645999,None,1106.336157189,None,1106.336157189,None,1106.336157189,None,1106.336157189,None,,,,,,,,,,,,,,,,,,,,,,,,,,,,,,,,,,,,,,,,,,,,001,163,2020_Feb_25_1043,spring_faces,3.1.5,60.01039560097843,
condition files/Stage1_2.xlsx,,B1,T1,c,"['c', 'm']","['Clue', 'Monopoly']","[-0.15, 0.5]","[0.15, 0.5]",1,1,,,,,,,,,0,1,1,1,0,1,1,0,,,,,,,,,,,,,,,,,,,,,,,,,,,,,,,,,,,,,,,,,,,,,,,,,,,,,,,1108.3024561429993,None,1108.3024561429993,None,1108.3024561429993,None,c,1,1.8224887269989267,1109.837387739999,None,1109.837387739999,None,1109.837387739999,None,1111.719293394999,None,1111.719293394999,None,1111.719293394999,None,1111.719293394999,None,,,,,,,,,,,,,,,,,,,,,,,,,,,,,,,,,,,,,,,,,,,,001,163,2020_Feb_25_1043,spring_faces,3.1.5,60.01039560097843,
condition files/Stage1_2.xlsx,,T3,B3,c,"['c', 'm']","['Clue', 'Monopoly']","[-0.15, 0.5]","[0.15, 0.5]",1,1,,,,,,,,,0,1,1,1,0,2,2,4,,,,,,,,,,,,,,,,,,,,,,,,,,,,,,,,,,,,,,,,,,,,,,,,,,,,,,,1113.6857378639997,None,1113.6857378639997,None,1113.6857378639997,None,m,0,1.0782707020007365,1115.221523414999,None,1115.221523414999,None,1115.221523414999,None,1116.3526492869987,None,1116.3526492869987,None,1116.3526492869987,None,1116.3526492869987,None,,,,,,,,,,,,,,,,,,,,,,,,,,,,,,,,,,,,,,,,,,,,001,163,2020_Feb_25_1043,spring_faces,3.1.5,60.01039560097843,
condition files/Stage1_2.xlsx,,B4,T3,c,"['c', 'm']","['Clue', 'Monopoly']","[-0.15, 0.5]","[0.15, 0.5]",1,1,,,,,,,,,0,1,1,1,0,3,3,5,,,,,,,,,,,,,,,,,,,,,,,,,,,,,,,,,,,,,,,,,,,,,,,,,,,,,,,1118.3191351530004,None,1118.3191351530004,None,1118.3191351530004,None,c,1,0.76743514699956,1119.852308808,None,1119.852308808,None,1119.852308808,None,1120.6854598819991,None,1120.6854598819991,None,1120.6854598819991,None,1120.6854598819991,None,,,,,,,,,,,,,,,,,,,,,,,,,,,,,,,,,,,,,,,,,,,,001,163,2020_Feb_25_1043,spring_faces,3.1.5,60.01039560097843,
condition files/Stage1_2.xlsx,,B2,T2,m,"['c', 'm']","['Clue', 'Monopoly']","[-0.15, 0.5]","[0.15, 0.5]",1,1,,,,,,,,,0,1,1,1,0,4,4,3,,,,,,,,,,,,,,,,,,,,,,,,,,,,,,,,,,,,,,,,,,,,,,,,,,,,,,,1122.6525241599993,None,1122.6525241599993,None,1122.6525241599993,None,c,0,1.0743313800012402,1124.1855393749993,None,1124.1855393749993,None,1124.1855393749993,None,1125.335922327,None,1125.335922327,None,1125.335922327,None,1125.335922327,None,,,,,,,,,,,,,,,,,,,,,,,,,,,,,,,,,,,,,,,,,,,,001,163,2020_Feb_25_1043,spring_faces,3.1.5,60.01039560097843,
condition files/Stage1_2.xlsx,,T1,B2,m,"['c', 'm']","['Clue', 'Monopoly']","[-0.15, 0.5]","[0.15, 0.5]",1,1,,,,,,,,,0,1,1,1,0,5,5,2,,,,,,,,,,,,,,,,,,,,,,,,,,,,,,,,,,,,,,,,,,,,,,,,,,,,,,,1127.2857061489995,None,1127.2857061489995,None,1127.2857061489995,None,c,0,3.1908902329996636,1128.8209911229987,None,1128.8209911229987,None,1128.8209911229987,None,1132.0689539199993,None,1132.0689539199993,None,1132.0689539199993,None,1132.0689539199993,None,,,,,,,,,,,,,,,,,,,,,,,,,,,,,,,,,,,,,,,,,,,,001,163,2020_Feb_25_1043,spring_faces,3.1.5,60.01039560097843,
condition files/Stage1_2.xlsx,,B3,T4,m,"['c', 'm']","['Clue', 'Monopoly']","[-0.15, 0.5]","[0.15, 0.5]",1,1,,,,,,,,,0,1,1,1,0,6,6,6,,,,,,,,,,,,,,,,,,,,,,,,,,,,,,,,,,,,,,,,,,,,,,,,,,,,,,,1134.0359284009992,None,1134.0359284009992,None,1134.0359284009992,None,c,0,2.043201794000197,1135.5686719419991,None,1135.5686719419991,None,1135.5686719419991,None,1137.668861606,None,1137.668861606,None,1137.668861606,None,1137.668861606,None,,,,,,,,,,,,,,,,,,,,,,,,,,,,,,,,,,,,,,,,,,,,001,163,2020_Feb_25_1043,spring_faces,3.1.5,60.01039560097843,
condition files/Stage1_2.xlsx,,T4,B4,m,"['c', 'm']","['Clue', 'Monopoly']","[-0.15, 0.5]","[0.15, 0.5]",1,1,,,,,,,,,0,1,1,1,0,7,7,7,,,,,,,,,,,,,,,,,,,,,,,,,,,,,,,,,,,,,,,,,,,,,,,,,,,,,,,1139.6359545060004,None,1139.6359545060004,None,1139.6359545060004,None,m,1,0.4270918040001561,1141.1686791369993,None,1141.1686791369993,None,1141.1686791369993,None,1141.651791372,None,1141.651791372,None,1141.651791372,None,1141.651791372,None,,,,,,,,,,,,,,,,,,,,,,,,,,,,,,,,,,,,,,,,,,,,001,163,2020_Feb_25_1043,spring_faces,3.1.5,60.01039560097843,
condition files/Stage1_1.xlsx,,B2,T1,m,"['c', 'm']","['Clue', 'Monopoly']","[-0.15, 0.5]","[0.15, 0.5]",1,1,,,,,,,,,0,2,2,2,0,0,0,2,,,,,,,,,,,,,,,,,,,,,,,,,,,,,,,,,,,,,,,,,,,,,,,,,,,,,,,1143.6354443259988,None,1143.6354443259988,None,1143.6354443259988,None,c,0,1.5778905269999086,1145.169880035999,None,1145.169880035999,None,1145.169880035999,None,1146.8029028349993,None,1146.8029028349993,None,1146.8029028349993,None,1146.8029028349993,None,,,,,,,,,,,,,,,,,,,,,,,,,,,,,,,,,,,,,,,,,,,,001,163,2020_Feb_25_1043,spring_faces,3.1.5,60.01039560097843,
condition files/Stage1_1.xlsx,,B4,T4,m,"['c', 'm']","['Clue', 'Monopoly']","[-0.15, 0.5]","[0.15, 0.5]",1,1,,,,,,,,,0,2,2,2,0,1,1,7,,,,,,,,,,,,,,,,,,,,,,,,,,,,,,,,,,,,,,,,,,,,,,,,,,,,,,,1148.769041268999,None,1148.769041268999,None,1148.769041268999,None,c,0,1.3091501700000663,1150.3027258949987,None,1150.3027258949987,None,1150.3027258949987,None,1151.6692481129994,None,1151.6692481129994,None,1151.6692481129994,None,1151.6692481129994,None,,,,,,,,,,,,,,,,,,,,,,,,,,,,,,,,,,,,,,,,,,,,001,163,2020_Feb_25_1043,spring_faces,3.1.5,60.01039560097843,
condition files/Stage1_1.xlsx,,B1,T2,c,"['c', 'm']","['Clue', 'Monopoly']","[-0.15, 0.5]","[0.15, 0.5]",1,1,,,,,,,,,0,2,2,2,0,2,2,1,,,,,,,,,,,,,,,,,,,,,,,,,,,,,,,,,,,,,,,,,,,,,,,,,,,,,,,1153.6358653129992,None,1153.6358653129992,None,1153.6358653129992,None,c,1,1.1628513949999615,1155.1689076929997,None,1155.1689076929997,None,1155.1689076929997,None,1156.3860061920004,None,1156.3860061920004,None,1156.3860061920004,None,1156.3860061920004,None,,,,,,,,,,,,,,,,,,,,,,,,,,,,,,,,,,,,,,,,,,,,001,163,2020_Feb_25_1043,spring_faces,3.1.5,60.01039560097843,
condition files/Stage1_1.xlsx,,T1,B1,c,"['c', 'm']","['Clue', 'Monopoly']","[-0.15, 0.5]","[0.15, 0.5]",1,1,,,,,,,,,0,2,2,2,0,3,3,0,,,,,,,,,,,,,,,,,,,,,,,,,,,,,,,,,,,,,,,,,,,,,,,,,,,,,,,1158.352426391999,None,1158.352426391999,None,1158.352426391999,None,m,0,1.564491306000491,1159.8873068009998,None,1159.8873068009998,None,1159.8873068009998,None,1161.502583960999,None,1161.502583960999,None,1161.502583960999,None,1161.502583960999,None,,,,,,,,,,,,,,,,,,,,,,,,,,,,,,,,,,,,,,,,,,,,001,163,2020_Feb_25_1043,spring_faces,3.1.5,60.01039560097843,
condition files/Stage1_1.xlsx,,T2,B2,m,"['c', 'm']","['Clue', 'Monopoly']","[-0.15, 0.5]","[0.15, 0.5]",1,1,,,,,,,,,0,2,2,2,0,4,4,3,,,,,,,,,,,,,,,,,,,,,,,,,,,,,,,,,,,,,,,,,,,,,,,,,,,,,,,1163.4687517429993,None,1163.4687517429993,None,1163.4687517429993,None,c,0,1.2322372429989628,1165.0195219139987,None,1165.0195219139987,None,1165.0195219139987,None,1166.3189246330003,None,1166.3189246330003,None,1166.3189246330003,None,1166.3189246330003,None,,,,,,,,,,,,,,,,,,,,,,,,,,,,,,,,,,,,,,,,,,,,001,163,2020_Feb_25_1043,spring_faces,3.1.5,60.01039560097843,
condition files/Stage1_1.xlsx,,T3,B4,c,"['c', 'm']","['Clue', 'Monopoly']","[-0.15, 0.5]","[0.15, 0.5]",1,1,,,,,,,,,0,2,2,2,0,5,5,5,,,,,,,,,,,,,,,,,,,,,,,,,,,,,,,,,,,,,,,,,,,,,,,,,,,,,,,1168.2689712069987,None,1168.2689712069987,None,1168.2689712069987,None,c,1,1.041228048999983,1169.8026518200004,None,1169.8026518200004,None,1169.8026518200004,None,1170.9026100339997,None,1170.9026100339997,None,1170.9026100339997,None,1170.9026100339997,None,,,,,,,,,,,,,,,,,,,,,,,,,,,,,,,,,,,,,,,,,,,,001,163,2020_Feb_25_1043,spring_faces,3.1.5,60.01039560097843,
condition files/Stage1_1.xlsx,,B3,T3,c,"['c', 'm']","['Clue', 'Monopoly']","[-0.15, 0.5]","[0.15, 0.5]",1,1,,,,,,,,,0,2,2,2,0,6,6,4,,,,,,,,,,,,,,,,,,,,,,,,,,,,,,,,,,,,,,,,,,,,,,,,,,,,,,,1172.869076130999,None,1172.869076130999,None,1172.869076130999,None,c,1,1.303147610000451,1174.4046570279988,None,1174.4046570279988,None,1174.4046570279988,None,1175.7694559560005,None,1175.7694559560005,None,1175.7694559560005,None,1175.7694559560005,None,,,,,,,,,,,,,,,,,,,,,,,,,,,,,,,,,,,,,,,,,,,,001,163,2020_Feb_25_1043,spring_faces,3.1.5,60.01039560097843,
condition files/Stage1_1.xlsx,,T4,B3,m,"['c', 'm']","['Clue', 'Monopoly']","[-0.15, 0.5]","[0.15, 0.5]",1,1,,,,,,,,,0,2,2,2,0,7,7,6,,,,,,,,,,,,,,,,,,,,,,,,,,,,,,,,,,,,,,,,,,,,,,,,,,,,,,,1177.735561997999,None,1177.735561997999,None,1177.735561997999,None,m,1,2.4220421829995757,1179.2857542049987,None,1179.2857542049987,None,1179.2857542049987,None,1181.769779491,None,1181.769779491,None,1181.769779491,None,1181.769779491,None,,,,,,,,,,,,,,,,,,,,,,,,,,,,,,,,,,,,,,,,,,,,001,163,2020_Feb_25_1043,spring_faces,3.1.5,60.01039560097843,
condition files/Stage1_2.xlsx,,B4,T3,c,"['c', 'm']","['Clue', 'Monopoly']","[-0.15, 0.5]","[0.15, 0.5]",1,1,,,,,,,,,0,3,3,3,0,0,0,5,,,,,,,,,,,,,,,,,,,,,,,,,,,,,,,,,,,,,,,,,,,,,,,,,,,,,,,1183.7524783110002,None,1183.7524783110002,None,1183.7524783110002,None,c,1,1.7663191930005269,1185.2854706399994,None,1185.2854706399994,None,1185.2854706399994,None,1187.104240528999,None,1187.104240528999,None,1187.104240528999,None,1187.104240528999,None,,,,,,,,,,,,,,,,,,,,,,,,,,,,,,,,,,,,,,,,,,,,001,163,2020_Feb_25_1043,spring_faces,3.1.5,60.01039560097843,
condition files/Stage1_2.xlsx,,T4,B4,m,"['c', 'm']","['Clue', 'Monopoly']","[-0.15, 0.5]","[0.15, 0.5]",1,1,,,,,,,,,0,3,3,3,0,1,1,7,,,,,,,,,,,,,,,,,,,,,,,,,,,,,,,,,,,,,,,,,,,,,,,,,,,,,,,1189.0689364049995,None,1189.0689364049995,None,1189.0689364049995,None,m,1,1.4737812870007474,1190.6020953839998,None,1190.6020953839998,None,1190.6020953839998,None,1192.1353459210004,None,1192.1353459210004,None,1192.1353459210004,None,1192.1353459210004,None,,,,,,,,,,,,,,,,,,,,,,,,,,,,,,,,,,,,,,,,,,,,001,163,2020_Feb_25_1043,spring_faces,3.1.5,60.01039560097843,
condition files/Stage1_2.xlsx,,T2,B1,c,"['c', 'm']","['Clue', 'Monopoly']","[-0.15, 0.5]","[0.15, 0.5]",1,1,,,,,,,,,0,3,3,3,0,2,2,1,,,,,,,,,,,,,,,,,,,,,,,,,,,,,,,,,,,,,,,,,,,,,,,,,,,,,,,1194.1024630379998,None,1194.1024630379998,None,1194.1024630379998,None,m,0,1.6721126230004302,1195.6356785070002,None,1195.6356785070002,None,1195.6356785070002,None,1197.370458375999,None,1197.370458375999,None,1197.370458375999,None,1197.370458375999,None,,,,,,,,,,,,,,,,,,,,,,,,,,,,,,,,,,,,,,,,,,,,001,163,2020_Feb_25_1043,spring_faces,3.1.5,60.01039560097843,
condition files/Stage1_2.xlsx,,B3,T4,m,"['c', 'm']","['Clue', 'Monopoly']","[-0.15, 0.5]","[0.15, 0.5]",1,1,,,,,,,,,0,3,3,3,0,3,3,6,,,,,,,,,,,,,,,,,,,,,,,,,,,,,,,,,,,,,,,,,,,,,,,,,,,,,,,1199.3357464599994,None,1199.3357464599994,None,1199.3357464599994,None,m,1,3.542846849999478,1200.8690198610002,None,1200.8690198610002,None,1200.8690198610002,None,1204.470003897999,None,1204.470003897999,None,1204.470003897999,None,1204.470003897999,None,,,,,,,,,,,,,,,,,,,,,,,,,,,,,,,,,,,,,,,,,,,,001,163,2020_Feb_25_1043,spring_faces,3.1.5,60.01039560097843,
condition files/Stage1_2.xlsx,,B1,T1,c,"['c', 'm']","['Clue', 'Monopoly']","[-0.15, 0.5]","[0.15, 0.5]",1,1,,,,,,,,,0,3,3,3,0,4,4,0,,,,,,,,,,,,,,,,,,,,,,,,,,,,,,,,,,,,,,,,,,,,,,,,,,,,,,,1206.435245835999,None,1206.435245835999,None,1206.435245835999,None,m,0,2.1713359900004434,1207.9684731359994,None,1207.9684731359994,None,1207.9684731359994,None,1210.2043029699998,None,1210.2043029699998,None,1210.2043029699998,None,1210.2043029699998,None,,,,,,,,,,,,,,,,,,,,,,,,,,,,,,,,,,,,,,,,,,,,001,163,2020_Feb_25_1043,spring_faces,3.1.5,60.01039560097843,
condition files/Stage1_2.xlsx,,T1,B2,m,"['c', 'm']","['Clue', 'Monopoly']","[-0.15, 0.5]","[0.15, 0.5]",1,1,,,,,,,,,0,3,3,3,0,5,5,2,,,,,,,,,,,,,,,,,,,,,,,,,,,,,,,,,,,,,,,,,,,,,,,,,,,,,,,1212.168867426999,None,1212.168867426999,None,1212.168867426999,None,m,1,1.2523471839995182,1213.7193884869994,None,1213.7193884869994,None,1213.7193884869994,None,1215.0387695400004,None,1215.0387695400004,None,1215.0387695400004,None,1215.0387695400004,None,,,,,,,,,,,,,,,,,,,,,,,,,,,,,,,,,,,,,,,,,,,,001,163,2020_Feb_25_1043,spring_faces,3.1.5,60.01039560097843,
condition files/Stage1_2.xlsx,,T3,B3,c,"['c', 'm']","['Clue', 'Monopoly']","[-0.15, 0.5]","[0.15, 0.5]",1,1,,,,,,,,,0,3,3,3,0,6,6,4,,,,,,,,,,,,,,,,,,,,,,,,,,,,,,,,,,,,,,,,,,,,,,,,,,,,,,,1217.002365974,None,1217.002365974,None,1217.002365974,None,c,1,2.3710394600002473,1218.5367756699998,None,1218.5367756699998,None,1218.5367756699998,None,1220.970107404999,None,1220.970107404999,None,1220.970107404999,None,1220.970107404999,None,,,,,,,,,,,,,,,,,,,,,,,,,,,,,,,,,,,,,,,,,,,,001,163,2020_Feb_25_1043,spring_faces,3.1.5,60.01039560097843,
condition files/Stage1_2.xlsx,,B2,T2,m,"['c', 'm']","['Clue', 'Monopoly']","[-0.15, 0.5]","[0.15, 0.5]",1,1,,,,,,,,,0,3,3,3,0,7,7,3,,,,,,,,,,,,,,,,,,,,,,,,,,,,,,,,,,,,,,,,,,,,,,,,,,,,,,,1222.9357252070004,None,1222.9357252070004,None,1222.9357252070004,None,c,0,2.5822259050000866,1224.4855474689994,None,1224.4855474689994,None,1224.4855474689994,None,1227.1218718729997,None,1227.1218718729997,None,1227.1218718729997,None,1227.1218718729997,None,,,,,,,,,,,,,,,,,,,,,,,,,,,,,,,,,,,,,,,,,,,,001,163,2020_Feb_25_1043,spring_faces,3.1.5,60.01039560097843,
condition files/Stage1_1.xlsx,,T1,B1,c,"['c', 'm']","['Clue', 'Monopoly']","[-0.15, 0.5]","[0.15, 0.5]",1,1,,,,,,,,,0,4,4,4,0,0,0,0,,,,,,,,,,,,,,,,,,,,,,,,,,,,,,,,,,,,,,,,,,,,,,,,,,,,,,,1229.102627590999,None,1229.102627590999,None,1229.102627590999,None,m,0,1.392312818999926,1230.6355655949992,None,1230.6355655949992,None,1230.6355655949992,None,1232.0859904930003,None,1232.0859904930003,None,1232.0859904930003,None,1232.0859904930003,None,,,,,,,,,,,,,,,,,,,,,,,,,,,,,,,,,,,,,,,,,,,,001,163,2020_Feb_25_1043,spring_faces,3.1.5,60.01039560097843,
condition files/Stage1_1.xlsx,,T3,B4,c,"['c', 'm']","['Clue', 'Monopoly']","[-0.15, 0.5]","[0.15, 0.5]",1,1,,,,,,,,,0,4,4,4,0,1,1,5,,,,,,,,,,,,,,,,,,,,,,,,,,,,,,,,,,,,,,,,,,,,,,,,,,,,,,,1234.0524785779999,None,1234.0524785779999,None,1234.0524785779999,None,c,1,0.7459501039993484,1235.5858491559993,None,1235.5858491559993,None,1235.5858491559993,None,1236.3858958769997,None,1236.3858958769997,None,1236.3858958769997,None,1236.3858958769997,None,,,,,,,,,,,,,,,,,,,,,,,,,,,,,,,,,,,,,,,,,,,,001,163,2020_Feb_25_1043,spring_faces,3.1.5,60.01039560097843,
condition files/Stage1_1.xlsx,,B3,T3,c,"['c', 'm']","['Clue', 'Monopoly']","[-0.15, 0.5]","[0.15, 0.5]",1,1,,,,,,,,,0,4,4,4,0,2,2,4,,,,,,,,,,,,,,,,,,,,,,,,,,,,,,,,,,,,,,,,,,,,,,,,,,,,,,,1238.3518772419993,None,1238.3518772419993,None,1238.3518772419993,None,c,1,0.6689244340013829,1239.9028596939988,None,1239.9028596939988,None,1239.9028596939988,None,1240.6358809739995,None,1240.6358809739995,None,1240.6358809739995,None,1240.6358809739995,None,,,,,,,,,,,,,,,,,,,,,,,,,,,,,,,,,,,,,,,,,,,,001,163,2020_Feb_25_1043,spring_faces,3.1.5,60.01039560097843,
condition files/Stage1_1.xlsx,,T4,B3,m,"['c', 'm']","['Clue', 'Monopoly']","[-0.15, 0.5]","[0.15, 0.5]",1,1,,,,,,,,,0,4,4,4,0,3,3,6,,,,,,,,,,,,,,,,,,,,,,,,,,,,,,,,,,,,,,,,,,,,,,,,,,,,,,,1242.6023115539992,None,1242.6023115539992,None,1242.6023115539992,None,m,1,1.0582462330003182,1244.1376025520003,None,1244.1376025520003,None,1244.1376025520003,None,1245.2687483099999,None,1245.2687483099999,None,1245.2687483099999,None,1245.2687483099999,None,,,,,,,,,,,,,,,,,,,,,,,,,,,,,,,,,,,,,,,,,,,,001,163,2020_Feb_25_1043,spring_faces,3.1.5,60.01039560097843,
condition files/Stage1_1.xlsx,,T2,B2,m,"['c', 'm']","['Clue', 'Monopoly']","[-0.15, 0.5]","[0.15, 0.5]",1,1,,,,,,,,,0,4,4,4,0,4,4,3,,,,,,,,,,,,,,,,,,,,,,,,,,,,,,,,,,,,,,,,,,,,,,,,,,,,,,,1247.2190460889997,None,1247.2190460889997,None,1247.2190460889997,None,m,1,2.3148517049994553,1248.7529538639992,None,1248.7529538639992,None,1248.7529538639992,None,1251.1190986700003,None,1251.1190986700003,None,1251.1190986700003,None,1251.1190986700003,None,,,,,,,,,,,,,,,,,,,,,,,,,,,,,,,,,,,,,,,,,,,,001,163,2020_Feb_25_1043,spring_faces,3.1.5,60.01039560097843,
condition files/Stage1_1.xlsx,,B1,T2,c,"['c', 'm']","['Clue', 'Monopoly']","[-0.15, 0.5]","[0.15, 0.5]",1,1,,,,,,,,,0,4,4,4,0,5,5,1,,,,,,,,,,,,,,,,,,,,,,,,,,,,,,,,,,,,,,,,,,,,,,,,,,,,,,,1253.0853318009995,None,1253.0853318009995,None,1253.0853318009995,None,c,1,2.1264368790016306,1254.6213725439993,None,1254.6213725439993,None,1254.6213725439993,None,1256.8052495369993,None,1256.8052495369993,None,1256.8052495369993,None,1256.8052495369993,None,,,,,,,,,,,,,,,,,,,,,,,,,,,,,,,,,,,,,,,,,,,,001,163,2020_Feb_25_1043,spring_faces,3.1.5,60.01039560097843,
condition files/Stage1_1.xlsx,,B2,T1,m,"['c', 'm']","['Clue', 'Monopoly']","[-0.15, 0.5]","[0.15, 0.5]",1,1,,,,,,,,,0,4,4,4,0,6,6,2,,,,,,,,,,,,,,,,,,,,,,,,,,,,,,,,,,,,,,,,,,,,,,,,,,,,,,,1258.769120334,None,1258.769120334,None,1258.769120334,None,c,0,1.8532334150004317,1260.3025745079995,None,1260.3025745079995,None,1260.3025745079995,None,1262.2361257920002,None,1262.2361257920002,None,1262.2361257920002,None,1262.2361257920002,None,,,,,,,,,,,,,,,,,,,,,,,,,,,,,,,,,,,,,,,,,,,,001,163,2020_Feb_25_1043,spring_faces,3.1.5,60.01039560097843,
condition files/Stage1_1.xlsx,,B4,T4,m,"['c', 'm']","['Clue', 'Monopoly']","[-0.15, 0.5]","[0.15, 0.5]",1,1,,,,,,,,,0,4,4,4,0,7,7,7,,,,,,,,,,,,,,,,,,,,,,,,,,,,,,,,,,,,,,,,,,,,,,,,,,,,,,,1264.1857327149992,None,1264.1857327149992,None,1264.1857327149992,None,m,1,1.4768381099984254,1265.7189862989999,None,1265.7189862989999,None,1265.7189862989999,None,1267.252485592,None,1267.252485592,None,1267.252485592,None,1267.252485592,None,,,,,,,,,,,,,,,,,,,,,,,,,,,,,,,,,,,,,,,,,,,,001,163,2020_Feb_25_1043,spring_faces,3.1.5,60.01039560097843,
condition files/Stage1_2.xlsx,,T1,B2,m,"['c', 'm']","['Clue', 'Monopoly']","[-0.15, 0.5]","[0.15, 0.5]",1,1,,,,,,,,,0,5,5,5,0,0,0,2,,,,,,,,,,,,,,,,,,,,,,,,,,,,,,,,,,,,,,,,,,,,,,,,,,,,,,,1269.2354787289987,None,1269.2354787289987,None,1269.2354787289987,None,m,1,0.8405510199991113,1270.7713378070002,None,1270.7713378070002,None,1270.7713378070002,None,1271.6695663579994,None,1271.6695663579994,None,1271.6695663579994,None,1271.6695663579994,None,,,,,,,,,,,,,,,,,,,,,,,,,,,,,,,,,,,,,,,,,,,,001,163,2020_Feb_25_1043,spring_faces,3.1.5,60.01039560097843,
condition files/Stage1_2.xlsx,,T4,B4,m,"['c', 'm']","['Clue', 'Monopoly']","[-0.15, 0.5]","[0.15, 0.5]",1,1,,,,,,,,,0,5,5,5,0,1,1,7,,,,,,,,,,,,,,,,,,,,,,,,,,,,,,,,,,,,,,,,,,,,,,,,,,,,,,,1273.6356860960004,None,1273.6356860960004,None,1273.6356860960004,None,m,1,0.9226396350004507,1275.1692454749991,None,1275.1692454749991,None,1275.1692454749991,None,1276.1525706699995,None,1276.1525706699995,None,1276.1525706699995,None,1276.1525706699995,None,,,,,,,,,,,,,,,,,,,,,,,,,,,,,,,,,,,,,,,,,,,,001,163,2020_Feb_25_1043,spring_faces,3.1.5,60.01039560097843,
condition files/Stage1_2.xlsx,,B1,T1,c,"['c', 'm']","['Clue', 'Monopoly']","[-0.15, 0.5]","[0.15, 0.5]",1,1,,,,,,,,,0,5,5,5,0,2,2,0,,,,,,,,,,,,,,,,,,,,,,,,,,,,,,,,,,,,,,,,,,,,,,,,,,,,,,,1278.1189870979997,None,1278.1189870979997,None,1278.1189870979997,None,c,1,1.751581394000823,1279.652167913,None,1279.652167913,None,1279.652167913,None,1281.4694116190003,None,1281.4694116190003,None,1281.4694116190003,None,1281.4694116190003,None,,,,,,,,,,,,,,,,,,,,,,,,,,,,,,,,,,,,,,,,,,,,001,163,2020_Feb_25_1043,spring_faces,3.1.5,60.01039560097843,
condition files/Stage1_2.xlsx,,B2,T2,m,"['c', 'm']","['Clue', 'Monopoly']","[-0.15, 0.5]","[0.15, 0.5]",1,1,,,,,,,,,0,5,5,5,0,3,3,3,,,,,,,,,,,,,,,,,,,,,,,,,,,,,,,,,,,,,,,,,,,,,,,,,,,,,,,1283.4357107859996,None,1283.4357107859996,None,1283.4357107859996,None,c,0,1.2978790840006695,1284.9859112169997,None,1284.9859112169997,None,1284.9859112169997,None,1286.3365032229995,None,1286.3365032229995,None,1286.3365032229995,None,1286.3365032229995,None,,,,,,,,,,,,,,,,,,,,,,,,,,,,,,,,,,,,,,,,,,,,001,163,2020_Feb_25_1043,spring_faces,3.1.5,60.01039560097843,
condition files/Stage1_2.xlsx,,T2,B1,c,"['c', 'm']","['Clue', 'Monopoly']","[-0.15, 0.5]","[0.15, 0.5]",1,1,,,,,,,,,0,5,5,5,0,4,4,1,,,,,,,,,,,,,,,,,,,,,,,,,,,,,,,,,,,,,,,,,,,,,,,,,,,,,,,1288.301851275999,None,1288.301851275999,None,1288.301851275999,None,c,1,0.7840615129989601,1289.8356869599993,None,1289.8356869599993,None,1289.8356869599993,None,1290.6878869049997,None,1290.6878869049997,None,1290.6878869049997,None,1290.6878869049997,None,,,,,,,,,,,,,,,,,,,,,,,,,,,,,,,,,,,,,,,,,,,,001,163,2020_Feb_25_1043,spring_faces,3.1.5,60.01039560097843,
condition files/Stage1_2.xlsx,,B4,T3,c,"['c', 'm']","['Clue', 'Monopoly']","[-0.15, 0.5]","[0.15, 0.5]",1,1,,,,,,,,,0,5,5,5,0,5,5,5,,,,,,,,,,,,,,,,,,,,,,,,,,,,,,,,,,,,,,,,,,,,,,,,,,,,,,,1292.6525430399997,None,1292.6525430399997,None,1292.6525430399997,None,c,1,1.0727610440007993,1294.187122801999,None,1294.187122801999,None,1294.187122801999,None,1295.3191485829993,None,1295.3191485829993,None,1295.3191485829993,None,1295.3191485829993,None,,,,,,,,,,,,,,,,,,,,,,,,,,,,,,,,,,,,,,,,,,,,001,163,2020_Feb_25_1043,spring_faces,3.1.5,60.01039560097843,
condition files/Stage1_2.xlsx,,B3,T4,m,"['c', 'm']","['Clue', 'Monopoly']","[-0.15, 0.5]","[0.15, 0.5]",1,1,,,,,,,,,0,5,5,5,0,6,6,6,,,,,,,,,,,,,,,,,,,,,,,,,,,,,,,,,,,,,,,,,,,,,,,,,,,,,,,1297.2858794860003,None,1297.2858794860003,None,1297.2858794860003,None,m,1,1.0140676369992434,1298.8216949369998,None,1298.8216949369998,None,1298.8216949369998,None,1299.8870949529992,None,1299.8870949529992,None,1299.8870949529992,None,1299.8870949529992,None,,,,,,,,,,,,,,,,,,,,,,,,,,,,,,,,,,,,,,,,,,,,001,163,2020_Feb_25_1043,spring_faces,3.1.5,60.01039560097843,
condition files/Stage1_2.xlsx,,T3,B3,c,"['c', 'm']","['Clue', 'Monopoly']","[-0.15, 0.5]","[0.15, 0.5]",1,1,,,,,,,,,0,5,5,5,0,7,7,4,,,,,,,,,,,,,,,,,,,,,,,,,,,,,,,,,,,,,,,,,,,,,,,,,,,,,,,1301.8521150329998,None,1301.8521150329998,None,1301.8521150329998,None,c,1,0.5462331910002831,1303.3855716460002,None,1303.3855716460002,None,1303.3855716460002,None,1303.9868935729992,None,1303.9868935729992,None,1303.9868935729992,None,1303.9868935729992,None,,,,,,,,,,,,,,,,,,,,,,,,,,,,,,,,,,,,,,,,,,,,001,163,2020_Feb_25_1043,spring_faces,3.1.5,60.01039560097843,
condition files/Stage1_1.xlsx,,B3,T3,c,"['c', 'm']","['Clue', 'Monopoly']","[-0.15, 0.5]","[0.15, 0.5]",1,1,,,,,,,,,0,6,6,6,0,0,0,4,,,,,,,,,,,,,,,,,,,,,,,,,,,,,,,,,,,,,,,,,,,,,,,,,,,,,,,1305.969590667999,None,1305.969590667999,None,1305.969590667999,None,c,1,0.7014330870006233,1307.502350613,None,1307.502350613,None,1307.502350613,None,1308.2690709889994,None,1308.2690709889994,None,1308.2690709889994,None,1308.2690709889994,None,,,,,,,,,,,,,,,,,,,,,,,,,,,,,,,,,,,,,,,,,,,,001,163,2020_Feb_25_1043,spring_faces,3.1.5,60.01039560097843,
condition files/Stage1_1.xlsx,,T3,B4,c,"['c', 'm']","['Clue', 'Monopoly']","[-0.15, 0.5]","[0.15, 0.5]",1,1,,,,,,,,,0,6,6,6,0,1,1,5,,,,,,,,,,,,,,,,,,,,,,,,,,,,,,,,,,,,,,,,,,,,,,,,,,,,,,,1310.2354225870004,None,1310.2354225870004,None,1310.2354225870004,None,c,1,0.6909316170003876,1311.768938228999,None,1311.768938228999,None,1311.768938228999,None,1312.5188610699988,None,1312.5188610699988,None,1312.5188610699988,None,1312.5188610699988,None,,,,,,,,,,,,,,,,,,,,,,,,,,,,,,,,,,,,,,,,,,,,001,163,2020_Feb_25_1043,spring_faces,3.1.5,60.01039560097843,
condition files/Stage1_1.xlsx,,T1,B1,c,"['c', 'm']","['Clue', 'Monopoly']","[-0.15, 0.5]","[0.15, 0.5]",1,1,,,,,,,,,0,6,6,6,0,2,2,0,,,,,,,,,,,,,,,,,,,,,,,,,,,,,,,,,,,,,,,,,,,,,,,,,,,,,,,1314.4859201090003,None,1314.4859201090003,None,1314.4859201090003,None,m,0,3.2249994479989255,1316.0188668179999,None,1316.0188668179999,None,1316.0188668179999,None,1319.302364740999,None,1319.302364740999,None,1319.302364740999,None,1319.302364740999,None,,,,,,,,,,,,,,,,,,,,,,,,,,,,,,,,,,,,,,,,,,,,001,163,2020_Feb_25_1043,spring_faces,3.1.5,60.01039560097843,
condition files/Stage1_1.xlsx,,T2,B2,m,"['c', 'm']","['Clue', 'Monopoly']","[-0.15, 0.5]","[0.15, 0.5]",1,1,,,,,,,,,0,6,6,6,0,3,3,3,,,,,,,,,,,,,,,,,,,,,,,,,,,,,,,,,,,,,,,,,,,,,,,,,,,,,,,1321.268428923,None,1321.268428923,None,1321.268428923,None,m,1,3.0168606720017124,1322.8028923429993,None,1322.8028923429993,None,1322.8028923429993,None,1325.9026568480003,None,1325.9026568480003,None,1325.9026568480003,None,1325.9026568480003,None,,,,,,,,,,,,,,,,,,,,,,,,,,,,,,,,,,,,,,,,,,,,001,163,2020_Feb_25_1043,spring_faces,3.1.5,60.01039560097843,
condition files/Stage1_1.xlsx,,T4,B3,m,"['c', 'm']","['Clue', 'Monopoly']","[-0.15, 0.5]","[0.15, 0.5]",1,1,,,,,,,,,0,6,6,6,0,4,4,6,,,,,,,,,,,,,,,,,,,,,,,,,,,,,,,,,,,,,,,,,,,,,,,,,,,,,,,1327.8523766849994,None,1327.8523766849994,None,1327.8523766849994,None,m,1,0.738276310999936,1329.385528941999,None,1329.385528941999,None,1329.385528941999,None,1330.1854530729997,None,1330.1854530729997,None,1330.1854530729997,None,1330.1854530729997,None,,,,,,,,,,,,,,,,,,,,,,,,,,,,,,,,,,,,,,,,,,,,001,163,2020_Feb_25_1043,spring_faces,3.1.5,60.01039560097843,
condition files/Stage1_1.xlsx,,B4,T4,m,"['c', 'm']","['Clue', 'Monopoly']","[-0.15, 0.5]","[0.15, 0.5]",1,1,,,,,,,,,0,6,6,6,0,5,5,7,,,,,,,,,,,,,,,,,,,,,,,,,,,,,,,,,,,,,,,,,,,,,,,,,,,,,,,1332.1522014519996,None,1332.1522014519996,None,1332.1522014519996,None,m,1,1.0625188199992408,1333.6853104040001,None,1333.6853104040001,None,1333.6853104040001,None,1334.8026005619995,None,1334.8026005619995,None,1334.8026005619995,None,1334.8026005619995,None,,,,,,,,,,,,,,,,,,,,,,,,,,,,,,,,,,,,,,,,,,,,001,163,2020_Feb_25_1043,spring_faces,3.1.5,60.01039560097843,
condition files/Stage1_1.xlsx,,B1,T2,c,"['c', 'm']","['Clue', 'Monopoly']","[-0.15, 0.5]","[0.15, 0.5]",1,1,,,,,,,,,0,6,6,6,0,6,6,1,,,,,,,,,,,,,,,,,,,,,,,,,,,,,,,,,,,,,,,,,,,,,,,,,,,,,,,1336.7690820429998,None,1336.7690820429998,None,1336.7690820429998,None,c,1,3.2605432639993523,1338.3032392080004,None,1338.3032392080004,None,1338.3032392080004,None,1341.6185204419999,None,1341.6185204419999,None,1341.6185204419999,None,1341.6185204419999,None,,,,,,,,,,,,,,,,,,,,,,,,,,,,,,,,,,,,,,,,,,,,001,163,2020_Feb_25_1043,spring_faces,3.1.5,60.01039560097843,
condition files/Stage1_1.xlsx,,B2,T1,m,"['c', 'm']","['Clue', 'Monopoly']","[-0.15, 0.5]","[0.15, 0.5]",1,1,,,,,,,,,0,6,6,6,0,7,7,2,,,,,,,,,,,,,,,,,,,,,,,,,,,,,,,,,,,,,,,,,,,,,,,,,,,,,,,1343.5850894750001,None,1343.5850894750001,None,1343.5850894750001,None,m,1,1.0848245009983657,1345.1189191529993,None,1345.1189191529993,None,1345.1189191529993,None,1346.285254126,None,1346.285254126,None,1346.285254126,None,1346.285254126,None,,,,,,,,,,,,,,,,,,,,,,,,,,,,,,,,,,,,,,,,,,,,001,163,2020_Feb_25_1043,spring_faces,3.1.5,60.01039560097843,
condition files/Stage1_2.xlsx,,T1,B2,m,"['c', 'm']","['Clue', 'Monopoly']","[-0.15, 0.5]","[0.15, 0.5]",1,1,,,,,,,,,0,7,7,7,0,0,0,2,,,,,,,,,,,,,,,,,,,,,,,,,,,,,,,,,,,,,,,,,,,,,,,,,,,,,,,1348.2521533309991,None,1348.2521533309991,None,1348.2521533309991,None,c,0,0.4797146860000794,1349.7880899699994,None,1349.7880899699994,None,1349.7880899699994,None,1350.3196052589992,None,1350.3196052589992,None,1350.3196052589992,None,1350.3196052589992,None,,,,,,,,,,,,,,,,,,,,,,,,,,,,,,,,,,,,,,,,,,,,001,163,2020_Feb_25_1043,spring_faces,3.1.5,60.01039560097843,
condition files/Stage1_2.xlsx,,B4,T3,c,"['c', 'm']","['Clue', 'Monopoly']","[-0.15, 0.5]","[0.15, 0.5]",1,1,,,,,,,,,0,7,7,7,0,1,1,5,,,,,,,,,,,,,,,,,,,,,,,,,,,,,,,,,,,,,,,,,,,,,,,,,,,,,,,1352.285689065,None,1352.285689065,None,1352.285689065,None,c,1,0.9448770819999481,1353.8189116049998,None,1353.8189116049998,None,1353.8189116049998,None,1354.819471539,None,1354.819471539,None,1354.819471539,None,1354.819471539,None,,,,,,,,,,,,,,,,,,,,,,,,,,,,,,,,,,,,,,,,,,,,001,163,2020_Feb_25_1043,spring_faces,3.1.5,60.01039560097843,
condition files/Stage1_2.xlsx,,T3,B3,c,"['c', 'm']","['Clue', 'Monopoly']","[-0.15, 0.5]","[0.15, 0.5]",1,1,,,,,,,,,0,7,7,7,0,2,2,4,,,,,,,,,,,,,,,,,,,,,,,,,,,,,,,,,,,,,,,,,,,,,,,,,,,,,,,1356.7856668929999,None,1356.7856668929999,None,1356.7856668929999,None,c,1,0.7154808149989549,1358.3202890960001,None,1358.3202890960001,None,1358.3202890960001,None,1359.086064445999,None,1359.086064445999,None,1359.086064445999,None,1359.086064445999,None,,,,,,,,,,,,,,,,,,,,,,,,,,,,,,,,,,,,,,,,,,,,001,163,2020_Feb_25_1043,spring_faces,3.1.5,60.01039560097843,
condition files/Stage1_2.xlsx,,B2,T2,m,"['c', 'm']","['Clue', 'Monopoly']","[-0.15, 0.5]","[0.15, 0.5]",1,1,,,,,,,,,0,7,7,7,0,3,3,3,,,,,,,,,,,,,,,,,,,,,,,,,,,,,,,,,,,,,,,,,,,,,,,,,,,,,,,1361.052207789,None,1361.052207789,None,1361.052207789,None,c,0,3.6491656710004463,1362.602602469,None,1362.602602469,None,1362.602602469,None,1366.318687006,None,1366.318687006,None,1366.318687006,None,1366.318687006,None,,,,,,,,,,,,,,,,,,,,,,,,,,,,,,,,,,,,,,,,,,,,001,163,2020_Feb_25_1043,spring_faces,3.1.5,60.01039560097843,
condition files/Stage1_2.xlsx,,T4,B4,m,"['c', 'm']","['Clue', 'Monopoly']","[-0.15, 0.5]","[0.15, 0.5]",1,1,,,,,,,,,0,7,7,7,0,4,4,7,,,,,,,,,,,,,,,,,,,,,,,,,,,,,,,,,,,,,,,,,,,,,,,,,,,,,,,1368.268526509999,None,1368.268526509999,None,1368.268526509999,None,m,1,0.6889630939986091,1369.8028929979992,None,1369.8028929979992,None,1369.8028929979992,None,1370.5523802890002,None,1370.5523802890002,None,1370.5523802890002,None,1370.5523802890002,None,,,,,,,,,,,,,,,,,,,,,,,,,,,,,,,,,,,,,,,,,,,,001,163,2020_Feb_25_1043,spring_faces,3.1.5,60.01039560097843,
condition files/Stage1_2.xlsx,,B3,T4,m,"['c', 'm']","['Clue', 'Monopoly']","[-0.15, 0.5]","[0.15, 0.5]",1,1,,,,,,,,,0,7,7,7,0,5,5,6,,,,,,,,,,,,,,,,,,,,,,,,,,,,,,,,,,,,,,,,,,,,,,,,,,,,,,,1372.519150614,None,1372.519150614,None,1372.519150614,None,m,1,1.190725496999221,1374.0530360510002,None,1374.0530360510002,None,1374.0530360510002,None,1375.3021750970001,None,1375.3021750970001,None,1375.3021750970001,None,1375.3021750970001,None,,,,,,,,,,,,,,,,,,,,,,,,,,,,,,,,,,,,,,,,,,,,001,163,2020_Feb_25_1043,spring_faces,3.1.5,60.01039560097843,
condition files/Stage1_2.xlsx,,T2,B1,c,"['c', 'm']","['Clue', 'Monopoly']","[-0.15, 0.5]","[0.15, 0.5]",1,1,,,,,,,,,0,7,7,7,0,6,6,1,,,,,,,,,,,,,,,,,,,,,,,,,,,,,,,,,,,,,,,,,,,,,,,,,,,,,,,1377.2692246389997,None,1377.2692246389997,None,1377.2692246389997,None,m,0,1.689152266999372,1378.8026241909993,None,1378.8026241909993,None,1378.8026241909993,None,1380.5540772549994,None,1380.5540772549994,None,1380.5540772549994,None,1380.5540772549994,None,,,,,,,,,,,,,,,,,,,,,,,,,,,,,,,,,,,,,,,,,,,,001,163,2020_Feb_25_1043,spring_faces,3.1.5,60.01039560097843,
condition files/Stage1_2.xlsx,,B1,T1,c,"['c', 'm']","['Clue', 'Monopoly']","[-0.15, 0.5]","[0.15, 0.5]",1,1,,,,,,,,,0,7,7,7,0,7,7,0,,,,,,,,,,,,,,,,,,,,,,,,,,,,,,,,,,,,,,,,,,,,,,,,,,,,,,,1382.5189745480002,None,1382.5189745480002,None,1382.5189745480002,None,m,0,2.071111815999757,1384.0527008709996,None,1384.0527008709996,None,1384.0527008709996,None,1386.1852977830004,None,1386.1852977830004,None,1386.1852977830004,None,1386.1852977830004,None,,,,,,,,,,,,,,,,,,,,,,,,,,,,,,,,,,,,,,,,,,,,001,163,2020_Feb_25_1043,spring_faces,3.1.5,60.01039560097843,
condition files/Stage1_1.xlsx,,T4,B3,m,"['c', 'm']","['Clue', 'Monopoly']","[-0.15, 0.5]","[0.15, 0.5]",1,1,,,,,,,,,0,8,8,8,0,0,0,6,,,,,,,,,,,,,,,,,,,,,,,,,,,,,,,,,,,,,,,,,,,,,,,,,,,,,,,1388.1695388999997,None,1388.1695388999997,None,1388.1695388999997,None,m,1,0.7245935579994693,1389.703289318999,None,1389.703289318999,None,1389.703289318999,None,1390.4866769569999,None,1390.4866769569999,None,1390.4866769569999,None,1390.4866769569999,None,,,,,,,,,,,,,,,,,,,,,,,,,,,,,,,,,,,,,,,,,,,,001,163,2020_Feb_25_1043,spring_faces,3.1.5,60.01039560097843,
condition files/Stage1_1.xlsx,,T3,B4,c,"['c', 'm']","['Clue', 'Monopoly']","[-0.15, 0.5]","[0.15, 0.5]",1,1,,,,,,,,,0,8,8,8,0,1,1,5,,,,,,,,,,,,,,,,,,,,,,,,,,,,,,,,,,,,,,,,,,,,,,,,,,,,,,,1392.4523732729995,None,1392.4523732729995,None,1392.4523732729995,None,c,1,0.8576088749996416,1393.9862646580004,None,1393.9862646580004,None,1393.9862646580004,None,1394.9192899930003,None,1394.9192899930003,None,1394.9192899930003,None,1394.9192899930003,None,,,,,,,,,,,,,,,,,,,,,,,,,,,,,,,,,,,,,,,,,,,,001,163,2020_Feb_25_1043,spring_faces,3.1.5,60.01039560097843,
condition files/Stage1_1.xlsx,,B2,T1,m,"['c', 'm']","['Clue', 'Monopoly']","[-0.15, 0.5]","[0.15, 0.5]",1,1,,,,,,,,,0,8,8,8,0,2,2,2,,,,,,,,,,,,,,,,,,,,,,,,,,,,,,,,,,,,,,,,,,,,,,,,,,,,,,,1396.8691938779994,None,1396.8691938779994,None,1396.8691938779994,None,m,1,2.0418882979993214,1398.4019668540004,None,1398.4019668540004,None,1398.4019668540004,None,1400.519619277,None,1400.519619277,None,1400.519619277,None,1400.519619277,None,,,,,,,,,,,,,,,,,,,,,,,,,,,,,,,,,,,,,,,,,,,,001,163,2020_Feb_25_1043,spring_faces,3.1.5,60.01039560097843,
condition files/Stage1_1.xlsx,,T1,B1,c,"['c', 'm']","['Clue', 'Monopoly']","[-0.15, 0.5]","[0.15, 0.5]",1,1,,,,,,,,,0,8,8,8,0,3,3,0,,,,,,,,,,,,,,,,,,,,,,,,,,,,,,,,,,,,,,,,,,,,,,,,,,,,,,,1402.4690756969994,None,1402.4690756969994,None,1402.4690756969994,None,m,0,1.7689958279988787,1404.002810873999,None,1404.002810873999,None,1404.002810873999,None,1405.8349947539991,None,1405.8349947539991,None,1405.8349947539991,None,1405.8349947539991,None,,,,,,,,,,,,,,,,,,,,,,,,,,,,,,,,,,,,,,,,,,,,001,163,2020_Feb_25_1043,spring_faces,3.1.5,60.01039560097843,
condition files/Stage1_1.xlsx,,T2,B2,m,"['c', 'm']","['Clue', 'Monopoly']","[-0.15, 0.5]","[0.15, 0.5]",1,1,,,,,,,,,0,8,8,8,0,4,4,3,,,,,,,,,,,,,,,,,,,,,,,,,,,,,,,,,,,,,,,,,,,,,,,,,,,,,,,1407.8024251419993,None,1407.8024251419993,None,1407.8024251419993,None,c,0,1.6042586040002789,1409.3355570889998,None,1409.3355570889998,None,1409.3355570889998,None,1411.0038937509999,None,1411.0038937509999,None,1411.0038937509999,None,1411.0038937509999,None,,,,,,,,,,,,,,,,,,,,,,,,,,,,,,,,,,,,,,,,,,,,001,163,2020_Feb_25_1043,spring_faces,3.1.5,60.01039560097843,
condition files/Stage1_1.xlsx,,B1,T2,c,"['c', 'm']","['Clue', 'Monopoly']","[-0.15, 0.5]","[0.15, 0.5]",1,1,,,,,,,,,0,8,8,8,0,5,5,1,,,,,,,,,,,,,,,,,,,,,,,,,,,,,,,,,,,,,,,,,,,,,,,,,,,,,,,1412.9689307079989,None,1412.9689307079989,None,1412.9689307079989,None,m,0,1.013803777999783,1414.5021871110002,None,1414.5021871110002,None,1414.5021871110002,None,1415.5857936640004,None,1415.5857936640004,None,1415.5857936640004,None,1415.5857936640004,None,,,,,,,,,,,,,,,,,,,,,,,,,,,,,,,,,,,,,,,,,,,,001,163,2020_Feb_25_1043,spring_faces,3.1.5,60.01039560097843,
condition files/Stage1_1.xlsx,,B4,T4,m,"['c', 'm']","['Clue', 'Monopoly']","[-0.15, 0.5]","[0.15, 0.5]",1,1,,,,,,,,,0,8,8,8,0,6,6,7,,,,,,,,,,,,,,,,,,,,,,,,,,,,,,,,,,,,,,,,,,,,,,,,,,,,,,,1417.5352117149996,None,1417.5352117149996,None,1417.5352117149996,None,m,1,0.8146443639998324,1419.0691598529993,None,1419.0691598529993,None,1419.0691598529993,None,1419.9385076069993,None,1419.9385076069993,None,1419.9385076069993,None,1419.9385076069993,None,,,,,,,,,,,,,,,,,,,,,,,,,,,,,,,,,,,,,,,,,,,,001,163,2020_Feb_25_1043,spring_faces,3.1.5,60.01039560097843,
condition files/Stage1_1.xlsx,,B3,T3,c,"['c', 'm']","['Clue', 'Monopoly']","[-0.15, 0.5]","[0.15, 0.5]",1,1,,,,,,,,,0,8,8,8,0,7,7,4,,,,,,,,,,,,,,,,,,,,,,,,,,,,,,,,,,,,,,,,,,,,,,,,,,,,,,,1421.9025258539987,None,1421.9025258539987,None,1421.9025258539987,None,c,1,0.9907053030001407,1423.4371744629989,None,1423.4371744629989,None,1423.4371744629989,None,1424.4870132710003,None,1424.4870132710003,None,1424.4870132710003,None,1424.4870132710003,None,,,,,,,,,,,,,,,,,,,,,,,,,,,,,,,,,,,,,,,,,,,,001,163,2020_Feb_25_1043,spring_faces,3.1.5,60.01039560097843,
condition files/Stage1_2.xlsx,,B3,T4,m,"['c', 'm']","['Clue', 'Monopoly']","[-0.15, 0.5]","[0.15, 0.5]",1,1,,,,,,,,,0,9,9,9,0,0,0,6,,,,,,,,,,,,,,,,,,,,,,,,,,,,,,,,,,,,,,,,,,,,,,,,,,,,,,,1426.4693435179997,None,1426.4693435179997,None,1426.4693435179997,None,m,1,1.1285964529997727,1428.0191749349997,None,1428.0191749349997,None,1428.0191749349997,None,1429.2191914449995,None,1429.2191914449995,None,1429.2191914449995,None,1429.2191914449995,None,,,,,,,,,,,,,,,,,,,,,,,,,,,,,,,,,,,,,,,,,,,,001,163,2020_Feb_25_1043,spring_faces,3.1.5,60.01039560097843,
condition files/Stage1_2.xlsx,,B4,T3,c,"['c', 'm']","['Clue', 'Monopoly']","[-0.15, 0.5]","[0.15, 0.5]",1,1,,,,,,,,,0,9,9,9,0,1,1,5,,,,,,,,,,,,,,,,,,,,,,,,,,,,,,,,,,,,,,,,,,,,,,,,,,,,,,,1431.1690264659992,None,1431.1690264659992,None,1431.1690264659992,None,c,1,2.0114520440001797,1432.7045787959996,None,1432.7045787959996,None,1432.7045787959996,None,1434.7710351409987,None,1434.7710351409987,None,1434.7710351409987,None,1434.7710351409987,None,,,,,,,,,,,,,,,,,,,,,,,,,,,,,,,,,,,,,,,,,,,,001,163,2020_Feb_25_1043,spring_faces,3.1.5,60.01039560097843,
condition files/Stage1_2.xlsx,,T1,B2,m,"['c', 'm']","['Clue', 'Monopoly']","[-0.15, 0.5]","[0.15, 0.5]",1,1,,,,,,,,,0,9,9,9,0,2,2,2,,,,,,,,,,,,,,,,,,,,,,,,,,,,,,,,,,,,,,,,,,,,,,,,,,,,,,,1436.7357869979987,None,1436.7357869979987,None,1436.7357869979987,None,m,1,1.2602064259990584,1438.2715772819993,None,1438.2715772819993,None,1438.2715772819993,None,1439.5879119269994,None,1439.5879119269994,None,1439.5879119269994,None,1439.5879119269994,None,,,,,,,,,,,,,,,,,,,,,,,,,,,,,,,,,,,,,,,,,,,,001,163,2020_Feb_25_1043,spring_faces,3.1.5,60.01039560097843,
condition files/Stage1_2.xlsx,,B2,T2,m,"['c', 'm']","['Clue', 'Monopoly']","[-0.15, 0.5]","[0.15, 0.5]",1,1,,,,,,,,,0,9,9,9,0,3,3,3,,,,,,,,,,,,,,,,,,,,,,,,,,,,,,,,,,,,,,,,,,,,,,,,,,,,,,,1441.5524536960002,None,1441.5524536960002,None,1441.5524536960002,None,m,1,3.7738739579999674,1443.0860040159987,None,1443.0860040159987,None,1443.0860040159987,None,1446.9189255509991,None,1446.9189255509991,None,1446.9189255509991,None,1446.9189255509991,None,,,,,,,,,,,,,,,,,,,,,,,,,,,,,,,,,,,,,,,,,,,,001,163,2020_Feb_25_1043,spring_faces,3.1.5,60.01039560097843,
condition files/Stage1_2.xlsx,,T2,B1,c,"['c', 'm']","['Clue', 'Monopoly']","[-0.15, 0.5]","[0.15, 0.5]",1,1,,,,,,,,,0,9,9,9,0,4,4,1,,,,,,,,,,,,,,,,,,,,,,,,,,,,,,,,,,,,,,,,,,,,,,,,,,,,,,,1448.8858060599996,None,1448.8858060599996,None,1448.8858060599996,None,c,1,1.030651951999971,1450.4211516119994,None,1450.4211516119994,None,1450.4211516119994,None,1451.5046692239994,None,1451.5046692239994,None,1451.5046692239994,None,1451.5046692239994,None,,,,,,,,,,,,,,,,,,,,,,,,,,,,,,,,,,,,,,,,,,,,001,163,2020_Feb_25_1043,spring_faces,3.1.5,60.01039560097843,
condition files/Stage1_2.xlsx,,T3,B3,c,"['c', 'm']","['Clue', 'Monopoly']","[-0.15, 0.5]","[0.15, 0.5]",1,1,,,,,,,,,0,9,9,9,0,5,5,4,,,,,,,,,,,,,,,,,,,,,,,,,,,,,,,,,,,,,,,,,,,,,,,,,,,,,,,1453.4686282959992,None,1453.4686282959992,None,1453.4686282959992,None,c,1,0.9287800420006533,1455.0030374010003,None,1455.0030374010003,None,1455.0030374010003,None,1455.985241937,None,1455.985241937,None,1455.985241937,None,1455.985241937,None,,,,,,,,,,,,,,,,,,,,,,,,,,,,,,,,,,,,,,,,,,,,001,163,2020_Feb_25_1043,spring_faces,3.1.5,60.01039560097843,
condition files/Stage1_2.xlsx,,T4,B4,m,"['c', 'm']","['Clue', 'Monopoly']","[-0.15, 0.5]","[0.15, 0.5]",1,1,,,,,,,,,0,9,9,9,0,6,6,7,,,,,,,,,,,,,,,,,,,,,,,,,,,,,,,,,,,,,,,,,,,,,,,,,,,,,,,1457.9526371479988,None,1457.9526371479988,None,1457.9526371479988,None,m,1,0.988568952998321,1459.4873016130005,None,1459.4873016130005,None,1459.4873016130005,None,1460.5519870909993,None,1460.5519870909993,None,1460.5519870909993,None,1460.5519870909993,None,,,,,,,,,,,,,,,,,,,,,,,,,,,,,,,,,,,,,,,,,,,,001,163,2020_Feb_25_1043,spring_faces,3.1.5,60.01039560097843,
condition files/Stage1_2.xlsx,,B1,T1,c,"['c', 'm']","['Clue', 'Monopoly']","[-0.15, 0.5]","[0.15, 0.5]",1,1,,,,,,,,,0,9,9,9,0,7,7,0,,,,,,,,,,,,,,,,,,,,,,,,,,,,,,,,,,,,,,,,,,,,,,,,,,,,,,,1462.5026329979992,None,1462.5026329979992,None,1462.5026329979992,None,m,0,1.5442624099996465,1464.03563131,None,1464.03563131,None,1464.03563131,None,1465.6354203619994,None,1465.6354203619994,None,1465.6354203619994,None,1465.6354203619994,None,,,,,,,,,,,,,,,,,,,,,,,,,,,,,,,,,,,,,,,,,,,,001,163,2020_Feb_25_1043,spring_faces,3.1.5,60.01039560097843,
condition files/Stage1_1.xlsx,,B3,T3,c,"['c', 'm']","['Clue', 'Monopoly']","[-0.15, 0.5]","[0.15, 0.5]",1,1,,,,,,,,,0,10,10,10,0,0,0,4,,,,,,,,,,,,,,,,,,,,,,,,,,,,,,,,,,,,,,,,,,,,,,,,,,,,,,,1467.6191800249999,None,1467.6191800249999,None,1467.6191800249999,None,c,1,0.6031875039989245,1469.1526280399994,None,1469.1526280399994,None,1469.1526280399994,None,1469.8189764689996,None,1469.8189764689996,None,1469.8189764689996,None,1469.8189764689996,None,,,,,,,,,,,,,,,,,,,,,,,,,,,,,,,,,,,,,,,,,,,,001,163,2020_Feb_25_1043,spring_faces,3.1.5,60.01039560097843,
condition files/Stage1_1.xlsx,,T4,B3,m,"['c', 'm']","['Clue', 'Monopoly']","[-0.15, 0.5]","[0.15, 0.5]",1,1,,,,,,,,,0,10,10,10,0,1,1,6,,,,,,,,,,,,,,,,,,,,,,,,,,,,,,,,,,,,,,,,,,,,,,,,,,,,,,,1471.785701671999,None,1471.785701671999,None,1471.785701671999,None,m,1,0.7574239329987904,1473.318457882,None,1473.318457882,None,1473.318457882,None,1474.1362251589999,None,1474.1362251589999,None,1474.1362251589999,None,1474.1362251589999,None,,,,,,,,,,,,,,,,,,,,,,,,,,,,,,,,,,,,,,,,,,,,001,163,2020_Feb_25_1043,spring_faces,3.1.5,60.01039560097843,
condition files/Stage1_1.xlsx,,B4,T4,m,"['c', 'm']","['Clue', 'Monopoly']","[-0.15, 0.5]","[0.15, 0.5]",1,1,,,,,,,,,0,10,10,10,0,2,2,7,,,,,,,,,,,,,,,,,,,,,,,,,,,,,,,,,,,,,,,,,,,,,,,,,,,,,,,1476.102358398999,None,1476.102358398999,None,1476.102358398999,None,m,1,1.1743197539999528,1477.637541393,None,1477.637541393,None,1477.637541393,None,1478.8692947130003,None,1478.8692947130003,None,1478.8692947130003,None,1478.8692947130003,None,,,,,,,,,,,,,,,,,,,,,,,,,,,,,,,,,,,,,,,,,,,,001,163,2020_Feb_25_1043,spring_faces,3.1.5,60.01039560097843,
condition files/Stage1_1.xlsx,,T3,B4,c,"['c', 'm']","['Clue', 'Monopoly']","[-0.15, 0.5]","[0.15, 0.5]",1,1,,,,,,,,,0,10,10,10,0,3,3,5,,,,,,,,,,,,,,,,,,,,,,,,,,,,,,,,,,,,,,,,,,,,,,,,,,,,,,,1480.8357371809998,None,1480.8357371809998,None,1480.8357371809998,None,c,1,1.3860662990009587,1482.369745348,None,1482.369745348,None,1482.369745348,None,1483.8216391329988,None,1483.8216391329988,None,1483.8216391329988,None,1483.8216391329988,None,,,,,,,,,,,,,,,,,,,,,,,,,,,,,,,,,,,,,,,,,,,,001,163,2020_Feb_25_1043,spring_faces,3.1.5,60.01039560097843,
condition files/Stage1_1.xlsx,,T2,B2,m,"['c', 'm']","['Clue', 'Monopoly']","[-0.15, 0.5]","[0.15, 0.5]",1,1,,,,,,,,,0,10,10,10,0,4,4,3,,,,,,,,,,,,,,,,,,,,,,,,,,,,,,,,,,,,,,,,,,,,,,,,,,,,,,,1485.7854433989996,None,1485.7854433989996,None,1485.7854433989996,None,m,1,4.531941231000019,1487.3358447259998,None,1487.3358447259998,None,1487.3358447259998,None,1491.92054714,None,1491.92054714,None,1491.92054714,None,1491.92054714,None,,,,,,,,,,,,,,,,,,,,,,,,,,,,,,,,,,,,,,,,,,,,001,163,2020_Feb_25_1043,spring_faces,3.1.5,60.01039560097843,
condition files/Stage1_1.xlsx,,B2,T1,m,"['c', 'm']","['Clue', 'Monopoly']","[-0.15, 0.5]","[0.15, 0.5]",1,1,,,,,,,,,0,10,10,10,0,5,5,2,,,,,,,,,,,,,,,,,,,,,,,,,,,,,,,,,,,,,,,,,,,,,,,,,,,,,,,1493.885841661,None,1493.885841661,None,1493.885841661,None,m,1,1.4566972390002775,1495.4191828349994,None,1495.4191828349994,None,1495.4191828349994,None,1496.935764284999,None,1496.935764284999,None,1496.935764284999,None,1496.935764284999,None,,,,,,,,,,,,,,,,,,,,,,,,,,,,,,,,,,,,,,,,,,,,001,163,2020_Feb_25_1043,spring_faces,3.1.5,60.01039560097843,
condition files/Stage1_1.xlsx,,B1,T2,c,"['c', 'm']","['Clue', 'Monopoly']","[-0.15, 0.5]","[0.15, 0.5]",1,1,,,,,,,,,0,10,10,10,0,6,6,1,,,,,,,,,,,,,,,,,,,,,,,,,,,,,,,,,,,,,,,,,,,,,,,,,,,,,,,1498.9024138739987,None,1498.9024138739987,None,1498.9024138739987,None,c,1,2.136070759001086,1500.4357311169988,None,1500.4357311169988,None,1500.4357311169988,None,1502.6528543240001,None,1502.6528543240001,None,1502.6528543240001,None,1502.6528543240001,None,,,,,,,,,,,,,,,,,,,,,,,,,,,,,,,,,,,,,,,,,,,,001,163,2020_Feb_25_1043,spring_faces,3.1.5,60.01039560097843,
condition files/Stage1_1.xlsx,,T1,B1,c,"['c', 'm']","['Clue', 'Monopoly']","[-0.15, 0.5]","[0.15, 0.5]",1,1,,,,,,,,,0,10,10,10,0,7,7,0,,,,,,,,,,,,,,,,,,,,,,,,,,,,,,,,,,,,,,,,,,,,,,,,,,,,,,,1504.6023729589997,None,1504.6023729589997,None,1504.6023729589997,None,c,1,3.604242658999283,1506.1355636529988,None,1506.1355636529988,None,1506.1355636529988,None,1509.8026031549998,None,1509.8026031549998,None,1509.8026031549998,None,1509.8026031549998,None,,,,,,,,,,,,,,,,,,,,,,,,,,,,,,,,,,,,,,,,,,,,001,163,2020_Feb_25_1043,spring_faces,3.1.5,60.01039560097843,
condition files/Stage1_2.xlsx,,B4,T3,c,"['c', 'm']","['Clue', 'Monopoly']","[-0.15, 0.5]","[0.15, 0.5]",1,1,,,,,,,,,0,11,11,11,0,0,0,5,,,,,,,,,,,,,,,,,,,,,,,,,,,,,,,,,,,,,,,,,,,,,,,,,,,,,,,1511.7859497459995,None,1511.7859497459995,None,1511.7859497459995,None,c,1,0.948397305999606,1513.3194163919998,None,1513.3194163919998,None,1513.3194163919998,None,1514.3187347740004,None,1514.3187347740004,None,1514.3187347740004,None,1514.3187347740004,None,,,,,,,,,,,,,,,,,,,,,,,,,,,,,,,,,,,,,,,,,,,,001,163,2020_Feb_25_1043,spring_faces,3.1.5,60.01039560097843,
condition files/Stage1_2.xlsx,,T1,B2,m,"['c', 'm']","['Clue', 'Monopoly']","[-0.15, 0.5]","[0.15, 0.5]",1,1,,,,,,,,,0,11,11,11,0,1,1,2,,,,,,,,,,,,,,,,,,,,,,,,,,,,,,,,,,,,,,,,,,,,,,,,,,,,,,,1516.2857383629998,None,1516.2857383629998,None,1516.2857383629998,None,m,1,1.3771634080003423,1517.8186927299994,None,1517.8186927299994,None,1517.8186927299994,None,1519.2521688260003,None,1519.2521688260003,None,1519.2521688260003,None,1519.2521688260003,None,,,,,,,,,,,,,,,,,,,,,,,,,,,,,,,,,,,,,,,,,,,,001,163,2020_Feb_25_1043,spring_faces,3.1.5,60.01039560097843,
condition files/Stage1_2.xlsx,,B2,T2,m,"['c', 'm']","['Clue', 'Monopoly']","[-0.15, 0.5]","[0.15, 0.5]",1,1,,,,,,,,,0,11,11,11,0,2,2,3,,,,,,,,,,,,,,,,,,,,,,,,,,,,,,,,,,,,,,,,,,,,,,,,,,,,,,,1521.218733013,None,1521.218733013,None,1521.218733013,None,m,1,2.8424064609989728,1522.7534666350002,None,1522.7534666350002,None,1522.7534666350002,None,1525.652867413999,None,1525.652867413999,None,1525.652867413999,None,1525.652867413999,None,,,,,,,,,,,,,,,,,,,,,,,,,,,,,,,,,,,,,,,,,,,,001,163,2020_Feb_25_1043,spring_faces,3.1.5,60.01039560097843,
condition files/Stage1_2.xlsx,,T3,B3,c,"['c', 'm']","['Clue', 'Monopoly']","[-0.15, 0.5]","[0.15, 0.5]",1,1,,,,,,,,,0,11,11,11,0,3,3,4,,,,,,,,,,,,,,,,,,,,,,,,,,,,,,,,,,,,,,,,,,,,,,,,,,,,,,,1527.6190993540004,None,1527.6190993540004,None,1527.6190993540004,None,c,1,0.6983451760006574,1529.1534596949987,None,1529.1534596949987,None,1529.1534596949987,None,1529.9190145390003,None,1529.9190145390003,None,1529.9190145390003,None,1529.9190145390003,None,,,,,,,,,,,,,,,,,,,,,,,,,,,,,,,,,,,,,,,,,,,,001,163,2020_Feb_25_1043,spring_faces,3.1.5,60.01039560097843,
condition files/Stage1_2.xlsx,,T2,B1,c,"['c', 'm']","['Clue', 'Monopoly']","[-0.15, 0.5]","[0.15, 0.5]",1,1,,,,,,,,,0,11,11,11,0,4,4,1,,,,,,,,,,,,,,,,,,,,,,,,,,,,,,,,,,,,,,,,,,,,,,,,,,,,,,,1531.8692371649995,None,1531.8692371649995,None,1531.8692371649995,None,m,0,3.1351970810010243,1533.4046162799987,None,1533.4046162799987,None,1533.4046162799987,None,1536.6026403039996,None,1536.6026403039996,None,1536.6026403039996,None,1536.6026403039996,None,,,,,,,,,,,,,,,,,,,,,,,,,,,,,,,,,,,,,,,,,,,,001,163,2020_Feb_25_1043,spring_faces,3.1.5,60.01039560097843,
condition files/Stage1_2.xlsx,,B3,T4,m,"['c', 'm']","['Clue', 'Monopoly']","[-0.15, 0.5]","[0.15, 0.5]",1,1,,,,,,,,,0,11,11,11,0,5,5,6,,,,,,,,,,,,,,,,,,,,,,,,,,,,,,,,,,,,,,,,,,,,,,,,,,,,,,,1538.5691334439998,None,1538.5691334439998,None,1538.5691334439998,None,m,1,1.3329357339989656,1540.102873890999,None,1540.102873890999,None,1540.102873890999,None,1541.4875321639993,None,1541.4875321639993,None,1541.4875321639993,None,1541.4875321639993,None,,,,,,,,,,,,,,,,,,,,,,,,,,,,,,,,,,,,,,,,,,,,001,163,2020_Feb_25_1043,spring_faces,3.1.5,60.01039560097843,
condition files/Stage1_2.xlsx,,T4,B4,m,"['c', 'm']","['Clue', 'Monopoly']","[-0.15, 0.5]","[0.15, 0.5]",1,1,,,,,,,,,0,11,11,11,0,6,6,7,,,,,,,,,,,,,,,,,,,,,,,,,,,,,,,,,,,,,,,,,,,,,,,,,,,,,,,1543.4523884999999,None,1543.4523884999999,None,1543.4523884999999,None,m,1,1.9199088740006118,1544.9878809989987,None,1544.9878809989987,None,1544.9878809989987,None,1546.9690420819989,None,1546.9690420819989,None,1546.9690420819989,None,1546.9690420819989,None,,,,,,,,,,,,,,,,,,,,,,,,,,,,,,,,,,,,,,,,,,,,001,163,2020_Feb_25_1043,spring_faces,3.1.5,60.01039560097843,
condition files/Stage1_2.xlsx,,B1,T1,c,"['c', 'm']","['Clue', 'Monopoly']","[-0.15, 0.5]","[0.15, 0.5]",1,1,,,,,,,,,0,11,11,11,0,7,7,0,,,,,,,,,,,,,,,,,,,,,,,,,,,,,,,,,,,,,,,,,,,,,,,,,,,,,,,1548.9356494860003,None,1548.9356494860003,None,1548.9356494860003,None,c,1,4.05500230799953,1550.4688109950002,None,1550.4688109950002,None,1550.4688109950002,None,1554.602623065999,None,1554.602623065999,None,1554.602623065999,None,1554.602623065999,None,,,,,,,,,,,,,,,,,,,,,,,,,,,,,,,,,,,,,,,,,,,,001,163,2020_Feb_25_1043,spring_faces,3.1.5,60.01039560097843,
,,,,,,,,,,,,,,,,,,,,,,,,,,,,,,,,,,,,,,,,,,,,,,,,,,,,,,,,,,,,,,,,,,,,,,,,,,,,,,,,,,,,,,,,,,,,,,,,,,,,,,,,,,,,,,,,1556.56921883,None,space,2.8426127809998434,1561.5692842669996,None,,,,,,,,,,,,,,,,,,,,,,,,,,,,,,001,163,2020_Feb_25_1043,spring_faces,3.1.5,60.01039560097843,
condition files/Stage2_1.xlsx,,B6,T6,r,"['s', 'r']","['Stratego', 'Risk']","[-0.15, 0.5]","[0.15, 0.5]",1,1,,,,,,,,,,,,,,,,,0,0,0,0,0,0,0,1,,,,,,,,,,,,,,,,,,,,,,,,,,,,,,,,,,,,,,,,,,,,,,,1564.4686520699997,None,1564.4686520699997,None,1564.4686520699997,None,s,0,1.2426863399996364,1565.9692265659996,None,1565.9692265659996,None,1565.9692265659996,None,1567.268770827999,None,1567.268770827999,None,1567.268770827999,None,1567.268770827999,None,,,,,,,,,,,,,,,1561.5692842669996,None,,,,,,,,,,,,,,,,,,,,,,,,,,,,001,163,2020_Feb_25_1043,spring_faces,3.1.5,60.01039560097843,
condition files/Stage2_1.xlsx,,T5,B5,s,"['s', 'r']","['Stratego', 'Risk']","[-0.15, 0.5]","[0.15, 0.5]",1,1,,,,,,,,,,,,,,,,,0,0,0,0,0,1,1,0,,,,,,,,,,,,,,,,,,,,,,,,,,,,,,,,,,,,,,,,,,,,,,,1569.235721178,None,1569.235721178,None,1569.235721178,None,s,1,0.8732458700014831,1570.8186394799995,None,1570.8186394799995,None,1570.8186394799995,None,1571.752495843999,None,1571.752495843999,None,1571.752495843999,None,1571.752495843999,None,,,,,,,,,,,,,,,,,,,,,,,,,,,,,,,,,,,,,,,,,,,,001,163,2020_Feb_25_1043,spring_faces,3.1.5,60.01039560097843,
condition files/Stage2_1.xlsx,,T3,B3,s,"['s', 'r']","['Stratego', 'Risk']","[-0.15, 0.5]","[0.15, 0.5]",1,1,,,,,,,,,,,,,,,,,0,0,0,0,0,2,2,4,,,,,,,,,,,,,,,,,,,,,,,,,,,,,,,,,,,,,,,,,,,,,,,1573.7190026299995,None,1573.7190026299995,None,1573.7190026299995,None,s,1,2.039476019999711,1575.2523368729999,None,1575.2523368729999,None,1575.2523368729999,None,1577.3527746889995,None,1577.3527746889995,None,1577.3527746889995,None,1577.3527746889995,None,,,,,,,,,,,,,,,,,,,,,,,,,,,,,,,,,,,,,,,,,,,,001,163,2020_Feb_25_1043,spring_faces,3.1.5,60.01039560097843,
condition files/Stage2_1.xlsx,,B4,T4,r,"['s', 'r']","['Stratego', 'Risk']","[-0.15, 0.5]","[0.15, 0.5]",1,1,,,,,,,,,,,,,,,,,0,0,0,0,0,3,3,5,,,,,,,,,,,,,,,,,,,,,,,,,,,,,,,,,,,,,,,,,,,,,,,1579.3190088499996,None,1579.3190088499996,None,1579.3190088499996,None,r,1,1.111469389001286,1580.852318207999,None,1580.852318207999,None,1580.852318207999,None,1582.019283448999,None,1582.019283448999,None,1582.019283448999,None,1582.019283448999,None,,,,,,,,,,,,,,,,,,,,,,,,,,,,,,,,,,,,,,,,,,,,001,163,2020_Feb_25_1043,spring_faces,3.1.5,60.01039560097843,
condition files/Stage2_1.xlsx,,B2,T2,r,"['s', 'r']","['Stratego', 'Risk']","[-0.15, 0.5]","[0.15, 0.5]",1,1,,,,,,,,,,,,,,,,,0,0,0,0,0,4,4,3,,,,,,,,,,,,,,,,,,,,,,,,,,,,,,,,,,,,,,,,,,,,,,,1583.9857560349992,None,1583.9857560349992,None,1583.9857560349992,None,s,0,1.3724747910000588,1585.51933413,None,1585.51933413,None,1585.51933413,None,1586.9523300250003,None,1586.9523300250003,None,1586.9523300250003,None,1586.9523300250003,None,,,,,,,,,,,,,,,,,,,,,,,,,,,,,,,,,,,,,,,,,,,,001,163,2020_Feb_25_1043,spring_faces,3.1.5,60.01039560097843,
condition files/Stage2_1.xlsx,,T1,B1,s,"['s', 'r']","['Stratego', 'Risk']","[-0.15, 0.5]","[0.15, 0.5]",1,1,,,,,,,,,,,,,,,,,0,0,0,0,0,5,5,2,,,,,,,,,,,,,,,,,,,,,,,,,,,,,,,,,,,,,,,,,,,,,,,1588.9191156609995,None,1588.9191156609995,None,1588.9191156609995,None,s,1,0.9033263820001594,1590.452489035999,None,1590.452489035999,None,1590.452489035999,None,1591.42174935,None,1591.42174935,None,1591.42174935,None,1591.42174935,None,,,,,,,,,,,,,,,,,,,,,,,,,,,,,,,,,,,,,,,,,,,,001,163,2020_Feb_25_1043,spring_faces,3.1.5,60.01039560097843,
condition files/Stage2_2.xlsx,,T6,B6,r,"['s', 'r']","['Stratego', 'Risk']","[-0.15, 0.5]","[0.15, 0.5]",1,1,,,,,,,,,,,,,,,,,0,1,1,1,0,0,0,1,,,,,,,,,,,,,,,,,,,,,,,,,,,,,,,,,,,,,,,,,,,,,,,1593.4021635930003,None,1593.4021635930003,None,1593.4021635930003,None,r,1,1.2043979120007862,1594.919417834999,None,1594.919417834999,None,1594.919417834999,None,1596.2021847729993,None,1596.2021847729993,None,1596.2021847729993,None,1596.2021847729993,None,,,,,,,,,,,,,,,,,,,,,,,,,,,,,,,,,,,,,,,,,,,,001,163,2020_Feb_25_1043,spring_faces,3.1.5,60.01039560097843,
condition files/Stage2_2.xlsx,,B1,T1,s,"['s', 'r']","['Stratego', 'Risk']","[-0.15, 0.5]","[0.15, 0.5]",1,1,,,,,,,,,,,,,,,,,0,1,1,1,0,1,1,2,,,,,,,,,,,,,,,,,,,,,,,,,,,,,,,,,,,,,,,,,,,,,,,1598.1523856139993,None,1598.1523856139993,None,1598.1523856139993,None,r,0,1.5889297280009487,1599.686948994,None,1599.686948994,None,1599.686948994,None,1601.334945945,None,1601.334945945,None,1601.334945945,None,1601.334945945,None,,,,,,,,,,,,,,,,,,,,,,,,,,,,,,,,,,,,,,,,,,,,001,163,2020_Feb_25_1043,spring_faces,3.1.5,60.01039560097843,
condition files/Stage2_2.xlsx,,T4,B4,r,"['s', 'r']","['Stratego', 'Risk']","[-0.15, 0.5]","[0.15, 0.5]",1,1,,,,,,,,,,,,,,,,,0,1,1,1,0,2,2,5,,,,,,,,,,,,,,,,,,,,,,,,,,,,,,,,,,,,,,,,,,,,,,,1603.3026261619998,None,1603.3026261619998,None,1603.3026261619998,None,r,1,1.607938989000104,1604.835943431999,None,1604.835943431999,None,1604.835943431999,None,1606.5050254139987,None,1606.5050254139987,None,1606.5050254139987,None,1606.5050254139987,None,,,,,,,,,,,,,,,,,,,,,,,,,,,,,,,,,,,,,,,,,,,,001,163,2020_Feb_25_1043,spring_faces,3.1.5,60.01039560097843,
condition files/Stage2_2.xlsx,,B3,T3,s,"['s', 'r']","['Stratego', 'Risk']","[-0.15, 0.5]","[0.15, 0.5]",1,1,,,,,,,,,,,,,,,,,0,1,1,1,0,3,3,4,,,,,,,,,,,,,,,,,,,,,,,,,,,,,,,,,,,,,,,,,,,,,,,1608.4692801290003,None,1608.4692801290003,None,1608.4692801290003,None,s,1,0.6809457270010171,1610.0028630099987,None,1610.0028630099987,None,1610.0028630099987,None,1610.7379231529994,None,1610.7379231529994,None,1610.7379231529994,None,1610.7379231529994,None,,,,,,,,,,,,,,,,,,,,,,,,,,,,,,,,,,,,,,,,,,,,001,163,2020_Feb_25_1043,spring_faces,3.1.5,60.01039560097843,
condition files/Stage2_2.xlsx,,B5,T5,s,"['s', 'r']","['Stratego', 'Risk']","[-0.15, 0.5]","[0.15, 0.5]",1,1,,,,,,,,,,,,,,,,,0,1,1,1,0,4,4,0,,,,,,,,,,,,,,,,,,,,,,,,,,,,,,,,,,,,,,,,,,,,,,,1612.7024855290001,None,1612.7024855290001,None,1612.7024855290001,None,s,1,3.039944206000655,1614.2359295229999,None,1614.2359295229999,None,1614.2359295229999,None,1617.3354801869991,None,1617.3354801869991,None,1617.3354801869991,None,1617.3354801869991,None,,,,,,,,,,,,,,,,,,,,,,,,,,,,,,,,,,,,,,,,,,,,001,163,2020_Feb_25_1043,spring_faces,3.1.5,60.01039560097843,
condition files/Stage2_2.xlsx,,T2,B2,r,"['s', 'r']","['Stratego', 'Risk']","[-0.15, 0.5]","[0.15, 0.5]",1,1,,,,,,,,,,,,,,,,,0,1,1,1,0,5,5,3,,,,,,,,,,,,,,,,,,,,,,,,,,,,,,,,,,,,,,,,,,,,,,,1619.3020288520001,None,1619.3020288520001,None,1619.3020288520001,None,r,1,3.189959461999024,1620.837926536,None,1620.837926536,None,1620.837926536,None,1624.0872980519998,None,1624.0872980519998,None,1624.0872980519998,None,1624.0872980519998,None,,,,,,,,,,,,,,,,,,,,,,,,,,,,,,,,,,,,,,,,,,,,001,163,2020_Feb_25_1043,spring_faces,3.1.5,60.01039560097843,
condition files/Stage2_1.xlsx,,T3,B3,s,"['s', 'r']","['Stratego', 'Risk']","[-0.15, 0.5]","[0.15, 0.5]",1,1,,,,,,,,,,,,,,,,,0,2,2,2,0,0,0,4,,,,,,,,,,,,,,,,,,,,,,,,,,,,,,,,,,,,,,,,,,,,,,,1626.0688671560001,None,1626.0688671560001,None,1626.0688671560001,None,s,1,0.7448769160000666,1627.602891466,None,1627.602891466,None,1627.602891466,None,1628.404083247,None,1628.404083247,None,1628.404083247,None,1628.404083247,None,,,,,,,,,,,,,,,,,,,,,,,,,,,,,,,,,,,,,,,,,,,,001,163,2020_Feb_25_1043,spring_faces,3.1.5,60.01039560097843,
condition files/Stage2_1.xlsx,,T5,B5,s,"['s', 'r']","['Stratego', 'Risk']","[-0.15, 0.5]","[0.15, 0.5]",1,1,,,,,,,,,,,,,,,,,0,2,2,2,0,1,1,0,,,,,,,,,,,,,,,,,,,,,,,,,,,,,,,,,,,,,,,,,,,,,,,1630.3691437839989,None,1630.3691437839989,None,1630.3691437839989,None,s,1,1.99545324599967,1631.9043500070002,None,1631.9043500070002,None,1631.9043500070002,None,1633.9530461049999,None,1633.9530461049999,None,1633.9530461049999,None,1633.9530461049999,None,,,,,,,,,,,,,,,,,,,,,,,,,,,,,,,,,,,,,,,,,,,,001,163,2020_Feb_25_1043,spring_faces,3.1.5,60.01039560097843,
condition files/Stage2_1.xlsx,,T1,B1,s,"['s', 'r']","['Stratego', 'Risk']","[-0.15, 0.5]","[0.15, 0.5]",1,1,,,,,,,,,,,,,,,,,0,2,2,2,0,2,2,2,,,,,,,,,,,,,,,,,,,,,,,,,,,,,,,,,,,,,,,,,,,,,,,1635.919032979,None,1635.919032979,None,1635.919032979,None,r,0,1.5665704050006752,1637.4532011849988,None,1637.4532011849988,None,1637.4532011849988,None,1639.0689353079997,None,1639.0689353079997,None,1639.0689353079997,None,1639.0689353079997,None,,,,,,,,,,,,,,,,,,,,,,,,,,,,,,,,,,,,,,,,,,,,001,163,2020_Feb_25_1043,spring_faces,3.1.5,60.01039560097843,
condition files/Stage2_1.xlsx,,B2,T2,r,"['s', 'r']","['Stratego', 'Risk']","[-0.15, 0.5]","[0.15, 0.5]",1,1,,,,,,,,,,,,,,,,,0,2,2,2,0,3,3,3,,,,,,,,,,,,,,,,,,,,,,,,,,,,,,,,,,,,,,,,,,,,,,,1641.0354445619996,None,1641.0354445619996,None,1641.0354445619996,None,s,0,3.1856661759993585,1642.5701478279989,None,1642.5701478279989,None,1642.5701478279989,None,1645.8201611699988,None,1645.8201611699988,None,1645.8201611699988,None,1645.8201611699988,None,,,,,,,,,,,,,,,,,,,,,,,,,,,,,,,,,,,,,,,,,,,,001,163,2020_Feb_25_1043,spring_faces,3.1.5,60.01039560097843,
condition files/Stage2_1.xlsx,,B4,T4,r,"['s', 'r']","['Stratego', 'Risk']","[-0.15, 0.5]","[0.15, 0.5]",1,1,,,,,,,,,,,,,,,,,0,2,2,2,0,4,4,5,,,,,,,,,,,,,,,,,,,,,,,,,,,,,,,,,,,,,,,,,,,,,,,1647.7857801600003,None,1647.7857801600003,None,1647.7857801600003,None,r,1,1.3167894179987343,1649.3190119419996,None,1649.3190119419996,None,1649.3190119419996,None,1650.6853252229994,None,1650.6853252229994,None,1650.6853252229994,None,1650.6853252229994,None,,,,,,,,,,,,,,,,,,,,,,,,,,,,,,,,,,,,,,,,,,,,001,163,2020_Feb_25_1043,spring_faces,3.1.5,60.01039560097843,
condition files/Stage2_1.xlsx,,B6,T6,r,"['s', 'r']","['Stratego', 'Risk']","[-0.15, 0.5]","[0.15, 0.5]",1,1,,,,,,,,,,,,,,,,,0,2,2,2,0,5,5,1,,,,,,,,,,,,,,,,,,,,,,,,,,,,,,,,,,,,,,,,,,,,,,,1652.6525382719992,None,1652.6525382719992,None,1652.6525382719992,None,s,0,1.233670956999049,1654.1860895909995,None,1654.1860895909995,None,1654.1860895909995,None,1655.4858078329999,None,1655.4858078329999,None,1655.4858078329999,None,1655.4858078329999,None,,,,,,,,,,,,,,,,,,,,,,,,,,,,,,,,,,,,,,,,,,,,001,163,2020_Feb_25_1043,spring_faces,3.1.5,60.01039560097843,
condition files/Stage2_2.xlsx,,B5,T5,s,"['s', 'r']","['Stratego', 'Risk']","[-0.15, 0.5]","[0.15, 0.5]",1,1,,,,,,,,,,,,,,,,,0,3,3,3,0,0,0,0,,,,,,,,,,,,,,,,,,,,,,,,,,,,,,,,,,,,,,,,,,,,,,,1657.4690341679998,None,1657.4690341679998,None,1657.4690341679998,None,s,1,1.7284912380000605,1659.019275405999,None,1659.019275405999,None,1659.019275405999,None,1660.8028097419992,None,1660.8028097419992,None,1660.8028097419992,None,1660.8028097419992,None,,,,,,,,,,,,,,,,,,,,,,,,,,,,,,,,,,,,,,,,,,,,001,163,2020_Feb_25_1043,spring_faces,3.1.5,60.01039560097843,
condition files/Stage2_2.xlsx,,T6,B6,r,"['s', 'r']","['Stratego', 'Risk']","[-0.15, 0.5]","[0.15, 0.5]",1,1,,,,,,,,,,,,,,,,,0,3,3,3,0,1,1,1,,,,,,,,,,,,,,,,,,,,,,,,,,,,,,,,,,,,,,,,,,,,,,,1662.7690775579995,None,1662.7690775579995,None,1662.7690775579995,None,s,0,1.3240603750000446,1664.3038092539991,None,1664.3038092539991,None,1664.3038092539991,None,1665.6867586619992,None,1665.6867586619992,None,1665.6867586619992,None,1665.6867586619992,None,,,,,,,,,,,,,,,,,,,,,,,,,,,,,,,,,,,,,,,,,,,,001,163,2020_Feb_25_1043,spring_faces,3.1.5,60.01039560097843,
condition files/Stage2_2.xlsx,,B1,T1,s,"['s', 'r']","['Stratego', 'Risk']","[-0.15, 0.5]","[0.15, 0.5]",1,1,,,,,,,,,,,,,,,,,0,3,3,3,0,2,2,2,,,,,,,,,,,,,,,,,,,,,,,,,,,,,,,,,,,,,,,,,,,,,,,1667.6524101409996,None,1667.6524101409996,None,1667.6524101409996,None,s,1,1.2102308229987102,1669.1856021559997,None,1669.1856021559997,None,1669.1856021559997,None,1670.4545518389987,None,1670.4545518389987,None,1670.4545518389987,None,1670.4545518389987,None,,,,,,,,,,,,,,,,,,,,,,,,,,,,,,,,,,,,,,,,,,,,001,163,2020_Feb_25_1043,spring_faces,3.1.5,60.01039560097843,
condition files/Stage2_2.xlsx,,B3,T3,s,"['s', 'r']","['Stratego', 'Risk']","[-0.15, 0.5]","[0.15, 0.5]",1,1,,,,,,,,,,,,,,,,,0,3,3,3,0,3,3,4,,,,,,,,,,,,,,,,,,,,,,,,,,,,,,,,,,,,,,,,,,,,,,,1672.4189545190002,None,1672.4189545190002,None,1672.4189545190002,None,s,1,0.6348764240010496,1673.9528803209996,None,1673.9528803209996,None,1673.9528803209996,None,1674.652431089,None,1674.652431089,None,1674.652431089,None,1674.652431089,None,,,,,,,,,,,,,,,,,,,,,,,,,,,,,,,,,,,,,,,,,,,,001,163,2020_Feb_25_1043,spring_faces,3.1.5,60.01039560097843,
condition files/Stage2_2.xlsx,,T4,B4,r,"['s', 'r']","['Stratego', 'Risk']","[-0.15, 0.5]","[0.15, 0.5]",1,1,,,,,,,,,,,,,,,,,0,3,3,3,0,4,4,5,,,,,,,,,,,,,,,,,,,,,,,,,,,,,,,,,,,,,,,,,,,,,,,1676.6191969680003,None,1676.6191969680003,None,1676.6191969680003,None,r,1,1.4098187500003405,1678.1539489979987,None,1678.1539489979987,None,1678.1539489979987,None,1679.6183214499997,None,1679.6183214499997,None,1679.6183214499997,None,1679.6183214499997,None,,,,,,,,,,,,,,,,,,,,,,,,,,,,,,,,,,,,,,,,,,,,001,163,2020_Feb_25_1043,spring_faces,3.1.5,60.01039560097843,
condition files/Stage2_2.xlsx,,T2,B2,r,"['s', 'r']","['Stratego', 'Risk']","[-0.15, 0.5]","[0.15, 0.5]",1,1,,,,,,,,,,,,,,,,,0,3,3,3,0,5,5,3,,,,,,,,,,,,,,,,,,,,,,,,,,,,,,,,,,,,,,,,,,,,,,,1681.5857705399994,None,1681.5857705399994,None,1681.5857705399994,None,s,0,3.051644455999849,1683.1360915349997,None,1683.1360915349997,None,1683.1360915349997,None,1686.2526255619996,None,1686.2526255619996,None,1686.2526255619996,None,1686.2526255619996,None,,,,,,,,,,,,,,,,,,,,,,,,,,,,,,,,,,,,,,,,,,,,001,163,2020_Feb_25_1043,spring_faces,3.1.5,60.01039560097843,
condition files/Stage2_1.xlsx,,T3,B3,s,"['s', 'r']","['Stratego', 'Risk']","[-0.15, 0.5]","[0.15, 0.5]",1,1,,,,,,,,,,,,,,,,,0,4,4,4,0,0,0,4,,,,,,,,,,,,,,,,,,,,,,,,,,,,,,,,,,,,,,,,,,,,,,,1688.2357454599987,None,1688.2357454599987,None,1688.2357454599987,None,s,1,0.6259645510017435,1689.7859075469987,None,1689.7859075469987,None,1689.7859075469987,None,1690.4712573839988,None,1690.4712573839988,None,1690.4712573839988,None,1690.4712573839988,None,,,,,,,,,,,,,,,,,,,,,,,,,,,,,,,,,,,,,,,,,,,,001,163,2020_Feb_25_1043,spring_faces,3.1.5,60.01039560097843,
condition files/Stage2_1.xlsx,,B6,T6,r,"['s', 'r']","['Stratego', 'Risk']","[-0.15, 0.5]","[0.15, 0.5]",1,1,,,,,,,,,,,,,,,,,0,4,4,4,0,1,1,1,,,,,,,,,,,,,,,,,,,,,,,,,,,,,,,,,,,,,,,,,,,,,,,1692.4354715970003,None,1692.4354715970003,None,1692.4354715970003,None,r,1,1.402086400999906,1693.9697244359995,None,1693.9697244359995,None,1693.9697244359995,None,1695.452453021,None,1695.452453021,None,1695.452453021,None,1695.452453021,None,,,,,,,,,,,,,,,,,,,,,,,,,,,,,,,,,,,,,,,,,,,,001,163,2020_Feb_25_1043,spring_faces,3.1.5,60.01039560097843,
condition files/Stage2_1.xlsx,,B4,T4,r,"['s', 'r']","['Stratego', 'Risk']","[-0.15, 0.5]","[0.15, 0.5]",1,1,,,,,,,,,,,,,,,,,0,4,4,4,0,2,2,5,,,,,,,,,,,,,,,,,,,,,,,,,,,,,,,,,,,,,,,,,,,,,,,1697.402411854,None,1697.402411854,None,1697.402411854,None,r,1,0.8340087319993472,1698.9378096759992,None,1698.9378096759992,None,1698.9378096759992,None,1699.8356455479989,None,1699.8356455479989,None,1699.8356455479989,None,1699.8356455479989,None,,,,,,,,,,,,,,,,,,,,,,,,,,,,,,,,,,,,,,,,,,,,001,163,2020_Feb_25_1043,spring_faces,3.1.5,60.01039560097843,
