condsFile,subStage,cue1,cue2,correct,responseKeys,responseNames,cue1Position,cue2Position,cue1Opacity,cue2Opacity,stageLoop0.thisRepN,stageLoop0.thisTrialN,stageLoop0.thisN,stageLoop0.thisIndex,blockLoop0.thisRepN,blockLoop0.thisTrialN,blockLoop0.thisN,blockLoop0.thisIndex,stage1Loop.thisRepN,stage1Loop.thisTrialN,stage1Loop.thisN,stage1Loop.thisIndex,blockLoop1.thisRepN,blockLoop1.thisTrialN,blockLoop1.thisN,blockLoop1.thisIndex,cuePics,id_instr_text.started,id_instr_text.stopped,space_to_continue_2.started,space_to_continue_2.stopped,end_instructions_resp_3.keys,end_instructions_resp_3.rt,end_instructions_resp_3.started,end_instructions_resp_3.stopped,id_input_instr.started,id_input_instr.stopped,id_input_rect.started,id_input_rect.stopped,id_input_resp.keys,id_input_resp.rt,id_input_resp.started,id_input_resp.stopped,sonaID,id_input_text.started,id_input_text.stopped,final_text.started,final_text.stopped,instructions.started,instructions.stopped,end_instructions_resp.keys,end_instructions_resp.rt,end_instructions_resp.started,end_instructions_resp.stopped,space_to_continue.started,space_to_continue.stopped,instructions_stage0.started,instructions_stage0.stopped,end_instructions_resp_stage0.keys,end_instructions_resp_stage0.rt,end_instructions_resp_stage0.started,end_instructions_resp_stage0.stopped,space_to_continue_stage0.started,space_to_continue_stage0.stopped,text.started,text.stopped,resp_text1.started,resp_text1.stopped,resp_text2.started,resp_text2.stopped,trial_resp.keys,trial_resp.corr,trial_resp.rt,trial_resp.started,trial_resp.stopped,cue1Image.started,cue1Image.stopped,cue2Image.started,cue2Image.stopped,cue1Image_fb.started,cue1Image_fb.stopped,cue2Image_fb.started,cue2Image_fb.stopped,fb_text_answer.started,fb_text_answer.stopped,feedback_image.started,feedback_image.stopped,instructions_stage1.started,instructions_stage1.stopped,end_instructions_resp_stage1.keys,end_instructions_resp_stage1.rt,end_instructions_resp_stage1.started,end_instructions_resp_stage1.stopped,space_to_continue_stage1.started,space_to_continue_stage1.stopped,session,participant,date,expName,psychopyVersion,frameRate,
,,,,,,,,,,,,,,,,,,,,,,,,,,,"{'none': 'pictures/20M_AN_C.png', 'alpha': 'pictures/SHINEd_melon.png', 'beta': 'pictures/SHINEd_pepper.png', 'theta': 'pictures/SHINEd_apple.png', 'phi': 'pictures/SHINEd_pear.png', 'T1': 'pictures/20M_AN_C.png', 'T2': 'pictures/22M_AN_C.png', 'T3': 'pictures/33M_AN_C.png', 'T4': 'pictures/31M_AN_C.png', 'T5': 'pictures/37M_AN_C.png', 'T6': 'pictures/26M_AN_C.png', 'B1': 'pictures/23M_NE_C.png', 'B2': 'pictures/25M_NE_C.png', 'B3': 'pictures/38M_NE_C.png', 'B4': 'pictures/34M_NE_C.png', 'B5': 'pictures/32M_NE_C.png', 'B6': 'pictures/36M_NE_C.png'}",12.464342601999306,None,17.44766353399973,None,space,1198.5320182340001,17.44766353399973,None,,,,,,,,,,,,,,,,,,,,,,,,,,,,,,,,,,,,,,,,,,,,,,,,,,,,,,,,,,,,,001,165,2020_Feb_25_1140,spring_faces,3.1.5,59.95561413983108,
,,,,,,,,,,,,,,,,,,,,,,,,,,,,,,,,,,,,1216.364647327,None,1216.364647327,None,"['s', 'a', 'c', 'o', 'r', 'backspace', 'backspace', 'backspace', 'backspace', 'backspace', 'backspace', '1', 'backspace', '1', '2', '2', '0', 's', 'a', 'c', 'o', 'r', '1', '2', '2', '0', 's', 'a', 'c', 'd', 'm']","[45.935000554, 46.15909547799856, 51.74308992999977, 52.015034230998936, 52.1751040449999, 53.855044443000224, 55.15098371699969, 55.32710872399912, 55.55098307899971, 55.69499871399967, 55.88705446399945, 56.591106583999135, 56.99111070899926, 63.58303101299862, 63.918992298999, 67.98297978399933, 68.2870522739995, 70.76698313399902, 71.0230312549993, 73.96698514199852, 74.31904201199904, 74.44703088699862, 88.12710544499896, 88.49497306899866, 96.68704655399961, 97.03904146999957, 102.86332078499981, 103.19902149799964, 105.40710396399845, 105.63103505399886, 105.66316240199922]",1216.364647327,None,,,,,,,,,,,,,,,,,,,,,,,,,,,,,,,,,,,,,,,,,,,,,,,,,,,,,001,165,2020_Feb_25_1140,spring_faces,3.1.5,59.95561413983108,
,,,,,,,,,,,,,,,,,,,,,,,,,,,,,,,,,,,,,,,,,,,,1220sacdm,1216.364647327,None,1216.364647327,None,1327.0982383350001,None,space,0.5537416260012833,1332.0979429180006,None,,,,,,,,,,,,,,,,,,,,,,,,,,,,,,,,,,,,,,,,,,001,165,2020_Feb_25_1140,spring_faces,3.1.5,59.95561413983108,
,,,,,,,,,,,,,,,,,,,,,,,,,,,,,,,,,,,,,,,,,,,,,,,,,,,,,,,1332.0979429180006,None,1332.6980912599993,None,space,4.42647109400059,1337.6812114879995,None,,,,,,,,,,,,,,,,,,,,,,,,,,,,,,,,,,001,165,2020_Feb_25_1140,spring_faces,3.1.5,59.95561413983108,
condition files/Stage0a.xlsx,0a,alpha,none,h,"['h', 'g']","['Chess', 'Go']","[0, 0.5]","[0, 0]",1,0,0,0,0,0,0,0,0,0,,,,,,,,,,,,,,,,,,,,,,,,,,,,,,,,,,,,,,,,,,,,,1337.6812114879995,None,1342.1645393,None,1342.1645393,None,1342.1645393,None,g,0,2.5036448780010687,1343.748030884999,None,1343.748030884999,None,1343.748030884999,None,1346.3315120579991,None,1346.3315120579991,None,1346.3315120579991,None,1346.3315120579991,None,,,,,,,,,001,165,2020_Feb_25_1140,spring_faces,3.1.5,59.95561413983108,
condition files/Stage0a.xlsx,0a,beta,none,g,"['h', 'g']","['Chess', 'Go']","[0, 0.5]","[0, 0]",1,0,0,0,0,0,0,1,1,1,,,,,,,,,,,,,,,,,,,,,,,,,,,,,,,,,,,,,,,,,,,,,,,1348.280857328,None,1348.280857328,None,1348.280857328,None,h,0,4.435498202001327,1349.8321762359992,None,1349.8321762359992,None,1349.8321762359992,None,1354.330829815999,None,1354.330829815999,None,1354.330829815999,None,1354.330829815999,None,,,,,,,,,001,165,2020_Feb_25_1140,spring_faces,3.1.5,59.95561413983108,
condition files/Stage0a.xlsx,0a,alpha,none,h,"['h', 'g']","['Chess', 'Go']","[0, 0.5]","[0, 0]",1,0,0,1,1,1,0,0,0,0,,,,,,,,,,,,,,,,,,,,,,,,,,,,,,,,,,,,,,,,,,,,,,,1356.3145607789993,None,1356.3145607789993,None,1356.3145607789993,None,h,1,3.5726424470012716,1357.8310359799998,None,1357.8310359799998,None,1357.8310359799998,None,1361.464350065,None,1361.464350065,None,1361.464350065,None,1361.464350065,None,,,,,,,,,001,165,2020_Feb_25_1140,spring_faces,3.1.5,59.95561413983108,
condition files/Stage0a.xlsx,0a,beta,none,g,"['h', 'g']","['Chess', 'Go']","[0, 0.5]","[0, 0]",1,0,0,1,1,1,0,1,1,1,,,,,,,,,,,,,,,,,,,,,,,,,,,,,,,,,,,,,,,,,,,,,,,1363.4309459060005,None,1363.4309459060005,None,1363.4309459060005,None,g,1,0.8855874710006901,1364.9660969420001,None,1364.9660969420001,None,1364.9660969420001,None,1365.914214372,None,1365.914214372,None,1365.914214372,None,1365.914214372,None,,,,,,,,,001,165,2020_Feb_25_1140,spring_faces,3.1.5,59.95561413983108,
condition files/Stage0a.xlsx,0a,beta,none,g,"['h', 'g']","['Chess', 'Go']","[0, 0.5]","[0, 0]",1,0,0,2,2,2,0,0,0,1,,,,,,,,,,,,,,,,,,,,,,,,,,,,,,,,,,,,,,,,,,,,,,,1367.8971931710003,None,1367.8971931710003,None,1367.8971931710003,None,g,1,0.8845084040003712,1369.4311475329996,None,1369.4311475329996,None,1369.4311475329996,None,1370.3811964849992,None,1370.3811964849992,None,1370.3811964849992,None,1370.3811964849992,None,,,,,,,,,001,165,2020_Feb_25_1140,spring_faces,3.1.5,59.95561413983108,
condition files/Stage0a.xlsx,0a,alpha,none,h,"['h', 'g']","['Chess', 'Go']","[0, 0.5]","[0, 0]",1,0,0,2,2,2,0,1,1,0,,,,,,,,,,,,,,,,,,,,,,,,,,,,,,,,,,,,,,,,,,,,,,,1372.3474924620004,None,1372.3474924620004,None,1372.3474924620004,None,h,1,0.8827479709998443,1373.8809341689994,None,1373.8809341689994,None,1373.8809341689994,None,1374.8152747999993,None,1374.8152747999993,None,1374.8152747999993,None,1374.8152747999993,None,,,,,,,,,001,165,2020_Feb_25_1140,spring_faces,3.1.5,59.95561413983108,
condition files/Stage0a.xlsx,0a,alpha,none,h,"['h', 'g']","['Chess', 'Go']","[0, 0.5]","[0, 0]",1,0,0,3,3,3,0,0,0,0,,,,,,,,,,,,,,,,,,,,,,,,,,,,,,,,,,,,,,,,,,,,,,,1376.7980737979997,None,1376.7980737979997,None,1376.7980737979997,None,h,1,0.5290771780000796,1378.3306024869999,None,1378.3306024869999,None,1378.3306024869999,None,1378.9138364350001,None,1378.9138364350001,None,1378.9138364350001,None,1378.9138364350001,None,,,,,,,,,001,165,2020_Feb_25_1140,spring_faces,3.1.5,59.95561413983108,
condition files/Stage0a.xlsx,0a,beta,none,g,"['h', 'g']","['Chess', 'Go']","[0, 0.5]","[0, 0]",1,0,0,3,3,3,0,1,1,1,,,,,,,,,,,,,,,,,,,,,,,,,,,,,,,,,,,,,,,,,,,,,,,1380.880887456,None,1380.880887456,None,1380.880887456,None,g,1,0.6851982699990913,1382.4144709270004,None,1382.4144709270004,None,1382.4144709270004,None,1383.1639115359994,None,1383.1639115359994,None,1383.1639115359994,None,1383.1639115359994,None,,,,,,,,,001,165,2020_Feb_25_1140,spring_faces,3.1.5,59.95561413983108,
condition files/Stage0a.xlsx,0a,alpha,none,h,"['h', 'g']","['Chess', 'Go']","[0, 0.5]","[0, 0]",1,0,0,4,4,4,0,0,0,0,,,,,,,,,,,,,,,,,,,,,,,,,,,,,,,,,,,,,,,,,,,,,,,1385.1481467369995,None,1385.1481467369995,None,1385.1481467369995,None,h,1,0.4994787619998533,1386.664188618999,None,1386.664188618999,None,1386.664188618999,None,1387.213949208999,None,1387.213949208999,None,1387.213949208999,None,1387.213949208999,None,,,,,,,,,001,165,2020_Feb_25_1140,spring_faces,3.1.5,59.95561413983108,
condition files/Stage0a.xlsx,0a,beta,none,g,"['h', 'g']","['Chess', 'Go']","[0, 0.5]","[0, 0]",1,0,0,4,4,4,0,1,1,1,,,,,,,,,,,,,,,,,,,,,,,,,,,,,,,,,,,,,,,,,,,,,,,1389.1807672960003,None,1389.1807672960003,None,1389.1807672960003,None,g,1,0.5929425510003057,1390.7147682449995,None,1390.7147682449995,None,1390.7147682449995,None,1391.364141856,None,1391.364141856,None,1391.364141856,None,1391.364141856,None,,,,,,,,,001,165,2020_Feb_25_1140,spring_faces,3.1.5,59.95561413983108,
condition files/Stage0a.xlsx,0a,alpha,none,h,"['h', 'g']","['Chess', 'Go']","[0, 0.5]","[0, 0]",1,0,0,5,5,5,0,0,0,0,,,,,,,,,,,,,,,,,,,,,,,,,,,,,,,,,,,,,,,,,,,,,,,1393.347840679,None,1393.347840679,None,1393.347840679,None,h,1,0.6670433599992975,1394.8806136530002,None,1394.8806136530002,None,1394.8806136530002,None,1395.5978852949993,None,1395.5978852949993,None,1395.5978852949993,None,1395.5978852949993,None,,,,,,,,,001,165,2020_Feb_25_1140,spring_faces,3.1.5,59.95561413983108,
condition files/Stage0a.xlsx,0a,beta,none,g,"['h', 'g']","['Chess', 'Go']","[0, 0.5]","[0, 0]",1,0,0,5,5,5,0,1,1,1,,,,,,,,,,,,,,,,,,,,,,,,,,,,,,,,,,,,,,,,,,,,,,,1397.5642152729997,None,1397.5642152729997,None,1397.5642152729997,None,g,1,0.6101224040012312,1399.0975659680007,None,1399.0975659680007,None,1399.0975659680007,None,1399.7640765390006,None,1399.7640765390006,None,1399.7640765390006,None,1399.7640765390006,None,,,,,,,,,001,165,2020_Feb_25_1140,spring_faces,3.1.5,59.95561413983108,
condition files/Stage0b_1.xlsx,0b,none,beta,g,"['h', 'g']","['Chess', 'Go']","[-0.15, 0.5]","[0.15, 0.5]",0,1,0,6,6,6,0,0,0,1,,,,,,,,,,,,,,,,,,,,,,,,,,,,,,,,,,,,,,,,,,,,,,,1401.7477908609999,None,1401.7477908609999,None,1401.7477908609999,None,g,1,0.7618787830015208,1403.2977512020007,None,1403.2977512020007,None,1403.2977512020007,None,1404.114627645,None,1404.114627645,None,1404.114627645,None,1404.114627645,None,,,,,,,,,001,165,2020_Feb_25_1140,spring_faces,3.1.5,59.95561413983108,
condition files/Stage0b_1.xlsx,0b,alpha,none,h,"['h', 'g']","['Chess', 'Go']","[-0.15, 0.5]","[0.15, 0.5]",1,0,0,6,6,6,0,1,1,0,,,,,,,,,,,,,,,,,,,,,,,,,,,,,,,,,,,,,,,,,,,,,,,1406.0806483359993,None,1406.0806483359993,None,1406.0806483359993,None,h,1,0.7917897930001345,1407.6198883159996,None,1407.6198883159996,None,1407.6198883159996,None,1408.4656334419997,None,1408.4656334419997,None,1408.4656334419997,None,1408.4656334419997,None,,,,,,,,,001,165,2020_Feb_25_1140,spring_faces,3.1.5,59.95561413983108,
condition files/Stage0b_2.xlsx,0b,none,alpha,h,"['h', 'g']","['Chess', 'Go']","[-0.15, 0.5]","[0.15, 0.5]",0,1,0,7,7,7,0,0,0,0,,,,,,,,,,,,,,,,,,,,,,,,,,,,,,,,,,,,,,,,,,,,,,,1410.4478153,None,1410.4478153,None,1410.4478153,None,h,1,0.6863576100004138,1411.9813405629993,None,1411.9813405629993,None,1411.9813405629993,None,1412.7312274710002,None,1412.7312274710002,None,1412.7312274710002,None,1412.7312274710002,None,,,,,,,,,001,165,2020_Feb_25_1140,spring_faces,3.1.5,59.95561413983108,
condition files/Stage0b_2.xlsx,0b,beta,none,g,"['h', 'g']","['Chess', 'Go']","[-0.15, 0.5]","[0.15, 0.5]",1,0,0,7,7,7,0,1,1,1,,,,,,,,,,,,,,,,,,,,,,,,,,,,,,,,,,,,,,,,,,,,,,,1414.6975698959995,None,1414.6975698959995,None,1414.6975698959995,None,g,1,0.9471375489993079,1416.2325432609996,None,1416.2325432609996,None,1416.2325432609996,None,1417.231913268999,None,1417.231913268999,None,1417.231913268999,None,1417.231913268999,None,,,,,,,,,001,165,2020_Feb_25_1140,spring_faces,3.1.5,59.95561413983108,
condition files/Stage0b_1.xlsx,0b,alpha,none,h,"['h', 'g']","['Chess', 'Go']","[-0.15, 0.5]","[0.15, 0.5]",1,0,0,8,8,8,0,0,0,0,,,,,,,,,,,,,,,,,,,,,,,,,,,,,,,,,,,,,,,,,,,,,,,1419.2143256079999,None,1419.2143256079999,None,1419.2143256079999,None,h,1,0.7680029390012351,1420.7476531060001,None,1420.7476531060001,None,1420.7476531060001,None,1421.5807447450006,None,1421.5807447450006,None,1421.5807447450006,None,1421.5807447450006,None,,,,,,,,,001,165,2020_Feb_25_1140,spring_faces,3.1.5,59.95561413983108,
condition files/Stage0b_1.xlsx,0b,none,beta,g,"['h', 'g']","['Chess', 'Go']","[-0.15, 0.5]","[0.15, 0.5]",0,1,0,8,8,8,0,1,1,1,,,,,,,,,,,,,,,,,,,,,,,,,,,,,,,,,,,,,,,,,,,,,,,1423.5477340180005,None,1423.5477340180005,None,1423.5477340180005,None,g,1,0.6261280339986115,1425.0976004500008,None,1425.0976004500008,None,1425.0976004500008,None,1425.7853004949993,None,1425.7853004949993,None,1425.7853004949993,None,1425.7853004949993,None,,,,,,,,,001,165,2020_Feb_25_1140,spring_faces,3.1.5,59.95561413983108,
condition files/Stage0b_2.xlsx,0b,none,alpha,h,"['h', 'g']","['Chess', 'Go']","[-0.15, 0.5]","[0.15, 0.5]",0,1,0,9,9,9,0,0,0,0,,,,,,,,,,,,,,,,,,,,,,,,,,,,,,,,,,,,,,,,,,,,,,,1427.7644791589992,None,1427.7644791589992,None,1427.7644791589992,None,h,1,0.745842136999272,1429.297817269,None,1429.297817269,None,1429.297817269,None,1430.0978923029998,None,1430.0978923029998,None,1430.0978923029998,None,1430.0978923029998,None,,,,,,,,,001,165,2020_Feb_25_1140,spring_faces,3.1.5,59.95561413983108,
condition files/Stage0b_2.xlsx,0b,beta,none,g,"['h', 'g']","['Chess', 'Go']","[-0.15, 0.5]","[0.15, 0.5]",1,0,0,9,9,9,0,1,1,1,,,,,,,,,,,,,,,,,,,,,,,,,,,,,,,,,,,,,,,,,,,,,,,1432.0634252620002,None,1432.0634252620002,None,1432.0634252620002,None,g,1,0.7171948049999628,1433.614414652,None,1433.614414652,None,1433.614414652,None,1434.3999950180005,None,1434.3999950180005,None,1434.3999950180005,None,1434.3999950180005,None,,,,,,,,,001,165,2020_Feb_25_1140,spring_faces,3.1.5,59.95561413983108,
condition files/Stage0b_1.xlsx,0b,alpha,none,h,"['h', 'g']","['Chess', 'Go']","[-0.15, 0.5]","[0.15, 0.5]",1,0,0,10,10,10,0,0,0,0,,,,,,,,,,,,,,,,,,,,,,,,,,,,,,,,,,,,,,,,,,,,,,,1436.3810386059995,None,1436.3810386059995,None,1436.3810386059995,None,h,1,0.6733286290000251,1437.9144183770004,None,1437.9144183770004,None,1437.9144183770004,None,1438.6475094889993,None,1438.6475094889993,None,1438.6475094889993,None,1438.6475094889993,None,,,,,,,,,001,165,2020_Feb_25_1140,spring_faces,3.1.5,59.95561413983108,
condition files/Stage0b_1.xlsx,0b,none,beta,g,"['h', 'g']","['Chess', 'Go']","[-0.15, 0.5]","[0.15, 0.5]",0,1,0,10,10,10,0,1,1,1,,,,,,,,,,,,,,,,,,,,,,,,,,,,,,,,,,,,,,,,,,,,,,,1440.6144353529999,None,1440.6144353529999,None,1440.6144353529999,None,g,1,0.59501782299958,1442.1526567889996,None,1442.1526567889996,None,1442.1526567889996,None,1442.802286910999,None,1442.802286910999,None,1442.802286910999,None,1442.802286910999,None,,,,,,,,,001,165,2020_Feb_25_1140,spring_faces,3.1.5,59.95561413983108,
condition files/Stage0b_2.xlsx,0b,none,alpha,h,"['h', 'g']","['Chess', 'Go']","[-0.15, 0.5]","[0.15, 0.5]",0,1,0,11,11,11,0,0,0,0,,,,,,,,,,,,,,,,,,,,,,,,,,,,,,,,,,,,,,,,,,,,,,,1444.7811282399998,None,1444.7811282399998,None,1444.7811282399998,None,h,1,0.5937281740007165,1446.3139593060005,None,1446.3139593060005,None,1446.3139593060005,None,1446.9646593340003,None,1446.9646593340003,None,1446.9646593340003,None,1446.9646593340003,None,,,,,,,,,001,165,2020_Feb_25_1140,spring_faces,3.1.5,59.95561413983108,
condition files/Stage0b_2.xlsx,0b,beta,none,g,"['h', 'g']","['Chess', 'Go']","[-0.15, 0.5]","[0.15, 0.5]",1,0,0,11,11,11,0,1,1,1,,,,,,,,,,,,,,,,,,,,,,,,,,,,,,,,,,,,,,,,,,,,,,,1448.9307389250007,None,1448.9307389250007,None,1448.9307389250007,None,g,1,0.6802547429997503,1450.4674401619995,None,1450.4674401619995,None,1450.4674401619995,None,1451.2022801139992,None,1451.2022801139992,None,1451.2022801139992,None,1451.2022801139992,None,,,,,,,,,001,165,2020_Feb_25_1140,spring_faces,3.1.5,59.95561413983108,
condition files/Stage0c_1.xlsx,0c,alpha,phi,h,"['h', 'g']","['Chess', 'Go']","[-0.15, 0.5]","[0.15, 0.5]",1,1,0,12,12,12,0,0,0,1,,,,,,,,,,,,,,,,,,,,,,,,,,,,,,,,,,,,,,,,,,,,,,,1453.1806560580007,None,1453.1806560580007,None,1453.1806560580007,None,h,1,1.8250453889995697,1454.7147037579998,None,1454.7147037579998,None,1454.7147037579998,None,1456.5979869740004,None,1456.5979869740004,None,1456.5979869740004,None,1456.5979869740004,None,,,,,,,,,001,165,2020_Feb_25_1140,spring_faces,3.1.5,59.95561413983108,
condition files/Stage0c_1.xlsx,0c,phi,beta,g,"['h', 'g']","['Chess', 'Go']","[-0.15, 0.5]","[0.15, 0.5]",1,1,0,12,12,12,0,1,1,3,,,,,,,,,,,,,,,,,,,,,,,,,,,,,,,,,,,,,,,,,,,,,,,1458.5640885489993,None,1458.5640885489993,None,1458.5640885489993,None,g,1,0.7778191679990414,1460.0978569420004,None,1460.0978569420004,None,1460.0978569420004,None,1460.9312964429992,None,1460.9312964429992,None,1460.9312964429992,None,1460.9312964429992,None,,,,,,,,,001,165,2020_Feb_25_1140,spring_faces,3.1.5,59.95561413983108,
condition files/Stage0c_1.xlsx,0c,beta,theta,g,"['h', 'g']","['Chess', 'Go']","[-0.15, 0.5]","[0.15, 0.5]",1,1,0,12,12,12,0,2,2,2,,,,,,,,,,,,,,,,,,,,,,,,,,,,,,,,,,,,,,,,,,,,,,,1462.8975796209997,None,1462.8975796209997,None,1462.8975796209997,None,g,1,0.7165211020001152,1464.4311449369998,None,1464.4311449369998,None,1464.4311449369998,None,1465.1978394109992,None,1465.1978394109992,None,1465.1978394109992,None,1465.1978394109992,None,,,,,,,,,001,165,2020_Feb_25_1140,spring_faces,3.1.5,59.95561413983108,
condition files/Stage0c_1.xlsx,0c,theta,alpha,h,"['h', 'g']","['Chess', 'Go']","[-0.15, 0.5]","[0.15, 0.5]",1,1,0,12,12,12,0,3,3,0,,,,,,,,,,,,,,,,,,,,,,,,,,,,,,,,,,,,,,,,,,,,,,,1467.1812063479993,None,1467.1812063479993,None,1467.1812063479993,None,h,1,1.3301321510007256,1468.6975419629998,None,1468.6975419629998,None,1468.6975419629998,None,1470.0813542199994,None,1470.0813542199994,None,1470.0813542199994,None,1470.0813542199994,None,,,,,,,,,001,165,2020_Feb_25_1140,spring_faces,3.1.5,59.95561413983108,
condition files/Stage0c_2.xlsx,0c,beta,phi,g,"['h', 'g']","['Chess', 'Go']","[-0.15, 0.5]","[0.15, 0.5]",1,1,0,13,13,13,0,0,0,3,,,,,,,,,,,,,,,,,,,,,,,,,,,,,,,,,,,,,,,,,,,,,,,1472.063991133,None,1472.063991133,None,1472.063991133,None,g,1,1.0065049389995693,1473.597165878,None,1473.597165878,None,1473.597165878,None,1474.6641694789996,None,1474.6641694789996,None,1474.6641694789996,None,1474.6641694789996,None,,,,,,,,,001,165,2020_Feb_25_1140,spring_faces,3.1.5,59.95561413983108,
condition files/Stage0c_2.xlsx,0c,alpha,theta,h,"['h', 'g']","['Chess', 'Go']","[-0.15, 0.5]","[0.15, 0.5]",1,1,0,13,13,13,0,1,1,0,,,,,,,,,,,,,,,,,,,,,,,,,,,,,,,,,,,,,,,,,,,,,,,1476.6306802210001,None,1476.6306802210001,None,1476.6306802210001,None,h,1,1.2551161239989597,1478.1645885609996,None,1478.1645885609996,None,1478.1645885609996,None,1479.4812858820005,None,1479.4812858820005,None,1479.4812858820005,None,1479.4812858820005,None,,,,,,,,,001,165,2020_Feb_25_1140,spring_faces,3.1.5,59.95561413983108,
condition files/Stage0c_2.xlsx,0c,phi,alpha,h,"['h', 'g']","['Chess', 'Go']","[-0.15, 0.5]","[0.15, 0.5]",1,1,0,13,13,13,0,2,2,1,,,,,,,,,,,,,,,,,,,,,,,,,,,,,,,,,,,,,,,,,,,,,,,1481.4477156419998,None,1481.4477156419998,None,1481.4477156419998,None,h,1,0.9824317389993666,1482.9812326800002,None,1482.9812326800002,None,1482.9812326800002,None,1483.9994822850003,None,1483.9994822850003,None,1483.9994822850003,None,1483.9994822850003,None,,,,,,,,,001,165,2020_Feb_25_1140,spring_faces,3.1.5,59.95561413983108,
condition files/Stage0c_2.xlsx,0c,theta,beta,g,"['h', 'g']","['Chess', 'Go']","[-0.15, 0.5]","[0.15, 0.5]",1,1,0,13,13,13,0,3,3,2,,,,,,,,,,,,,,,,,,,,,,,,,,,,,,,,,,,,,,,,,,,,,,,1485.9807166850005,None,1485.9807166850005,None,1485.9807166850005,None,g,1,0.8493594939991453,1487.5143080460002,None,1487.5143080460002,None,1487.5143080460002,None,1488.4138619549994,None,1488.4138619549994,None,1488.4138619549994,None,1488.4138619549994,None,,,,,,,,,001,165,2020_Feb_25_1140,spring_faces,3.1.5,59.95561413983108,
condition files/Stage0c_1.xlsx,0c,theta,alpha,h,"['h', 'g']","['Chess', 'Go']","[-0.15, 0.5]","[0.15, 0.5]",1,1,0,14,14,14,0,0,0,0,,,,,,,,,,,,,,,,,,,,,,,,,,,,,,,,,,,,,,,,,,,,,,,1490.397801776,None,1490.397801776,None,1490.397801776,None,h,1,0.9122632990001875,1491.9314217789997,None,1491.9314217789997,None,1491.9314217789997,None,1492.8978512760004,None,1492.8978512760004,None,1492.8978512760004,None,1492.8978512760004,None,,,,,,,,,001,165,2020_Feb_25_1140,spring_faces,3.1.5,59.95561413983108,
condition files/Stage0c_1.xlsx,0c,beta,theta,g,"['h', 'g']","['Chess', 'Go']","[-0.15, 0.5]","[0.15, 0.5]",1,1,0,14,14,14,0,1,1,2,,,,,,,,,,,,,,,,,,,,,,,,,,,,,,,,,,,,,,,,,,,,,,,1494.8642441119991,None,1494.8642441119991,None,1494.8642441119991,None,g,1,0.9256900599993969,1496.3980787580003,None,1496.3980787580003,None,1496.3980787580003,None,1497.3809986809993,None,1497.3809986809993,None,1497.3809986809993,None,1497.3809986809993,None,,,,,,,,,001,165,2020_Feb_25_1140,spring_faces,3.1.5,59.95561413983108,
condition files/Stage0c_1.xlsx,0c,alpha,phi,h,"['h', 'g']","['Chess', 'Go']","[-0.15, 0.5]","[0.15, 0.5]",1,1,0,14,14,14,0,2,2,1,,,,,,,,,,,,,,,,,,,,,,,,,,,,,,,,,,,,,,,,,,,,,,,1499.3476306600005,None,1499.3476306600005,None,1499.3476306600005,None,h,1,0.8909501809994254,1500.8807905529993,None,1500.8807905529993,None,1500.8807905529993,None,1501.830937625,None,1501.830937625,None,1501.830937625,None,1501.830937625,None,,,,,,,,,001,165,2020_Feb_25_1140,spring_faces,3.1.5,59.95561413983108,
condition files/Stage0c_1.xlsx,0c,phi,beta,g,"['h', 'g']","['Chess', 'Go']","[-0.15, 0.5]","[0.15, 0.5]",1,1,0,14,14,14,0,3,3,3,,,,,,,,,,,,,,,,,,,,,,,,,,,,,,,,,,,,,,,,,,,,,,,1503.797643853999,None,1503.797643853999,None,1503.797643853999,None,g,1,1.3525792910004384,1505.3310966810004,None,1505.3310966810004,None,1505.3310966810004,None,1506.7479197569992,None,1506.7479197569992,None,1506.7479197569992,None,1506.7479197569992,None,,,,,,,,,001,165,2020_Feb_25_1140,spring_faces,3.1.5,59.95561413983108,
condition files/Stage0c_2.xlsx,0c,alpha,theta,h,"['h', 'g']","['Chess', 'Go']","[-0.15, 0.5]","[0.15, 0.5]",1,1,0,15,15,15,0,0,0,0,,,,,,,,,,,,,,,,,,,,,,,,,,,,,,,,,,,,,,,,,,,,,,,1508.7309529760005,None,1508.7309529760005,None,1508.7309529760005,None,h,1,0.6910914169984608,1510.2646599199998,None,1510.2646599199998,None,1510.2646599199998,None,1511.0138941730002,None,1511.0138941730002,None,1511.0138941730002,None,1511.0138941730002,None,,,,,,,,,001,165,2020_Feb_25_1140,spring_faces,3.1.5,59.95561413983108,
condition files/Stage0c_2.xlsx,0c,phi,alpha,h,"['h', 'g']","['Chess', 'Go']","[-0.15, 0.5]","[0.15, 0.5]",1,1,0,15,15,15,0,1,1,1,,,,,,,,,,,,,,,,,,,,,,,,,,,,,,,,,,,,,,,,,,,,,,,1512.9809561330003,None,1512.9809561330003,None,1512.9809561330003,None,h,1,1.273504081998908,1514.5141646760003,None,1514.5141646760003,None,1514.5141646760003,None,1515.832041653999,None,1515.832041653999,None,1515.832041653999,None,1515.832041653999,None,,,,,,,,,001,165,2020_Feb_25_1140,spring_faces,3.1.5,59.95561413983108,
condition files/Stage0c_2.xlsx,0c,beta,phi,g,"['h', 'g']","['Chess', 'Go']","[-0.15, 0.5]","[0.15, 0.5]",1,1,0,15,15,15,0,2,2,3,,,,,,,,,,,,,,,,,,,,,,,,,,,,,,,,,,,,,,,,,,,,,,,1517.8140511719994,None,1517.8140511719994,None,1517.8140511719994,None,g,1,1.3518095160015946,1519.3478348930003,None,1519.3478348930003,None,1519.3478348930003,None,1520.7645293339992,None,1520.7645293339992,None,1520.7645293339992,None,1520.7645293339992,None,,,,,,,,,001,165,2020_Feb_25_1140,spring_faces,3.1.5,59.95561413983108,
condition files/Stage0c_2.xlsx,0c,theta,beta,g,"['h', 'g']","['Chess', 'Go']","[-0.15, 0.5]","[0.15, 0.5]",1,1,0,15,15,15,0,3,3,2,,,,,,,,,,,,,,,,,,,,,,,,,,,,,,,,,,,,,,,,,,,,,,,1522.7309754119997,None,1522.7309754119997,None,1522.7309754119997,None,g,1,1.2511119609989692,1524.2645278710006,None,1524.2645278710006,None,1524.2645278710006,None,1525.5653188939996,None,1525.5653188939996,None,1525.5653188939996,None,1525.5653188939996,None,,,,,,,,,001,165,2020_Feb_25_1140,spring_faces,3.1.5,59.95561413983108,
condition files/Stage0c_1.xlsx,0c,beta,theta,g,"['h', 'g']","['Chess', 'Go']","[-0.15, 0.5]","[0.15, 0.5]",1,1,0,16,16,16,0,0,0,2,,,,,,,,,,,,,,,,,,,,,,,,,,,,,,,,,,,,,,,,,,,,,,,1527.5640314129996,None,1527.5640314129996,None,1527.5640314129996,None,g,1,0.5461289269987901,1529.097553738,None,1529.097553738,None,1529.097553738,None,1529.6824524309995,None,1529.6824524309995,None,1529.6824524309995,None,1529.6824524309995,None,,,,,,,,,001,165,2020_Feb_25_1140,spring_faces,3.1.5,59.95561413983108,
condition files/Stage0c_1.xlsx,0c,theta,alpha,h,"['h', 'g']","['Chess', 'Go']","[-0.15, 0.5]","[0.15, 0.5]",1,1,0,16,16,16,0,1,1,0,,,,,,,,,,,,,,,,,,,,,,,,,,,,,,,,,,,,,,,,,,,,,,,1531.6640809050004,None,1531.6640809050004,None,1531.6640809050004,None,h,1,0.9099010179998004,1533.1978168379992,None,1533.1978168379992,None,1533.1978168379992,None,1534.1639286940008,None,1534.1639286940008,None,1534.1639286940008,None,1534.1639286940008,None,,,,,,,,,001,165,2020_Feb_25_1140,spring_faces,3.1.5,59.95561413983108,
condition files/Stage0c_1.xlsx,0c,phi,beta,g,"['h', 'g']","['Chess', 'Go']","[-0.15, 0.5]","[0.15, 0.5]",1,1,0,16,16,16,0,2,2,3,,,,,,,,,,,,,,,,,,,,,,,,,,,,,,,,,,,,,,,,,,,,,,,1536.1310379360002,None,1536.1310379360002,None,1536.1310379360002,None,g,1,0.8753643880008894,1537.664377919,None,1537.664377919,None,1537.664377919,None,1538.5977509200002,None,1538.5977509200002,None,1538.5977509200002,None,1538.5977509200002,None,,,,,,,,,001,165,2020_Feb_25_1140,spring_faces,3.1.5,59.95561413983108,
condition files/Stage0c_1.xlsx,0c,alpha,phi,h,"['h', 'g']","['Chess', 'Go']","[-0.15, 0.5]","[0.15, 0.5]",1,1,0,16,16,16,0,3,3,1,,,,,,,,,,,,,,,,,,,,,,,,,,,,,,,,,,,,,,,,,,,,,,,1540.564311233,None,1540.564311233,None,1540.564311233,None,h,1,0.47412321099909605,1542.0975996109992,None,1542.0975996109992,None,1542.0975996109992,None,1542.6303819959994,None,1542.6303819959994,None,1542.6303819959994,None,1542.6303819959994,None,,,,,,,,,001,165,2020_Feb_25_1140,spring_faces,3.1.5,59.95561413983108,
condition files/Stage0c_2.xlsx,0c,alpha,theta,h,"['h', 'g']","['Chess', 'Go']","[-0.15, 0.5]","[0.15, 0.5]",1,1,0,17,17,17,0,0,0,0,,,,,,,,,,,,,,,,,,,,,,,,,,,,,,,,,,,,,,,,,,,,,,,1544.614669396,None,1544.614669396,None,1544.614669396,None,h,1,0.4566084569996747,1546.1470852919992,None,1546.1470852919992,None,1546.1470852919992,None,1546.6486891219993,None,1546.6486891219993,None,1546.6486891219993,None,1546.6486891219993,None,,,,,,,,,001,165,2020_Feb_25_1140,spring_faces,3.1.5,59.95561413983108,
condition files/Stage0c_2.xlsx,0c,theta,beta,g,"['h', 'g']","['Chess', 'Go']","[-0.15, 0.5]","[0.15, 0.5]",1,1,0,17,17,17,0,1,1,2,,,,,,,,,,,,,,,,,,,,,,,,,,,,,,,,,,,,,,,,,,,,,,,1548.6309934689998,None,1548.6309934689998,None,1548.6309934689998,None,g,1,0.5353247140010353,1550.1643523910006,None,1550.1643523910006,None,1550.1643523910006,None,1550.7647513110005,None,1550.7647513110005,None,1550.7647513110005,None,1550.7647513110005,None,,,,,,,,,001,165,2020_Feb_25_1140,spring_faces,3.1.5,59.95561413983108,
condition files/Stage0c_2.xlsx,0c,phi,alpha,h,"['h', 'g']","['Chess', 'Go']","[-0.15, 0.5]","[0.15, 0.5]",1,1,0,17,17,17,0,2,2,1,,,,,,,,,,,,,,,,,,,,,,,,,,,,,,,,,,,,,,,,,,,,,,,1552.7304438240008,None,1552.7304438240008,None,1552.7304438240008,None,h,1,0.4831628469983116,1554.2645058229991,None,1554.2645058229991,None,1554.2645058229991,None,1554.7971473100006,None,1554.7971473100006,None,1554.7971473100006,None,1554.7971473100006,None,,,,,,,,,001,165,2020_Feb_25_1140,spring_faces,3.1.5,59.95561413983108,
condition files/Stage0c_2.xlsx,0c,beta,phi,g,"['h', 'g']","['Chess', 'Go']","[-0.15, 0.5]","[0.15, 0.5]",1,1,0,17,17,17,0,3,3,3,,,,,,,,,,,,,,,,,,,,,,,,,,,,,,,,,,,,,,,,,,,,,,,1556.7645557399992,None,1556.7645557399992,None,1556.7645557399992,None,g,1,0.7538587400013057,1558.297823032999,None,1558.297823032999,None,1558.297823032999,None,1559.1140527579992,None,1559.1140527579992,None,1559.1140527579992,None,1559.1140527579992,None,,,,,,,,,001,165,2020_Feb_25_1140,spring_faces,3.1.5,59.95561413983108,
,,,,,,,,,,,,,,,,,,,,,,,,,,,,,,,,,,,,,,,,,,,,,,,,,,,,,,,,,,,,,,,,,,,,,,,,,,,,,,,,,,,,,,,,1561.0981010239993,None,space,3.8819669369986514,1566.0977158210007,None,,,001,165,2020_Feb_25_1140,spring_faces,3.1.5,59.95561413983108,
condition files/Stage1_1.xlsx,,T3,B4,c,"['c', 'm']","['Clue', 'Monopoly']","[-0.15, 0.5]","[0.15, 0.5]",1,1,,,,,,,,,0,0,0,0,0,0,0,5,,,,,,,,,,,,,,,,,,,,,,,,,,,,,,,,,,,,,,,1570.0304434520003,None,1570.0304434520003,None,1570.0304434520003,None,c,1,2.2880551090001973,1571.5636395790007,None,1571.5636395790007,None,1571.5636395790007,None,1573.9310594519993,None,1573.9310594519993,None,1573.9310594519993,None,1573.9310594519993,None,,,,,,,1566.0977158210007,None,001,165,2020_Feb_25_1140,spring_faces,3.1.5,59.95561413983108,
condition files/Stage1_1.xlsx,,B2,T1,m,"['c', 'm']","['Clue', 'Monopoly']","[-0.15, 0.5]","[0.15, 0.5]",1,1,,,,,,,,,0,0,0,0,0,1,1,2,,,,,,,,,,,,,,,,,,,,,,,,,,,,,,,,,,,,,,,1575.8809155809995,None,1575.8809155809995,None,1575.8809155809995,None,m,1,1.5246180379999714,1577.4311274280008,None,1577.4311274280008,None,1577.4311274280008,None,1579.0309611310004,None,1579.0309611310004,None,1579.0309611310004,None,1579.0309611310004,None,,,,,,,,,001,165,2020_Feb_25_1140,spring_faces,3.1.5,59.95561413983108,
condition files/Stage1_1.xlsx,,T4,B3,m,"['c', 'm']","['Clue', 'Monopoly']","[-0.15, 0.5]","[0.15, 0.5]",1,1,,,,,,,,,0,0,0,0,0,2,2,6,,,,,,,,,,,,,,,,,,,,,,,,,,,,,,,,,,,,,,,1580.9804254829996,None,1580.9804254829996,None,1580.9804254829996,None,m,1,1.2555576510003448,1582.564146532999,None,1582.564146532999,None,1582.564146532999,None,1583.8810718080003,None,1583.8810718080003,None,1583.8810718080003,None,1583.8810718080003,None,,,,,,,,,001,165,2020_Feb_25_1140,spring_faces,3.1.5,59.95561413983108,
condition files/Stage1_1.xlsx,,B1,T2,c,"['c', 'm']","['Clue', 'Monopoly']","[-0.15, 0.5]","[0.15, 0.5]",1,1,,,,,,,,,0,0,0,0,0,3,3,1,,,,,,,,,,,,,,,,,,,,,,,,,,,,,,,,,,,,,,,1585.8476433449996,None,1585.8476433449996,None,1585.8476433449996,None,c,1,1.0123520409997582,1587.3833344930008,None,1587.3833344930008,None,1587.3833344930008,None,1588.4646312339992,None,1588.4646312339992,None,1588.4646312339992,None,1588.4646312339992,None,,,,,,,,,001,165,2020_Feb_25_1140,spring_faces,3.1.5,59.95561413983108,
condition files/Stage1_1.xlsx,,B3,T3,c,"['c', 'm']","['Clue', 'Monopoly']","[-0.15, 0.5]","[0.15, 0.5]",1,1,,,,,,,,,0,0,0,0,0,4,4,4,,,,,,,,,,,,,,,,,,,,,,,,,,,,,,,,,,,,,,,1590.414021311999,None,1590.414021311999,None,1590.414021311999,None,c,1,1.0070927180004219,1591.948681451,None,1591.948681451,None,1591.948681451,None,1593.0143136080005,None,1593.0143136080005,None,1593.0143136080005,None,1593.0143136080005,None,,,,,,,,,001,165,2020_Feb_25_1140,spring_faces,3.1.5,59.95561413983108,
condition files/Stage1_1.xlsx,,T1,B1,c,"['c', 'm']","['Clue', 'Monopoly']","[-0.15, 0.5]","[0.15, 0.5]",1,1,,,,,,,,,0,0,0,0,0,5,5,0,,,,,,,,,,,,,,,,,,,,,,,,,,,,,,,,,,,,,,,1594.9809502989992,None,1594.9809502989992,None,1594.9809502989992,None,m,0,1.3685552200004167,1596.531113076,None,1596.531113076,None,1596.531113076,None,1597.964137335999,None,1597.964137335999,None,1597.964137335999,None,1597.964137335999,None,,,,,,,,,001,165,2020_Feb_25_1140,spring_faces,3.1.5,59.95561413983108,
condition files/Stage1_1.xlsx,,B4,T4,m,"['c', 'm']","['Clue', 'Monopoly']","[-0.15, 0.5]","[0.15, 0.5]",1,1,,,,,,,,,0,0,0,0,0,6,6,7,,,,,,,,,,,,,,,,,,,,,,,,,,,,,,,,,,,,,,,1599.9317369300006,None,1599.9317369300006,None,1599.9317369300006,None,m,1,1.2350073070010694,1601.464633997999,None,1601.464633997999,None,1601.464633997999,None,1602.7650048899995,None,1602.7650048899995,None,1602.7650048899995,None,1602.7650048899995,None,,,,,,,,,001,165,2020_Feb_25_1140,spring_faces,3.1.5,59.95561413983108,
condition files/Stage1_1.xlsx,,T2,B2,m,"['c', 'm']","['Clue', 'Monopoly']","[-0.15, 0.5]","[0.15, 0.5]",1,1,,,,,,,,,0,0,0,0,0,7,7,3,,,,,,,,,,,,,,,,,,,,,,,,,,,,,,,,,,,,,,,1604.7304764780001,None,1604.7304764780001,None,1604.7304764780001,None,c,0,0.8989551209997444,1606.2647200190004,None,1606.2647200190004,None,1606.2647200190004,None,1607.2145888739997,None,1607.2145888739997,None,1607.2145888739997,None,1607.2145888739997,None,,,,,,,,,001,165,2020_Feb_25_1140,spring_faces,3.1.5,59.95561413983108,
condition files/Stage1_2.xlsx,,T2,B1,c,"['c', 'm']","['Clue', 'Monopoly']","[-0.15, 0.5]","[0.15, 0.5]",1,1,,,,,,,,,0,1,1,1,0,0,0,1,,,,,,,,,,,,,,,,,,,,,,,,,,,,,,,,,,,,,,,1609.1975313340008,None,1609.1975313340008,None,1609.1975313340008,None,m,0,1.0397975969990512,1610.7479375809999,None,1610.7479375809999,None,1610.7479375809999,None,1611.8646069759998,None,1611.8646069759998,None,1611.8646069759998,None,1611.8646069759998,None,,,,,,,,,001,165,2020_Feb_25_1140,spring_faces,3.1.5,59.95561413983108,
condition files/Stage1_2.xlsx,,B3,T4,m,"['c', 'm']","['Clue', 'Monopoly']","[-0.15, 0.5]","[0.15, 0.5]",1,1,,,,,,,,,0,1,1,1,0,1,1,6,,,,,,,,,,,,,,,,,,,,,,,,,,,,,,,,,,,,,,,1613.8144066709992,None,1613.8144066709992,None,1613.8144066709992,None,m,1,1.3361518169986084,1615.3475426309997,None,1615.3475426309997,None,1615.3475426309997,None,1616.7477943369995,None,1616.7477943369995,None,1616.7477943369995,None,1616.7477943369995,None,,,,,,,,,001,165,2020_Feb_25_1140,spring_faces,3.1.5,59.95561413983108,
condition files/Stage1_2.xlsx,,B4,T3,c,"['c', 'm']","['Clue', 'Monopoly']","[-0.15, 0.5]","[0.15, 0.5]",1,1,,,,,,,,,0,1,1,1,0,2,2,5,,,,,,,,,,,,,,,,,,,,,,,,,,,,,,,,,,,,,,,1618.7143116019997,None,1618.7143116019997,None,1618.7143116019997,None,c,1,0.836403387998871,1620.2472995669996,None,1620.2472995669996,None,1620.2472995669996,None,1621.1481318749993,None,1621.1481318749993,None,1621.1481318749993,None,1621.1481318749993,None,,,,,,,,,001,165,2020_Feb_25_1140,spring_faces,3.1.5,59.95561413983108,
condition files/Stage1_2.xlsx,,B1,T1,c,"['c', 'm']","['Clue', 'Monopoly']","[-0.15, 0.5]","[0.15, 0.5]",1,1,,,,,,,,,0,1,1,1,0,3,3,0,,,,,,,,,,,,,,,,,,,,,,,,,,,,,,,,,,,,,,,1623.1143622910004,None,1623.1143622910004,None,1623.1143622910004,None,c,1,1.123567357999491,1624.6482002810008,None,1624.6482002810008,None,1624.6482002810008,None,1625.8314711290004,None,1625.8314711290004,None,1625.8314711290004,None,1625.8314711290004,None,,,,,,,,,001,165,2020_Feb_25_1140,spring_faces,3.1.5,59.95561413983108,
condition files/Stage1_2.xlsx,,T4,B4,m,"['c', 'm']","['Clue', 'Monopoly']","[-0.15, 0.5]","[0.15, 0.5]",1,1,,,,,,,,,0,1,1,1,0,4,4,7,,,,,,,,,,,,,,,,,,,,,,,,,,,,,,,,,,,,,,,1627.7973908170006,None,1627.7973908170006,None,1627.7973908170006,None,m,1,1.6724834659999033,1629.3312301429996,None,1629.3312301429996,None,1629.3312301429996,None,1631.066171474,None,1631.066171474,None,1631.066171474,None,1631.066171474,None,,,,,,,,,001,165,2020_Feb_25_1140,spring_faces,3.1.5,59.95561413983108,
condition files/Stage1_2.xlsx,,T1,B2,m,"['c', 'm']","['Clue', 'Monopoly']","[-0.15, 0.5]","[0.15, 0.5]",1,1,,,,,,,,,0,1,1,1,0,5,5,2,,,,,,,,,,,,,,,,,,,,,,,,,,,,,,,,,,,,,,,1633.0311570110007,None,1633.0311570110007,None,1633.0311570110007,None,c,0,1.4454304650007543,1634.566255058,None,1634.566255058,None,1634.566255058,None,1636.0641279430001,None,1636.0641279430001,None,1636.0641279430001,None,1636.0641279430001,None,,,,,,,,,001,165,2020_Feb_25_1140,spring_faces,3.1.5,59.95561413983108,
condition files/Stage1_2.xlsx,,B2,T2,m,"['c', 'm']","['Clue', 'Monopoly']","[-0.15, 0.5]","[0.15, 0.5]",1,1,,,,,,,,,0,1,1,1,0,6,6,3,,,,,,,,,,,,,,,,,,,,,,,,,,,,,,,,,,,,,,,1638.0311711680006,None,1638.0311711680006,None,1638.0311711680006,None,c,0,0.8467593040004431,1639.5649221599997,None,1639.5649221599997,None,1639.5649221599997,None,1640.4643909789993,None,1640.4643909789993,None,1640.4643909789993,None,1640.4643909789993,None,,,,,,,,,001,165,2020_Feb_25_1140,spring_faces,3.1.5,59.95561413983108,
condition files/Stage1_2.xlsx,,T3,B3,c,"['c', 'm']","['Clue', 'Monopoly']","[-0.15, 0.5]","[0.15, 0.5]",1,1,,,,,,,,,0,1,1,1,0,7,7,4,,,,,,,,,,,,,,,,,,,,,,,,,,,,,,,,,,,,,,,1642.4309871780006,None,1642.4309871780006,None,1642.4309871780006,None,c,1,1.342733292000048,1643.9649387070003,None,1643.9649387070003,None,1643.9649387070003,None,1645.3672651479992,None,1645.3672651479992,None,1645.3672651479992,None,1645.3672651479992,None,,,,,,,,,001,165,2020_Feb_25_1140,spring_faces,3.1.5,59.95561413983108,
condition files/Stage1_1.xlsx,,B2,T1,m,"['c', 'm']","['Clue', 'Monopoly']","[-0.15, 0.5]","[0.15, 0.5]",1,1,,,,,,,,,0,2,2,2,0,0,0,2,,,,,,,,,,,,,,,,,,,,,,,,,,,,,,,,,,,,,,,1647.347481155999,None,1647.347481155999,None,1647.347481155999,None,c,0,0.9529422860014165,1648.882759013999,None,1648.882759013999,None,1648.882759013999,None,1649.9143941919992,None,1649.9143941919992,None,1649.9143941919992,None,1649.9143941919992,None,,,,,,,,,001,165,2020_Feb_25_1140,spring_faces,3.1.5,59.95561413983108,
condition files/Stage1_1.xlsx,,T2,B2,m,"['c', 'm']","['Clue', 'Monopoly']","[-0.15, 0.5]","[0.15, 0.5]",1,1,,,,,,,,,0,2,2,2,0,1,1,3,,,,,,,,,,,,,,,,,,,,,,,,,,,,,,,,,,,,,,,1651.8644448779996,None,1651.8644448779996,None,1651.8644448779996,None,m,1,1.430300833999354,1653.3974331509999,None,1653.3974331509999,None,1653.3974331509999,None,1654.8818507159995,None,1654.8818507159995,None,1654.8818507159995,None,1654.8818507159995,None,,,,,,,,,001,165,2020_Feb_25_1140,spring_faces,3.1.5,59.95561413983108,
condition files/Stage1_1.xlsx,,B4,T4,m,"['c', 'm']","['Clue', 'Monopoly']","[-0.15, 0.5]","[0.15, 0.5]",1,1,,,,,,,,,0,2,2,2,0,2,2,7,,,,,,,,,,,,,,,,,,,,,,,,,,,,,,,,,,,,,,,1656.8471142010003,None,1656.8471142010003,None,1656.8471142010003,None,m,1,0.8954054040004849,1658.3802833869995,None,1658.3802833869995,None,1658.3802833869995,None,1659.330755215,None,1659.330755215,None,1659.330755215,None,1659.330755215,None,,,,,,,,,001,165,2020_Feb_25_1140,spring_faces,3.1.5,59.95561413983108,
condition files/Stage1_1.xlsx,,B3,T3,c,"['c', 'm']","['Clue', 'Monopoly']","[-0.15, 0.5]","[0.15, 0.5]",1,1,,,,,,,,,0,2,2,2,0,3,3,4,,,,,,,,,,,,,,,,,,,,,,,,,,,,,,,,,,,,,,,1661.2976564130004,None,1661.2976564130004,None,1661.2976564130004,None,c,1,1.1782340310001018,1662.8334534259993,None,1662.8334534259993,None,1662.8334534259993,None,1664.0649554259999,None,1664.0649554259999,None,1664.0649554259999,None,1664.0649554259999,None,,,,,,,,,001,165,2020_Feb_25_1140,spring_faces,3.1.5,59.95561413983108,
condition files/Stage1_1.xlsx,,B1,T2,c,"['c', 'm']","['Clue', 'Monopoly']","[-0.15, 0.5]","[0.15, 0.5]",1,1,,,,,,,,,0,2,2,2,0,4,4,1,,,,,,,,,,,,,,,,,,,,,,,,,,,,,,,,,,,,,,,1666.0309373839991,None,1666.0309373839991,None,1666.0309373839991,None,c,1,0.9249178499994741,1667.5668328640004,None,1667.5668328640004,None,1667.5668328640004,None,1668.5483131260007,None,1668.5483131260007,None,1668.5483131260007,None,1668.5483131260007,None,,,,,,,,,001,165,2020_Feb_25_1140,spring_faces,3.1.5,59.95561413983108,
condition files/Stage1_1.xlsx,,T3,B4,c,"['c', 'm']","['Clue', 'Monopoly']","[-0.15, 0.5]","[0.15, 0.5]",1,1,,,,,,,,,0,2,2,2,0,5,5,5,,,,,,,,,,,,,,,,,,,,,,,,,,,,,,,,,,,,,,,1670.5136128880004,None,1670.5136128880004,None,1670.5136128880004,None,m,0,0.9083039819997794,1672.0474567279998,None,1672.0474567279998,None,1672.0474567279998,None,1673.0143304150006,None,1673.0143304150006,None,1673.0143304150006,None,1673.0143304150006,None,,,,,,,,,001,165,2020_Feb_25_1140,spring_faces,3.1.5,59.95561413983108,
condition files/Stage1_1.xlsx,,T4,B3,m,"['c', 'm']","['Clue', 'Monopoly']","[-0.15, 0.5]","[0.15, 0.5]",1,1,,,,,,,,,0,2,2,2,0,6,6,6,,,,,,,,,,,,,,,,,,,,,,,,,,,,,,,,,,,,,,,1674.9811895269995,None,1674.9811895269995,None,1674.9811895269995,None,m,1,1.7365521039992018,1676.5311225120004,None,1676.5311225120004,None,1676.5311225120004,None,1678.332235934,None,1678.332235934,None,1678.332235934,None,1678.332235934,None,,,,,,,,,001,165,2020_Feb_25_1140,spring_faces,3.1.5,59.95561413983108,
condition files/Stage1_1.xlsx,,T1,B1,c,"['c', 'm']","['Clue', 'Monopoly']","[-0.15, 0.5]","[0.15, 0.5]",1,1,,,,,,,,,0,2,2,2,0,7,7,0,,,,,,,,,,,,,,,,,,,,,,,,,,,,,,,,,,,,,,,1680.297540943,None,1680.297540943,None,1680.297540943,None,c,1,1.492236017000323,1681.831539072,None,1681.831539072,None,1681.831539072,None,1683.3804592159995,None,1683.3804592159995,None,1683.3804592159995,None,1683.3804592159995,None,,,,,,,,,001,165,2020_Feb_25_1140,spring_faces,3.1.5,59.95561413983108,
condition files/Stage1_2.xlsx,,T2,B1,c,"['c', 'm']","['Clue', 'Monopoly']","[-0.15, 0.5]","[0.15, 0.5]",1,1,,,,,,,,,0,3,3,3,0,0,0,1,,,,,,,,,,,,,,,,,,,,,,,,,,,,,,,,,,,,,,,1685.36414109,None,1685.36414109,None,1685.36414109,None,c,1,0.9855858070004615,1686.8981066340002,None,1686.8981066340002,None,1686.8981066340002,None,1687.947244601999,None,1687.947244601999,None,1687.947244601999,None,1687.947244601999,None,,,,,,,,,001,165,2020_Feb_25_1140,spring_faces,3.1.5,59.95561413983108,
condition files/Stage1_2.xlsx,,B1,T1,c,"['c', 'm']","['Clue', 'Monopoly']","[-0.15, 0.5]","[0.15, 0.5]",1,1,,,,,,,,,0,3,3,3,0,1,1,0,,,,,,,,,,,,,,,,,,,,,,,,,,,,,,,,,,,,,,,1689.9146909560004,None,1689.9146909560004,None,1689.9146909560004,None,c,1,0.8829314439990412,1691.4487133149996,None,1691.4487133149996,None,1691.4487133149996,None,1692.3980333969994,None,1692.3980333969994,None,1692.3980333969994,None,1692.3980333969994,None,,,,,,,,,001,165,2020_Feb_25_1140,spring_faces,3.1.5,59.95561413983108,
condition files/Stage1_2.xlsx,,T1,B2,m,"['c', 'm']","['Clue', 'Monopoly']","[-0.15, 0.5]","[0.15, 0.5]",1,1,,,,,,,,,0,3,3,3,0,2,2,2,,,,,,,,,,,,,,,,,,,,,,,,,,,,,,,,,,,,,,,1694.3641795210006,None,1694.3641795210006,None,1694.3641795210006,None,m,1,2.2254903400007606,1695.898270312,None,1695.898270312,None,1695.898270312,None,1698.197838009999,None,1698.197838009999,None,1698.197838009999,None,1698.197838009999,None,,,,,,,,,001,165,2020_Feb_25_1140,spring_faces,3.1.5,59.95561413983108,
condition files/Stage1_2.xlsx,,B4,T3,c,"['c', 'm']","['Clue', 'Monopoly']","[-0.15, 0.5]","[0.15, 0.5]",1,1,,,,,,,,,0,3,3,3,0,3,3,5,,,,,,,,,,,,,,,,,,,,,,,,,,,,,,,,,,,,,,,1700.1476606039996,None,1700.1476606039996,None,1700.1476606039996,None,c,1,0.763028839000981,1701.6806654779994,None,1701.6806654779994,None,1701.6806654779994,None,1702.498324148999,None,1702.498324148999,None,1702.498324148999,None,1702.498324148999,None,,,,,,,,,001,165,2020_Feb_25_1140,spring_faces,3.1.5,59.95561413983108,
condition files/Stage1_2.xlsx,,B2,T2,m,"['c', 'm']","['Clue', 'Monopoly']","[-0.15, 0.5]","[0.15, 0.5]",1,1,,,,,,,,,0,3,3,3,0,4,4,3,,,,,,,,,,,,,,,,,,,,,,,,,,,,,,,,,,,,,,,1704.4644771740004,None,1704.4644771740004,None,1704.4644771740004,None,m,1,0.9100882929997169,1705.9975883890002,None,1705.9975883890002,None,1705.9975883890002,None,1706.967287947,None,1706.967287947,None,1706.967287947,None,1706.967287947,None,,,,,,,,,001,165,2020_Feb_25_1140,spring_faces,3.1.5,59.95561413983108,
condition files/Stage1_2.xlsx,,T4,B4,m,"['c', 'm']","['Clue', 'Monopoly']","[-0.15, 0.5]","[0.15, 0.5]",1,1,,,,,,,,,0,3,3,3,0,5,5,7,,,,,,,,,,,,,,,,,,,,,,,,,,,,,,,,,,,,,,,1708.9304490729992,None,1708.9304490729992,None,1708.9304490729992,None,c,0,0.8571636479991867,1710.4666126039992,None,1710.4666126039992,None,1710.4666126039992,None,1711.3808719499993,None,1711.3808719499993,None,1711.3808719499993,None,1711.3808719499993,None,,,,,,,,,001,165,2020_Feb_25_1140,spring_faces,3.1.5,59.95561413983108,
condition files/Stage1_2.xlsx,,T3,B3,c,"['c', 'm']","['Clue', 'Monopoly']","[-0.15, 0.5]","[0.15, 0.5]",1,1,,,,,,,,,0,3,3,3,0,6,6,4,,,,,,,,,,,,,,,,,,,,,,,,,,,,,,,,,,,,,,,1713.3478777910004,None,1713.3478777910004,None,1713.3478777910004,None,c,1,0.6181834429989976,1714.8814256549995,None,1714.8814256549995,None,1714.8814256549995,None,1715.5648756699993,None,1715.5648756699993,None,1715.5648756699993,None,1715.5648756699993,None,,,,,,,,,001,165,2020_Feb_25_1140,spring_faces,3.1.5,59.95561413983108,
condition files/Stage1_2.xlsx,,B3,T4,m,"['c', 'm']","['Clue', 'Monopoly']","[-0.15, 0.5]","[0.15, 0.5]",1,1,,,,,,,,,0,3,3,3,0,7,7,6,,,,,,,,,,,,,,,,,,,,,,,,,,,,,,,,,,,,,,,1717.5305780599992,None,1717.5305780599992,None,1717.5305780599992,None,c,0,0.7853126530008012,1719.066392453,None,1719.066392453,None,1719.066392453,None,1719.917375895,None,1719.917375895,None,1719.917375895,None,1719.917375895,None,,,,,,,,,001,165,2020_Feb_25_1140,spring_faces,3.1.5,59.95561413983108,
condition files/Stage1_1.xlsx,,T2,B2,m,"['c', 'm']","['Clue', 'Monopoly']","[-0.15, 0.5]","[0.15, 0.5]",1,1,,,,,,,,,0,4,4,4,0,0,0,3,,,,,,,,,,,,,,,,,,,,,,,,,,,,,,,,,,,,,,,1721.8972738779994,None,1721.8972738779994,None,1721.8972738779994,None,m,1,1.0121211299992865,1723.4475856120007,None,1723.4475856120007,None,1723.4475856120007,None,1724.5146769000003,None,1724.5146769000003,None,1724.5146769000003,None,1724.5146769000003,None,,,,,,,,,001,165,2020_Feb_25_1140,spring_faces,3.1.5,59.95561413983108,
condition files/Stage1_1.xlsx,,T3,B4,c,"['c', 'm']","['Clue', 'Monopoly']","[-0.15, 0.5]","[0.15, 0.5]",1,1,,,,,,,,,0,4,4,4,0,1,1,5,,,,,,,,,,,,,,,,,,,,,,,,,,,,,,,,,,,,,,,1726.48093668,None,1726.48093668,None,1726.48093668,None,c,1,1.4192722750012763,1728.0164302930007,None,1728.0164302930007,None,1728.0164302930007,None,1729.499490619999,None,1729.499490619999,None,1729.499490619999,None,1729.499490619999,None,,,,,,,,,001,165,2020_Feb_25_1140,spring_faces,3.1.5,59.95561413983108,
condition files/Stage1_1.xlsx,,T1,B1,c,"['c', 'm']","['Clue', 'Monopoly']","[-0.15, 0.5]","[0.15, 0.5]",1,1,,,,,,,,,0,4,4,4,0,2,2,0,,,,,,,,,,,,,,,,,,,,,,,,,,,,,,,,,,,,,,,1731.4637388650008,None,1731.4637388650008,None,1731.4637388650008,None,c,1,0.9500579710002057,1732.9976348189994,None,1732.9976348189994,None,1732.9976348189994,None,1733.997474149999,None,1733.997474149999,None,1733.997474149999,None,1733.997474149999,None,,,,,,,,,001,165,2020_Feb_25_1140,spring_faces,3.1.5,59.95561413983108,
condition files/Stage1_1.xlsx,,T4,B3,m,"['c', 'm']","['Clue', 'Monopoly']","[-0.15, 0.5]","[0.15, 0.5]",1,1,,,,,,,,,0,4,4,4,0,3,3,6,,,,,,,,,,,,,,,,,,,,,,,,,,,,,,,,,,,,,,,1735.9641913579999,None,1735.9641913579999,None,1735.9641913579999,None,m,1,1.0579600140008552,1737.4977852939992,None,1737.4977852939992,None,1737.4977852939992,None,1738.630948648999,None,1738.630948648999,None,1738.630948648999,None,1738.630948648999,None,,,,,,,,,001,165,2020_Feb_25_1140,spring_faces,3.1.5,59.95561413983108,
condition files/Stage1_1.xlsx,,B1,T2,c,"['c', 'm']","['Clue', 'Monopoly']","[-0.15, 0.5]","[0.15, 0.5]",1,1,,,,,,,,,0,4,4,4,0,4,4,1,,,,,,,,,,,,,,,,,,,,,,,,,,,,,,,,,,,,,,,1740.581001347,None,1740.581001347,None,1740.581001347,None,c,1,0.8571266170001763,1742.1146277829994,None,1742.1146277829994,None,1742.1146277829994,None,1743.0312955219997,None,1743.0312955219997,None,1743.0312955219997,None,1743.0312955219997,None,,,,,,,,,001,165,2020_Feb_25_1140,spring_faces,3.1.5,59.95561413983108,
condition files/Stage1_1.xlsx,,B2,T1,m,"['c', 'm']","['Clue', 'Monopoly']","[-0.15, 0.5]","[0.15, 0.5]",1,1,,,,,,,,,0,4,4,4,0,5,5,2,,,,,,,,,,,,,,,,,,,,,,,,,,,,,,,,,,,,,,,1744.9970427249991,None,1744.9970427249991,None,1744.9970427249991,None,c,0,0.9205642000015359,1746.5311486459996,None,1746.5311486459996,None,1746.5311486459996,None,1747.5311903479997,None,1747.5311903479997,None,1747.5311903479997,None,1747.5311903479997,None,,,,,,,,,001,165,2020_Feb_25_1140,spring_faces,3.1.5,59.95561413983108,
condition files/Stage1_1.xlsx,,B4,T4,m,"['c', 'm']","['Clue', 'Monopoly']","[-0.15, 0.5]","[0.15, 0.5]",1,1,,,,,,,,,0,4,4,4,0,6,6,7,,,,,,,,,,,,,,,,,,,,,,,,,,,,,,,,,,,,,,,1749.4809851320006,None,1749.4809851320006,None,1749.4809851320006,None,m,1,0.6918008209995605,1751.0159587260005,None,1751.0159587260005,None,1751.0159587260005,None,1751.7644759039995,None,1751.7644759039995,None,1751.7644759039995,None,1751.7644759039995,None,,,,,,,,,001,165,2020_Feb_25_1140,spring_faces,3.1.5,59.95561413983108,
condition files/Stage1_1.xlsx,,B3,T3,c,"['c', 'm']","['Clue', 'Monopoly']","[-0.15, 0.5]","[0.15, 0.5]",1,1,,,,,,,,,0,4,4,4,0,7,7,4,,,,,,,,,,,,,,,,,,,,,,,,,,,,,,,,,,,,,,,1753.7310522829994,None,1753.7310522829994,None,1753.7310522829994,None,c,1,0.7628494990003674,1755.26488092,None,1755.26488092,None,1755.26488092,None,1756.0826399029993,None,1756.0826399029993,None,1756.0826399029993,None,1756.0826399029993,None,,,,,,,,,001,165,2020_Feb_25_1140,spring_faces,3.1.5,59.95561413983108,
condition files/Stage1_2.xlsx,,B3,T4,m,"['c', 'm']","['Clue', 'Monopoly']","[-0.15, 0.5]","[0.15, 0.5]",1,1,,,,,,,,,0,5,5,5,0,0,0,6,,,,,,,,,,,,,,,,,,,,,,,,,,,,,,,,,,,,,,,1758.0643488229998,None,1758.0643488229998,None,1758.0643488229998,None,m,1,0.5238205360001302,1759.5999347840007,None,1759.5999347840007,None,1759.5999347840007,None,1760.1831139240003,None,1760.1831139240003,None,1760.1831139240003,None,1760.1831139240003,None,,,,,,,,,001,165,2020_Feb_25_1140,spring_faces,3.1.5,59.95561413983108,
condition files/Stage1_2.xlsx,,T1,B2,m,"['c', 'm']","['Clue', 'Monopoly']","[-0.15, 0.5]","[0.15, 0.5]",1,1,,,,,,,,,0,5,5,5,0,1,1,2,,,,,,,,,,,,,,,,,,,,,,,,,,,,,,,,,,,,,,,1762.1480702949993,None,1762.1480702949993,None,1762.1480702949993,None,c,0,0.8417385869997815,1763.6820442690005,None,1763.6820442690005,None,1763.6820442690005,None,1764.5816590590002,None,1764.5816590590002,None,1764.5816590590002,None,1764.5816590590002,None,,,,,,,,,001,165,2020_Feb_25_1140,spring_faces,3.1.5,59.95561413983108,
condition files/Stage1_2.xlsx,,T2,B1,c,"['c', 'm']","['Clue', 'Monopoly']","[-0.15, 0.5]","[0.15, 0.5]",1,1,,,,,,,,,0,5,5,5,0,2,2,1,,,,,,,,,,,,,,,,,,,,,,,,,,,,,,,,,,,,,,,1766.5476474940006,None,1766.5476474940006,None,1766.5476474940006,None,m,0,0.6026821649993508,1768.0810169079996,None,1768.0810169079996,None,1768.0810169079996,None,1768.750582834,None,1768.750582834,None,1768.750582834,None,1768.750582834,None,,,,,,,,,001,165,2020_Feb_25_1140,spring_faces,3.1.5,59.95561413983108,
condition files/Stage1_2.xlsx,,B4,T3,c,"['c', 'm']","['Clue', 'Monopoly']","[-0.15, 0.5]","[0.15, 0.5]",1,1,,,,,,,,,0,5,5,5,0,3,3,5,,,,,,,,,,,,,,,,,,,,,,,,,,,,,,,,,,,,,,,1770.714463663,None,1770.714463663,None,1770.714463663,None,c,1,0.6924186169999302,1772.2473541349991,None,1772.2473541349991,None,1772.2473541349991,None,1772.9980598109996,None,1772.9980598109996,None,1772.9980598109996,None,1772.9980598109996,None,,,,,,,,,001,165,2020_Feb_25_1140,spring_faces,3.1.5,59.95561413983108,
condition files/Stage1_2.xlsx,,T4,B4,m,"['c', 'm']","['Clue', 'Monopoly']","[-0.15, 0.5]","[0.15, 0.5]",1,1,,,,,,,,,0,5,5,5,0,4,4,7,,,,,,,,,,,,,,,,,,,,,,,,,,,,,,,,,,,,,,,1774.9644561820005,None,1774.9644561820005,None,1774.9644561820005,None,c,0,0.5835096320006414,1776.5001833099996,None,1776.5001833099996,None,1776.5001833099996,None,1777.149918604,None,1777.149918604,None,1777.149918604,None,1777.149918604,None,,,,,,,,,001,165,2020_Feb_25_1140,spring_faces,3.1.5,59.95561413983108,
condition files/Stage1_2.xlsx,,B2,T2,m,"['c', 'm']","['Clue', 'Monopoly']","[-0.15, 0.5]","[0.15, 0.5]",1,1,,,,,,,,,0,5,5,5,0,5,5,3,,,,,,,,,,,,,,,,,,,,,,,,,,,,,,,,,,,,,,,1779.1137947379993,None,1779.1137947379993,None,1779.1137947379993,None,m,1,0.641994989999148,1780.6497857840004,None,1780.6497857840004,None,1780.6497857840004,None,1781.3472834149998,None,1781.3472834149998,None,1781.3472834149998,None,1781.3472834149998,None,,,,,,,,,001,165,2020_Feb_25_1140,spring_faces,3.1.5,59.95561413983108,
condition files/Stage1_2.xlsx,,B1,T1,c,"['c', 'm']","['Clue', 'Monopoly']","[-0.15, 0.5]","[0.15, 0.5]",1,1,,,,,,,,,0,5,5,5,0,6,6,0,,,,,,,,,,,,,,,,,,,,,,,,,,,,,,,,,,,,,,,1783.3143530899997,None,1783.3143530899997,None,1783.3143530899997,None,c,1,0.796282240000437,1784.8474138010006,None,1784.8474138010006,None,1784.8474138010006,None,1785.7146473539997,None,1785.7146473539997,None,1785.7146473539997,None,1785.7146473539997,None,,,,,,,,,001,165,2020_Feb_25_1140,spring_faces,3.1.5,59.95561413983108,
condition files/Stage1_2.xlsx,,T3,B3,c,"['c', 'm']","['Clue', 'Monopoly']","[-0.15, 0.5]","[0.15, 0.5]",1,1,,,,,,,,,0,5,5,5,0,7,7,4,,,,,,,,,,,,,,,,,,,,,,,,,,,,,,,,,,,,,,,1787.6644243739993,None,1787.6644243739993,None,1787.6644243739993,None,c,1,0.6220334690005984,1789.197674261999,None,1789.197674261999,None,1789.197674261999,None,1789.881280956999,None,1789.881280956999,None,1789.881280956999,None,1789.881280956999,None,,,,,,,,,001,165,2020_Feb_25_1140,spring_faces,3.1.5,59.95561413983108,
condition files/Stage1_1.xlsx,,B1,T2,c,"['c', 'm']","['Clue', 'Monopoly']","[-0.15, 0.5]","[0.15, 0.5]",1,1,,,,,,,,,0,6,6,6,0,0,0,1,,,,,,,,,,,,,,,,,,,,,,,,,,,,,,,,,,,,,,,1791.863825598999,None,1791.863825598999,None,1791.863825598999,None,c,1,0.8856939580000471,1793.3979991630003,None,1793.3979991630003,None,1793.3979991630003,None,1794.3479834980008,None,1794.3479834980008,None,1794.3479834980008,None,1794.3479834980008,None,,,,,,,,,001,165,2020_Feb_25_1140,spring_faces,3.1.5,59.95561413983108,
condition files/Stage1_1.xlsx,,B3,T3,c,"['c', 'm']","['Clue', 'Monopoly']","[-0.15, 0.5]","[0.15, 0.5]",1,1,,,,,,,,,0,6,6,6,0,1,1,4,,,,,,,,,,,,,,,,,,,,,,,,,,,,,,,,,,,,,,,1796.3143003690002,None,1796.3143003690002,None,1796.3143003690002,None,m,0,0.8040888849991461,1797.847592045,None,1797.847592045,None,1797.847592045,None,1798.7143276860006,None,1798.7143276860006,None,1798.7143276860006,None,1798.7143276860006,None,,,,,,,,,001,165,2020_Feb_25_1140,spring_faces,3.1.5,59.95561413983108,
condition files/Stage1_1.xlsx,,T2,B2,m,"['c', 'm']","['Clue', 'Monopoly']","[-0.15, 0.5]","[0.15, 0.5]",1,1,,,,,,,,,0,6,6,6,0,2,2,3,,,,,,,,,,,,,,,,,,,,,,,,,,,,,,,,,,,,,,,1800.6809972739993,None,1800.6809972739993,None,1800.6809972739993,None,c,0,0.6602467789998627,1802.2315115349993,None,1802.2315115349993,None,1802.2315115349993,None,1802.9493988310005,None,1802.9493988310005,None,1802.9493988310005,None,1802.9493988310005,None,,,,,,,,,001,165,2020_Feb_25_1140,spring_faces,3.1.5,59.95561413983108,
condition files/Stage1_1.xlsx,,T4,B3,m,"['c', 'm']","['Clue', 'Monopoly']","[-0.15, 0.5]","[0.15, 0.5]",1,1,,,,,,,,,0,6,6,6,0,3,3,6,,,,,,,,,,,,,,,,,,,,,,,,,,,,,,,,,,,,,,,1804.9142621600004,None,1804.9142621600004,None,1804.9142621600004,None,m,1,0.41174563400090847,1806.4479337770008,None,1806.4479337770008,None,1806.4479337770008,None,1806.9147662350006,None,1806.9147662350006,None,1806.9147662350006,None,1806.9147662350006,None,,,,,,,,,001,165,2020_Feb_25_1140,spring_faces,3.1.5,59.95561413983108,
condition files/Stage1_1.xlsx,,T1,B1,c,"['c', 'm']","['Clue', 'Monopoly']","[-0.15, 0.5]","[0.15, 0.5]",1,1,,,,,,,,,0,6,6,6,0,4,4,0,,,,,,,,,,,,,,,,,,,,,,,,,,,,,,,,,,,,,,,1808.8810053109992,None,1808.8810053109992,None,1808.8810053109992,None,c,1,1.4210343670001748,1810.4146670629998,None,1810.4146670629998,None,1810.4146670629998,None,1811.8986097800007,None,1811.8986097800007,None,1811.8986097800007,None,1811.8986097800007,None,,,,,,,,,001,165,2020_Feb_25_1140,spring_faces,3.1.5,59.95561413983108,
