condsFile,subStage,cue1,cue2,correct,responseKeys,responseNames,cue1Position,cue2Position,cue1Opacity,cue2Opacity,stageLoop0.thisRepN,stageLoop0.thisTrialN,stageLoop0.thisN,stageLoop0.thisIndex,blockLoop0.thisRepN,blockLoop0.thisTrialN,blockLoop0.thisN,blockLoop0.thisIndex,stage1Loop.thisRepN,stage1Loop.thisTrialN,stage1Loop.thisN,stage1Loop.thisIndex,blockLoop1.thisRepN,blockLoop1.thisTrialN,blockLoop1.thisN,blockLoop1.thisIndex,stage2Loop.thisRepN,stage2Loop.thisTrialN,stage2Loop.thisN,stage2Loop.thisIndex,blockLoop2.thisRepN,blockLoop2.thisTrialN,blockLoop2.thisN,blockLoop2.thisIndex,testLoop.thisRepN,testLoop.thisTrialN,testLoop.thisN,testLoop.thisIndex,blockLoopTest.thisRepN,blockLoopTest.thisTrialN,blockLoopTest.thisN,blockLoopTest.thisIndex,cuePics,id_instr_text.started,id_instr_text.stopped,space_to_continue_2.started,space_to_continue_2.stopped,end_instructions_resp_3.keys,end_instructions_resp_3.rt,end_instructions_resp_3.started,end_instructions_resp_3.stopped,id_input_instr.started,id_input_instr.stopped,id_input_rect.started,id_input_rect.stopped,id_input_resp.keys,id_input_resp.rt,id_input_resp.started,id_input_resp.stopped,sonaID,id_input_text.started,id_input_text.stopped,final_text.started,final_text.stopped,instructions.started,instructions.stopped,end_instructions_resp.keys,end_instructions_resp.rt,end_instructions_resp.started,end_instructions_resp.stopped,space_to_continue.started,space_to_continue.stopped,instructions_stage0.started,instructions_stage0.stopped,end_instructions_resp_stage0.keys,end_instructions_resp_stage0.rt,end_instructions_resp_stage0.started,end_instructions_resp_stage0.stopped,space_to_continue_stage0.started,space_to_continue_stage0.stopped,text.started,text.stopped,resp_text1.started,resp_text1.stopped,resp_text2.started,resp_text2.stopped,trial_resp.keys,trial_resp.corr,trial_resp.rt,trial_resp.started,trial_resp.stopped,cue1Image.started,cue1Image.stopped,cue2Image.started,cue2Image.stopped,cue1Image_fb.started,cue1Image_fb.stopped,cue2Image_fb.started,cue2Image_fb.stopped,fb_text_answer.started,fb_text_answer.stopped,feedback_image.started,feedback_image.stopped,instructions_stage1.started,instructions_stage1.stopped,end_instructions_resp_stage1.keys,end_instructions_resp_stage1.rt,end_instructions_resp_stage1.started,end_instructions_resp_stage1.stopped,space_to_continue_stage1.started,space_to_continue_stage1.stopped,instructions_2.started,instructions_2.stopped,end_instructions_resp_2.keys,end_instructions_resp_2.rt,end_instructions_resp_2.started,end_instructions_resp_2.stopped,press_space_to_continue_stage2.started,press_space_to_continue_stage2.stopped,instructions_testStage1.started,instructions_testStage1.stopped,end_instructions_resp_test1.keys,end_instructions_resp_test1.rt,end_instructions_resp_test1.started,end_instructions_resp_test1.stopped,press_space_to_continue_test1.started,press_space_to_continue_test1.stopped,cue1Image_testChoice.started,cue1Image_testChoice.stopped,cue2Image_testChoice.started,cue2Image_testChoice.stopped,test_resp.keys,test_resp.corr,test_resp.rt,test_resp.started,test_resp.stopped,cue1Image_testConf.started,cue1Image_testConf.stopped,cue2Image_testConf.started,cue2Image_testConf.stopped,conf_reminder.started,conf_reminder.stopped,conf_rating.response,conf_rating.rt,conf_rating.started,conf_rating.stopped,session,participant,date,expName,psychopyVersion,frameRate,
,,,,,,,,,,,,,,,,,,,,,,,,,,,,,,,,,,,,,,,,,,,"{'none': 'pictures/20M_AN_C.png', 'alpha': 'pictures/SHINEd_melon.png', 'beta': 'pictures/SHINEd_apple.png', 'theta': 'pictures/SHINEd_pear.png', 'phi': 'pictures/SHINEd_pepper.png', 'T1': 'pictures/34M_AN_C.png', 'T2': 'pictures/23M_AN_C.png', 'T3': 'pictures/37M_AN_C.png', 'T4': 'pictures/38M_AN_C.png', 'T5': 'pictures/25M_AN_C.png', 'T6': 'pictures/26M_AN_C.png', 'B1': 'pictures/22M_NE_C.png', 'B2': 'pictures/20M_NE_C.png', 'B3': 'pictures/32M_NE_C.png', 'B4': 'pictures/31M_NE_C.png', 'B5': 'pictures/33M_NE_C.png', 'B6': 'pictures/36M_NE_C.png'}",942.1399801000007,None,947.1234216450011,None,space,377.250449313,947.1234216450011,None,,,,,,,,,,,,,,,,,,,,,,,,,,,,,,,,,,,,,,,,,,,,,,,,,,,,,,,,,,,,,,,,,,,,,,,,,,,,,,,,,,,,,,,,,,,,,,,,001,166,2020_Feb_25_1213,spring_faces,3.1.5,60.09691408654697,
,,,,,,,,,,,,,,,,,,,,,,,,,,,,,,,,,,,,,,,,,,,,,,,,,,,,1324.772851455,None,1324.772851455,None,"['0', '6', '2', '8', 'e', 'l', 'n', 'o', 't', 'backspace', '0', '6', '0', '9', 'backspace', 'backspace', '2', '8', 'e', 'l', 'a', 'c', 'a', 'backspace', '0', '6', '2', '8', 'e', 'l', 'n', 'o', 't']","[16.961031863000244, 17.233005876998504, 30.09701182199933, 30.27301650299887, 47.16894469399995, 47.280968285998824, 55.36103566999918, 55.7130097729987, 56.12899359399853, 59.889042283999515, 81.12099609999859, 81.23299473799852, 83.64899609999884, 83.82504197100025, 85.47299665599894, 85.6170244519999, 87.12096737399952, 87.26498175599954, 90.08096132899846, 90.24098789599884, 90.96097687699876, 91.58494782699927, 93.2170085029993, 95.95296399799918, 106.12896059599916, 106.36894509000012, 107.96895073699852, 108.0971679969989, 112.48098128299898, 112.64103041999988, 116.24100032699971, 116.54496690399901, 116.84900399599974]",1324.772851455,None,,,,,,,,,,,,,,,,,,,,,,,,,,,,,,,,,,,,,,,,,,,,,,,,,,,,,,,,,,,,,,,,,,,,,,,,,,,,,,,,,,,,,,,,001,166,2020_Feb_25_1213,spring_faces,3.1.5,60.09691408654697,
,,,,,,,,,,,,,,,,,,,,,,,,,,,,,,,,,,,,,,,,,,,,,,,,,,,,,,,,,,,,0628elnot,1324.772851455,None,1324.772851455,None,1446.6899283790008,None,space,8.220113463001326,1451.6897669629998,None,,,,,,,,,,,,,,,,,,,,,,,,,,,,,,,,,,,,,,,,,,,,,,,,,,,,,,,,,,,,,,,,,,,,,,,,,,,,,001,166,2020_Feb_25_1213,spring_faces,3.1.5,60.09691408654697,
,,,,,,,,,,,,,,,,,,,,,,,,,,,,,,,,,,,,,,,,,,,,,,,,,,,,,,,,,,,,,,,,,,,,,,,1451.6897669629998,None,1459.9566809420012,None,space,3.7049701119995007,1464.956896093001,None,,,,,,,,,,,,,,,,,,,,,,,,,,,,,,,,,,,,,,,,,,,,,,,,,,,,,,,,,,,,,,,,,,,,,001,166,2020_Feb_25_1213,spring_faces,3.1.5,60.09691408654697,
condition files/Stage0a.xlsx,0a,alpha,none,h,"['h', 'g']","['Chess', 'Go']","[0, 0.5]","[0, 0]",1,0,0,0,0,0,0,0,0,0,,,,,,,,,,,,,,,,,,,,,,,,,,,,,,,,,,,,,,,,,,,,,,,,,,,,,,,,,,,,,1464.956896093001,None,1468.7564239910007,None,1468.7564239910007,None,1468.7564239910007,None,h,1,1.3475234910001745,1470.306302078001,None,1470.306302078001,None,1470.306302078001,None,1471.7234018890013,None,1471.7234018890013,None,1471.7234018890013,None,1471.7234018890013,None,,,,,,,,,,,,,,,,,,,,,,,,,,,,,,,,,,,,,,,,,,,,001,166,2020_Feb_25_1213,spring_faces,3.1.5,60.09691408654697,
condition files/Stage0a.xlsx,0a,beta,none,g,"['h', 'g']","['Chess', 'Go']","[0, 0.5]","[0, 0]",1,0,0,0,0,0,0,1,1,1,,,,,,,,,,,,,,,,,,,,,,,,,,,,,,,,,,,,,,,,,,,,,,,,,,,,,,,,,,,,,,,1473.6729037050009,None,1473.6729037050009,None,1473.6729037050009,None,g,1,1.2141829140000482,1475.2076588660002,None,1475.2076588660002,None,1475.2076588660002,None,1476.4728046029995,None,1476.4728046029995,None,1476.4728046029995,None,1476.4728046029995,None,,,,,,,,,,,,,,,,,,,,,,,,,,,,,,,,,,,,,,,,,,,,001,166,2020_Feb_25_1213,spring_faces,3.1.5,60.09691408654697,
condition files/Stage0a.xlsx,0a,alpha,none,h,"['h', 'g']","['Chess', 'Go']","[0, 0.5]","[0, 0]",1,0,0,1,1,1,0,0,0,0,,,,,,,,,,,,,,,,,,,,,,,,,,,,,,,,,,,,,,,,,,,,,,,,,,,,,,,,,,,,,,,1478.4566846409998,None,1478.4566846409998,None,1478.4566846409998,None,h,1,0.6403920289994858,1479.9894356730001,None,1479.9894356730001,None,1479.9894356730001,None,1480.690055125,None,1480.690055125,None,1480.690055125,None,1480.690055125,None,,,,,,,,,,,,,,,,,,,,,,,,,,,,,,,,,,,,,,,,,,,,001,166,2020_Feb_25_1213,spring_faces,3.1.5,60.09691408654697,
condition files/Stage0a.xlsx,0a,beta,none,g,"['h', 'g']","['Chess', 'Go']","[0, 0.5]","[0, 0]",1,0,0,1,1,1,0,1,1,1,,,,,,,,,,,,,,,,,,,,,,,,,,,,,,,,,,,,,,,,,,,,,,,,,,,,,,,,,,,,,,,1482.6563103669996,None,1482.6563103669996,None,1482.6563103669996,None,g,1,0.7755436820007162,1484.1902806939997,None,1484.1902806939997,None,1484.1902806939997,None,1485.022954641001,None,1485.022954641001,None,1485.022954641001,None,1485.022954641001,None,,,,,,,,,,,,,,,,,,,,,,,,,,,,,,,,,,,,,,,,,,,,001,166,2020_Feb_25_1213,spring_faces,3.1.5,60.09691408654697,
condition files/Stage0a.xlsx,0a,alpha,none,h,"['h', 'g']","['Chess', 'Go']","[0, 0.5]","[0, 0]",1,0,0,2,2,2,0,0,0,0,,,,,,,,,,,,,,,,,,,,,,,,,,,,,,,,,,,,,,,,,,,,,,,,,,,,,,,,,,,,,,,1487.0067094750011,None,1487.0067094750011,None,1487.0067094750011,None,h,1,0.6662978120002663,1488.5395249440007,None,1488.5395249440007,None,1488.5395249440007,None,1489.2557868290005,None,1489.2557868290005,None,1489.2557868290005,None,1489.2557868290005,None,,,,,,,,,,,,,,,,,,,,,,,,,,,,,,,,,,,,,,,,,,,,001,166,2020_Feb_25_1213,spring_faces,3.1.5,60.09691408654697,
condition files/Stage0a.xlsx,0a,beta,none,g,"['h', 'g']","['Chess', 'Go']","[0, 0.5]","[0, 0]",1,0,0,2,2,2,0,1,1,1,,,,,,,,,,,,,,,,,,,,,,,,,,,,,,,,,,,,,,,,,,,,,,,,,,,,,,,,,,,,,,,1491.2224024320003,None,1491.2224024320003,None,1491.2224024320003,None,g,1,0.8654315939984372,1492.7563937859995,None,1492.7563937859995,None,1492.7563937859995,None,1493.6728299349998,None,1493.6728299349998,None,1493.6728299349998,None,1493.6728299349998,None,,,,,,,,,,,,,,,,,,,,,,,,,,,,,,,,,,,,,,,,,,,,001,166,2020_Feb_25_1213,spring_faces,3.1.5,60.09691408654697,
condition files/Stage0a.xlsx,0a,beta,none,g,"['h', 'g']","['Chess', 'Go']","[0, 0.5]","[0, 0]",1,0,0,3,3,3,0,0,0,1,,,,,,,,,,,,,,,,,,,,,,,,,,,,,,,,,,,,,,,,,,,,,,,,,,,,,,,,,,,,,,,1495.6568009020011,None,1495.6568009020011,None,1495.6568009020011,None,g,1,0.7040235160002339,1497.189804099,None,1497.189804099,None,1497.189804099,None,1497.9564648409996,None,1497.9564648409996,None,1497.9564648409996,None,1497.9564648409996,None,,,,,,,,,,,,,,,,,,,,,,,,,,,,,,,,,,,,,,,,,,,,001,166,2020_Feb_25_1213,spring_faces,3.1.5,60.09691408654697,
condition files/Stage0a.xlsx,0a,alpha,none,h,"['h', 'g']","['Chess', 'Go']","[0, 0.5]","[0, 0]",1,0,0,3,3,3,0,1,1,0,,,,,,,,,,,,,,,,,,,,,,,,,,,,,,,,,,,,,,,,,,,,,,,,,,,,,,,,,,,,,,,1499.9223564510012,None,1499.9223564510012,None,1499.9223564510012,None,h,1,0.5015287269998225,1501.4562733750008,None,1501.4562733750008,None,1501.4562733750008,None,1502.0231899940009,None,1502.0231899940009,None,1502.0231899940009,None,1502.0231899940009,None,,,,,,,,,,,,,,,,,,,,,,,,,,,,,,,,,,,,,,,,,,,,001,166,2020_Feb_25_1213,spring_faces,3.1.5,60.09691408654697,
condition files/Stage0a.xlsx,0a,beta,none,g,"['h', 'g']","['Chess', 'Go']","[0, 0.5]","[0, 0]",1,0,0,4,4,4,0,0,0,1,,,,,,,,,,,,,,,,,,,,,,,,,,,,,,,,,,,,,,,,,,,,,,,,,,,,,,,,,,,,,,,1504.0066477700002,None,1504.0066477700002,None,1504.0066477700002,None,h,0,1.1385648790001142,1505.5392656510012,None,1505.5392656510012,None,1505.5392656510012,None,1506.7403360480002,None,1506.7403360480002,None,1506.7403360480002,None,1506.7403360480002,None,,,,,,,,,,,,,,,,,,,,,,,,,,,,,,,,,,,,,,,,,,,,001,166,2020_Feb_25_1213,spring_faces,3.1.5,60.09691408654697,
condition files/Stage0a.xlsx,0a,alpha,none,h,"['h', 'g']","['Chess', 'Go']","[0, 0.5]","[0, 0]",1,0,0,4,4,4,0,1,1,0,,,,,,,,,,,,,,,,,,,,,,,,,,,,,,,,,,,,,,,,,,,,,,,,,,,,,,,,,,,,,,,1508.7060330960012,None,1508.7060330960012,None,1508.7060330960012,None,h,1,0.9503673630006233,1510.239477563,None,1510.239477563,None,1510.239477563,None,1511.2397170349996,None,1511.2397170349996,None,1511.2397170349996,None,1511.2397170349996,None,,,,,,,,,,,,,,,,,,,,,,,,,,,,,,,,,,,,,,,,,,,,001,166,2020_Feb_25_1213,spring_faces,3.1.5,60.09691408654697,
condition files/Stage0a.xlsx,0a,beta,none,g,"['h', 'g']","['Chess', 'Go']","[0, 0.5]","[0, 0]",1,0,0,5,5,5,0,0,0,1,,,,,,,,,,,,,,,,,,,,,,,,,,,,,,,,,,,,,,,,,,,,,,,,,,,,,,,,,,,,,,,1513.2233246710002,None,1513.2233246710002,None,1513.2233246710002,None,g,1,0.5144148830004269,1514.7394125070005,None,1514.7394125070005,None,1514.7394125070005,None,1515.3069062980012,None,1515.3069062980012,None,1515.3069062980012,None,1515.3069062980012,None,,,,,,,,,,,,,,,,,,,,,,,,,,,,,,,,,,,,,,,,,,,,001,166,2020_Feb_25_1213,spring_faces,3.1.5,60.09691408654697,
condition files/Stage0a.xlsx,0a,alpha,none,h,"['h', 'g']","['Chess', 'Go']","[0, 0.5]","[0, 0]",1,0,0,5,5,5,0,1,1,0,,,,,,,,,,,,,,,,,,,,,,,,,,,,,,,,,,,,,,,,,,,,,,,,,,,,,,,,,,,,,,,1517.2728896040007,None,1517.2728896040007,None,1517.2728896040007,None,h,1,0.8156212570011121,1518.806199445,None,1518.806199445,None,1518.806199445,None,1519.6730267290004,None,1519.6730267290004,None,1519.6730267290004,None,1519.6730267290004,None,,,,,,,,,,,,,,,,,,,,,,,,,,,,,,,,,,,,,,,,,,,,001,166,2020_Feb_25_1213,spring_faces,3.1.5,60.09691408654697,
condition files/Stage0b_1.xlsx,0b,alpha,none,h,"['h', 'g']","['Chess', 'Go']","[-0.15, 0.5]","[0.15, 0.5]",1,0,0,6,6,6,0,0,0,0,,,,,,,,,,,,,,,,,,,,,,,,,,,,,,,,,,,,,,,,,,,,,,,,,,,,,,,,,,,,,,,1521.6567244720009,None,1521.6567244720009,None,1521.6567244720009,None,h,1,0.8484259169999859,1523.1893982990005,None,1523.1893982990005,None,1523.1893982990005,None,1524.0893843049998,None,1524.0893843049998,None,1524.0893843049998,None,1524.0893843049998,None,,,,,,,,,,,,,,,,,,,,,,,,,,,,,,,,,,,,,,,,,,,,001,166,2020_Feb_25_1213,spring_faces,3.1.5,60.09691408654697,
condition files/Stage0b_1.xlsx,0b,none,beta,g,"['h', 'g']","['Chess', 'Go']","[-0.15, 0.5]","[0.15, 0.5]",0,1,0,6,6,6,0,1,1,1,,,,,,,,,,,,,,,,,,,,,,,,,,,,,,,,,,,,,,,,,,,,,,,,,,,,,,,,,,,,,,,1526.0564702690008,None,1526.0564702690008,None,1526.0564702690008,None,g,1,0.5591333530010161,1527.6066927049997,None,1527.6066927049997,None,1527.6066927049997,None,1528.2399677360008,None,1528.2399677360008,None,1528.2399677360008,None,1528.2399677360008,None,,,,,,,,,,,,,,,,,,,,,,,,,,,,,,,,,,,,,,,,,,,,001,166,2020_Feb_25_1213,spring_faces,3.1.5,60.09691408654697,
condition files/Stage0b_2.xlsx,0b,beta,none,g,"['h', 'g']","['Chess', 'Go']","[-0.15, 0.5]","[0.15, 0.5]",1,0,0,7,7,7,0,0,0,1,,,,,,,,,,,,,,,,,,,,,,,,,,,,,,,,,,,,,,,,,,,,,,,,,,,,,,,,,,,,,,,1530.206677905,None,1530.206677905,None,1530.206677905,None,g,1,1.0172617270000046,1531.756499680001,None,1531.756499680001,None,1531.756499680001,None,1532.8395379949998,None,1532.8395379949998,None,1532.8395379949998,None,1532.8395379949998,None,,,,,,,,,,,,,,,,,,,,,,,,,,,,,,,,,,,,,,,,,,,,001,166,2020_Feb_25_1213,spring_faces,3.1.5,60.09691408654697,
condition files/Stage0b_2.xlsx,0b,none,alpha,h,"['h', 'g']","['Chess', 'Go']","[-0.15, 0.5]","[0.15, 0.5]",0,1,0,7,7,7,0,1,1,0,,,,,,,,,,,,,,,,,,,,,,,,,,,,,,,,,,,,,,,,,,,,,,,,,,,,,,,,,,,,,,,1534.8057761640011,None,1534.8057761640011,None,1534.8057761640011,None,h,1,0.4148421800000506,1536.3429358850008,None,1536.3429358850008,None,1536.3429358850008,None,1536.8398907089995,None,1536.8398907089995,None,1536.8398907089995,None,1536.8398907089995,None,,,,,,,,,,,,,,,,,,,,,,,,,,,,,,,,,,,,,,,,,,,,001,166,2020_Feb_25_1213,spring_faces,3.1.5,60.09691408654697,
condition files/Stage0b_1.xlsx,0b,none,beta,g,"['h', 'g']","['Chess', 'Go']","[-0.15, 0.5]","[0.15, 0.5]",0,1,0,8,8,8,0,0,0,1,,,,,,,,,,,,,,,,,,,,,,,,,,,,,,,,,,,,,,,,,,,,,,,,,,,,,,,,,,,,,,,1538.8064417080004,None,1538.8064417080004,None,1538.8064417080004,None,g,1,0.8178705360005551,1540.3399035130005,None,1540.3399035130005,None,1540.3399035130005,None,1541.2227973110002,None,1541.2227973110002,None,1541.2227973110002,None,1541.2227973110002,None,,,,,,,,,,,,,,,,,,,,,,,,,,,,,,,,,,,,,,,,,,,,001,166,2020_Feb_25_1213,spring_faces,3.1.5,60.09691408654697,
condition files/Stage0b_1.xlsx,0b,alpha,none,h,"['h', 'g']","['Chess', 'Go']","[-0.15, 0.5]","[0.15, 0.5]",1,0,0,8,8,8,0,1,1,0,,,,,,,,,,,,,,,,,,,,,,,,,,,,,,,,,,,,,,,,,,,,,,,,,,,,,,,,,,,,,,,1543.1890387929998,None,1543.1890387929998,None,1543.1890387929998,None,h,1,0.8815577810000832,1544.740290627,None,1544.740290627,None,1544.740290627,None,1545.678822807,None,1545.678822807,None,1545.678822807,None,1545.678822807,None,,,,,,,,,,,,,,,,,,,,,,,,,,,,,,,,,,,,,,,,,,,,001,166,2020_Feb_25_1213,spring_faces,3.1.5,60.09691408654697,
condition files/Stage0b_2.xlsx,0b,beta,none,g,"['h', 'g']","['Chess', 'Go']","[-0.15, 0.5]","[0.15, 0.5]",1,0,0,9,9,9,0,0,0,1,,,,,,,,,,,,,,,,,,,,,,,,,,,,,,,,,,,,,,,,,,,,,,,,,,,,,,,,,,,,,,,1547.6567793779996,None,1547.6567793779996,None,1547.6567793779996,None,g,1,0.33381938700040337,1549.1920123460004,None,1549.1920123460004,None,1549.1920123460004,None,1549.5896291540012,None,1549.5896291540012,None,1549.5896291540012,None,1549.5896291540012,None,,,,,,,,,,,,,,,,,,,,,,,,,,,,,,,,,,,,,,,,,,,,001,166,2020_Feb_25_1213,spring_faces,3.1.5,60.09691408654697,
condition files/Stage0b_2.xlsx,0b,none,alpha,h,"['h', 'g']","['Chess', 'Go']","[-0.15, 0.5]","[0.15, 0.5]",0,1,0,9,9,9,0,1,1,0,,,,,,,,,,,,,,,,,,,,,,,,,,,,,,,,,,,,,,,,,,,,,,,,,,,,,,,,,,,,,,,1551.5558312930007,None,1551.5558312930007,None,1551.5558312930007,None,h,1,0.6553288570012228,1553.0945395079998,None,1553.0945395079998,None,1553.0945395079998,None,1553.8108832060007,None,1553.8108832060007,None,1553.8108832060007,None,1553.8108832060007,None,,,,,,,,,,,,,,,,,,,,,,,,,,,,,,,,,,,,,,,,,,,,001,166,2020_Feb_25_1213,spring_faces,3.1.5,60.09691408654697,
condition files/Stage0b_1.xlsx,0b,none,beta,g,"['h', 'g']","['Chess', 'Go']","[-0.15, 0.5]","[0.15, 0.5]",0,1,0,10,10,10,0,0,0,1,,,,,,,,,,,,,,,,,,,,,,,,,,,,,,,,,,,,,,,,,,,,,,,,,,,,,,,,,,,,,,,1555.789930301,None,1555.789930301,None,1555.789930301,None,g,1,0.7628104619998339,1557.3229758220004,None,1557.3229758220004,None,1557.3229758220004,None,1558.1399430660003,None,1558.1399430660003,None,1558.1399430660003,None,1558.1399430660003,None,,,,,,,,,,,,,,,,,,,,,,,,,,,,,,,,,,,,,,,,,,,,001,166,2020_Feb_25_1213,spring_faces,3.1.5,60.09691408654697,
condition files/Stage0b_1.xlsx,0b,alpha,none,h,"['h', 'g']","['Chess', 'Go']","[-0.15, 0.5]","[0.15, 0.5]",1,0,0,10,10,10,0,1,1,0,,,,,,,,,,,,,,,,,,,,,,,,,,,,,,,,,,,,,,,,,,,,,,,,,,,,,,,,,,,,,,,1560.1058602030007,None,1560.1058602030007,None,1560.1058602030007,None,h,1,0.7631224260003364,1561.6427409340013,None,1561.6427409340013,None,1561.6427409340013,None,1562.461189515001,None,1562.461189515001,None,1562.461189515001,None,1562.461189515001,None,,,,,,,,,,,,,,,,,,,,,,,,,,,,,,,,,,,,,,,,,,,,001,166,2020_Feb_25_1213,spring_faces,3.1.5,60.09691408654697,
condition files/Stage0b_2.xlsx,0b,none,alpha,h,"['h', 'g']","['Chess', 'Go']","[-0.15, 0.5]","[0.15, 0.5]",0,1,0,11,11,11,0,0,0,0,,,,,,,,,,,,,,,,,,,,,,,,,,,,,,,,,,,,,,,,,,,,,,,,,,,,,,,,,,,,,,,1564.439943239,None,1564.439943239,None,1564.439943239,None,h,1,1.3751081870013877,1565.9587208169996,None,1565.9587208169996,None,1565.9587208169996,None,1567.3894607540005,None,1567.3894607540005,None,1567.3894607540005,None,1567.3894607540005,None,,,,,,,,,,,,,,,,,,,,,,,,,,,,,,,,,,,,,,,,,,,,001,166,2020_Feb_25_1213,spring_faces,3.1.5,60.09691408654697,
condition files/Stage0b_2.xlsx,0b,beta,none,g,"['h', 'g']","['Chess', 'Go']","[-0.15, 0.5]","[0.15, 0.5]",1,0,0,11,11,11,0,1,1,1,,,,,,,,,,,,,,,,,,,,,,,,,,,,,,,,,,,,,,,,,,,,,,,,,,,,,,,,,,,,,,,1569.3558224570006,None,1569.3558224570006,None,1569.3558224570006,None,h,0,1.2121624589999556,1570.889681048,None,1570.889681048,None,1570.889681048,None,1572.1595082510012,None,1572.1595082510012,None,1572.1595082510012,None,1572.1595082510012,None,,,,,,,,,,,,,,,,,,,,,,,,,,,,,,,,,,,,,,,,,,,,001,166,2020_Feb_25_1213,spring_faces,3.1.5,60.09691408654697,
condition files/Stage0c_1.xlsx,0c,beta,theta,g,"['h', 'g']","['Chess', 'Go']","[-0.15, 0.5]","[0.15, 0.5]",1,1,0,12,12,12,0,0,0,2,,,,,,,,,,,,,,,,,,,,,,,,,,,,,,,,,,,,,,,,,,,,,,,,,,,,,,,,,,,,,,,1574.1401365050006,None,1574.1401365050006,None,1574.1401365050006,None,g,1,2.668483618999744,1575.673338224,None,1575.673338224,None,1575.673338224,None,1578.3954578930006,None,1578.3954578930006,None,1578.3954578930006,None,1578.3954578930006,None,,,,,,,,,,,,,,,,,,,,,,,,,,,,,,,,,,,,,,,,,,,,001,166,2020_Feb_25_1213,spring_faces,3.1.5,60.09691408654697,
condition files/Stage0c_1.xlsx,0c,alpha,phi,h,"['h', 'g']","['Chess', 'Go']","[-0.15, 0.5]","[0.15, 0.5]",1,1,0,12,12,12,0,1,1,1,,,,,,,,,,,,,,,,,,,,,,,,,,,,,,,,,,,,,,,,,,,,,,,,,,,,,,,,,,,,,,,1580.3723526810008,None,1580.3723526810008,None,1580.3723526810008,None,h,1,0.995128525999462,1581.906693922001,None,1581.906693922001,None,1581.906693922001,None,1582.9566619830002,None,1582.9566619830002,None,1582.9566619830002,None,1582.9566619830002,None,,,,,,,,,,,,,,,,,,,,,,,,,,,,,,,,,,,,,,,,,,,,001,166,2020_Feb_25_1213,spring_faces,3.1.5,60.09691408654697,
condition files/Stage0c_1.xlsx,0c,phi,beta,g,"['h', 'g']","['Chess', 'Go']","[-0.15, 0.5]","[0.15, 0.5]",1,1,0,12,12,12,0,2,2,3,,,,,,,,,,,,,,,,,,,,,,,,,,,,,,,,,,,,,,,,,,,,,,,,,,,,,,,,,,,,,,,1584.9231530550005,None,1584.9231530550005,None,1584.9231530550005,None,g,1,0.925187602000733,1586.4567032129999,None,1586.4567032129999,None,1586.4567032129999,None,1587.4398620810007,None,1587.4398620810007,None,1587.4398620810007,None,1587.4398620810007,None,,,,,,,,,,,,,,,,,,,,,,,,,,,,,,,,,,,,,,,,,,,,001,166,2020_Feb_25_1213,spring_faces,3.1.5,60.09691408654697,
condition files/Stage0c_1.xlsx,0c,theta,alpha,h,"['h', 'g']","['Chess', 'Go']","[-0.15, 0.5]","[0.15, 0.5]",1,1,0,12,12,12,0,3,3,0,,,,,,,,,,,,,,,,,,,,,,,,,,,,,,,,,,,,,,,,,,,,,,,,,,,,,,,,,,,,,,,1589.4060584140007,None,1589.4060584140007,None,1589.4060584140007,None,h,1,0.8257967399986228,1590.9400369369996,None,1590.9400369369996,None,1590.9400369369996,None,1591.8228440410003,None,1591.8228440410003,None,1591.8228440410003,None,1591.8228440410003,None,,,,,,,,,,,,,,,,,,,,,,,,,,,,,,,,,,,,,,,,,,,,001,166,2020_Feb_25_1213,spring_faces,3.1.5,60.09691408654697,
condition files/Stage0c_2.xlsx,0c,beta,phi,g,"['h', 'g']","['Chess', 'Go']","[-0.15, 0.5]","[0.15, 0.5]",1,1,0,13,13,13,0,0,0,3,,,,,,,,,,,,,,,,,,,,,,,,,,,,,,,,,,,,,,,,,,,,,,,,,,,,,,,,,,,,,,,1593.806861504001,None,1593.806861504001,None,1593.806861504001,None,g,1,1.0657992039996316,1595.3400429740013,None,1595.3400429740013,None,1595.3400429740013,None,1596.4566750390004,None,1596.4566750390004,None,1596.4566750390004,None,1596.4566750390004,None,,,,,,,,,,,,,,,,,,,,,,,,,,,,,,,,,,,,,,,,,,,,001,166,2020_Feb_25_1213,spring_faces,3.1.5,60.09691408654697,
condition files/Stage0c_2.xlsx,0c,alpha,theta,h,"['h', 'g']","['Chess', 'Go']","[-0.15, 0.5]","[0.15, 0.5]",1,1,0,13,13,13,0,1,1,0,,,,,,,,,,,,,,,,,,,,,,,,,,,,,,,,,,,,,,,,,,,,,,,,,,,,,,,,,,,,,,,1598.4399971559997,None,1598.4399971559997,None,1598.4399971559997,None,h,1,1.2652514510009496,1599.9565707250003,None,1599.9565707250003,None,1599.9565707250003,None,1601.272881555,None,1601.272881555,None,1601.272881555,None,1601.272881555,None,,,,,,,,,,,,,,,,,,,,,,,,,,,,,,,,,,,,,,,,,,,,001,166,2020_Feb_25_1213,spring_faces,3.1.5,60.09691408654697,
condition files/Stage0c_2.xlsx,0c,phi,alpha,h,"['h', 'g']","['Chess', 'Go']","[-0.15, 0.5]","[0.15, 0.5]",1,1,0,13,13,13,0,2,2,1,,,,,,,,,,,,,,,,,,,,,,,,,,,,,,,,,,,,,,,,,,,,,,,,,,,,,,,,,,,,,,,1603.2392527789998,None,1603.2392527789998,None,1603.2392527789998,None,g,0,0.6884158470002149,1604.773410361,None,1604.773410361,None,1604.773410361,None,1605.5065791159996,None,1605.5065791159996,None,1605.5065791159996,None,1605.5065791159996,None,,,,,,,,,,,,,,,,,,,,,,,,,,,,,,,,,,,,,,,,,,,,001,166,2020_Feb_25_1213,spring_faces,3.1.5,60.09691408654697,
condition files/Stage0c_2.xlsx,0c,theta,beta,g,"['h', 'g']","['Chess', 'Go']","[-0.15, 0.5]","[0.15, 0.5]",1,1,0,13,13,13,0,3,3,2,,,,,,,,,,,,,,,,,,,,,,,,,,,,,,,,,,,,,,,,,,,,,,,,,,,,,,,,,,,,,,,1607.4898526750003,None,1607.4898526750003,None,1607.4898526750003,None,g,1,1.0625554689995624,1609.0232586450002,None,1609.0232586450002,None,1609.0232586450002,None,1610.1401228699997,None,1610.1401228699997,None,1610.1401228699997,None,1610.1401228699997,None,,,,,,,,,,,,,,,,,,,,,,,,,,,,,,,,,,,,,,,,,,,,001,166,2020_Feb_25_1213,spring_faces,3.1.5,60.09691408654697,
condition files/Stage0c_1.xlsx,0c,alpha,phi,h,"['h', 'g']","['Chess', 'Go']","[-0.15, 0.5]","[0.15, 0.5]",1,1,0,14,14,14,0,0,0,1,,,,,,,,,,,,,,,,,,,,,,,,,,,,,,,,,,,,,,,,,,,,,,,,,,,,,,,,,,,,,,,1612.1232348850008,None,1612.1232348850008,None,1612.1232348850008,None,h,1,0.717224966001595,1613.6565610630005,None,1613.6565610630005,None,1613.6565610630005,None,1614.4399094100008,None,1614.4399094100008,None,1614.4399094100008,None,1614.4399094100008,None,,,,,,,,,,,,,,,,,,,,,,,,,,,,,,,,,,,,,,,,,,,,001,166,2020_Feb_25_1213,spring_faces,3.1.5,60.09691408654697,
condition files/Stage0c_1.xlsx,0c,beta,theta,g,"['h', 'g']","['Chess', 'Go']","[-0.15, 0.5]","[0.15, 0.5]",1,1,0,14,14,14,0,1,1,2,,,,,,,,,,,,,,,,,,,,,,,,,,,,,,,,,,,,,,,,,,,,,,,,,,,,,,,,,,,,,,,1616.406334282001,None,1616.406334282001,None,1616.406334282001,None,g,1,0.6261856249984703,1617.9396384740012,None,1617.9396384740012,None,1617.9396384740012,None,1618.6233531770013,None,1618.6233531770013,None,1618.6233531770013,None,1618.6233531770013,None,,,,,,,,,,,,,,,,,,,,,,,,,,,,,,,,,,,,,,,,,,,,001,166,2020_Feb_25_1213,spring_faces,3.1.5,60.09691408654697,
condition files/Stage0c_1.xlsx,0c,phi,beta,g,"['h', 'g']","['Chess', 'Go']","[-0.15, 0.5]","[0.15, 0.5]",1,1,0,14,14,14,0,2,2,3,,,,,,,,,,,,,,,,,,,,,,,,,,,,,,,,,,,,,,,,,,,,,,,,,,,,,,,,,,,,,,,1620.5894874320002,None,1620.5894874320002,None,1620.5894874320002,None,g,1,0.6661636190001445,1622.1236648450013,None,1622.1236648450013,None,1622.1236648450013,None,1622.8243590260008,None,1622.8243590260008,None,1622.8243590260008,None,1622.8243590260008,None,,,,,,,,,,,,,,,,,,,,,,,,,,,,,,,,,,,,,,,,,,,,001,166,2020_Feb_25_1213,spring_faces,3.1.5,60.09691408654697,
condition files/Stage0c_1.xlsx,0c,theta,alpha,h,"['h', 'g']","['Chess', 'Go']","[-0.15, 0.5]","[0.15, 0.5]",1,1,0,14,14,14,0,3,3,0,,,,,,,,,,,,,,,,,,,,,,,,,,,,,,,,,,,,,,,,,,,,,,,,,,,,,,,,,,,,,,,1624.806181109001,None,1624.806181109001,None,1624.806181109001,None,h,1,0.7858921759998339,1626.3399247390007,None,1626.3399247390007,None,1626.3399247390007,None,1627.1894387989996,None,1627.1894387989996,None,1627.1894387989996,None,1627.1894387989996,None,,,,,,,,,,,,,,,,,,,,,,,,,,,,,,,,,,,,,,,,,,,,001,166,2020_Feb_25_1213,spring_faces,3.1.5,60.09691408654697,
condition files/Stage0c_2.xlsx,0c,beta,phi,g,"['h', 'g']","['Chess', 'Go']","[-0.15, 0.5]","[0.15, 0.5]",1,1,0,15,15,15,0,0,0,3,,,,,,,,,,,,,,,,,,,,,,,,,,,,,,,,,,,,,,,,,,,,,,,,,,,,,,,,,,,,,,,1629.1729629580004,None,1629.1729629580004,None,1629.1729629580004,None,g,1,0.6435045419984817,1630.7063818389997,None,1630.7063818389997,None,1630.7063818389997,None,1631.4063659540006,None,1631.4063659540006,None,1631.4063659540006,None,1631.4063659540006,None,,,,,,,,,,,,,,,,,,,,,,,,,,,,,,,,,,,,,,,,,,,,001,166,2020_Feb_25_1213,spring_faces,3.1.5,60.09691408654697,
condition files/Stage0c_2.xlsx,0c,theta,beta,g,"['h', 'g']","['Chess', 'Go']","[-0.15, 0.5]","[0.15, 0.5]",1,1,0,15,15,15,0,1,1,2,,,,,,,,,,,,,,,,,,,,,,,,,,,,,,,,,,,,,,,,,,,,,,,,,,,,,,,,,,,,,,,1633.3731394170009,None,1633.3731394170009,None,1633.3731394170009,None,g,1,1.8676923109997006,1634.9060891589997,None,1634.9060891589997,None,1634.9060891589997,None,1636.8233671609996,None,1636.8233671609996,None,1636.8233671609996,None,1636.8233671609996,None,,,,,,,,,,,,,,,,,,,,,,,,,,,,,,,,,,,,,,,,,,,,001,166,2020_Feb_25_1213,spring_faces,3.1.5,60.09691408654697,
condition files/Stage0c_2.xlsx,0c,phi,alpha,h,"['h', 'g']","['Chess', 'Go']","[-0.15, 0.5]","[0.15, 0.5]",1,1,0,15,15,15,0,2,2,1,,,,,,,,,,,,,,,,,,,,,,,,,,,,,,,,,,,,,,,,,,,,,,,,,,,,,,,,,,,,,,,1638.8060648130013,None,1638.8060648130013,None,1638.8060648130013,None,h,1,0.9938325029997941,1640.339987712001,None,1640.339987712001,None,1640.339987712001,None,1641.3901186880012,None,1641.3901186880012,None,1641.3901186880012,None,1641.3901186880012,None,,,,,,,,,,,,,,,,,,,,,,,,,,,,,,,,,,,,,,,,,,,,001,166,2020_Feb_25_1213,spring_faces,3.1.5,60.09691408654697,
condition files/Stage0c_2.xlsx,0c,alpha,theta,h,"['h', 'g']","['Chess', 'Go']","[-0.15, 0.5]","[0.15, 0.5]",1,1,0,15,15,15,0,3,3,0,,,,,,,,,,,,,,,,,,,,,,,,,,,,,,,,,,,,,,,,,,,,,,,,,,,,,,,,,,,,,,,1643.3560738650012,None,1643.3560738650012,None,1643.3560738650012,None,h,1,1.7717473970005813,1644.8900858320012,None,1644.8900858320012,None,1644.8900858320012,None,1646.708642990001,None,1646.708642990001,None,1646.708642990001,None,1646.708642990001,None,,,,,,,,,,,,,,,,,,,,,,,,,,,,,,,,,,,,,,,,,,,,001,166,2020_Feb_25_1213,spring_faces,3.1.5,60.09691408654697,
condition files/Stage0c_1.xlsx,0c,phi,beta,g,"['h', 'g']","['Chess', 'Go']","[-0.15, 0.5]","[0.15, 0.5]",1,1,0,16,16,16,0,0,0,3,,,,,,,,,,,,,,,,,,,,,,,,,,,,,,,,,,,,,,,,,,,,,,,,,,,,,,,,,,,,,,,1648.7063447870005,None,1648.7063447870005,None,1648.7063447870005,None,g,1,1.2859699979999277,1650.239878511,None,1650.239878511,None,1650.239878511,None,1651.5893105840005,None,1651.5893105840005,None,1651.5893105840005,None,1651.5893105840005,None,,,,,,,,,,,,,,,,,,,,,,,,,,,,,,,,,,,,,,,,,,,,001,166,2020_Feb_25_1213,spring_faces,3.1.5,60.09691408654697,
condition files/Stage0c_1.xlsx,0c,alpha,phi,h,"['h', 'g']","['Chess', 'Go']","[-0.15, 0.5]","[0.15, 0.5]",1,1,0,16,16,16,0,1,1,1,,,,,,,,,,,,,,,,,,,,,,,,,,,,,,,,,,,,,,,,,,,,,,,,,,,,,,,,,,,,,,,1653.5557841200007,None,1653.5557841200007,None,1653.5557841200007,None,h,1,0.7236361539999052,1655.0902389880011,None,1655.0902389880011,None,1655.0902389880011,None,1655.8726189080007,None,1655.8726189080007,None,1655.8726189080007,None,1655.8726189080007,None,,,,,,,,,,,,,,,,,,,,,,,,,,,,,,,,,,,,,,,,,,,,001,166,2020_Feb_25_1213,spring_faces,3.1.5,60.09691408654697,
condition files/Stage0c_1.xlsx,0c,theta,alpha,h,"['h', 'g']","['Chess', 'Go']","[-0.15, 0.5]","[0.15, 0.5]",1,1,0,16,16,16,0,2,2,0,,,,,,,,,,,,,,,,,,,,,,,,,,,,,,,,,,,,,,,,,,,,,,,,,,,,,,,,,,,,,,,1657.8397936700003,None,1657.8397936700003,None,1657.8397936700003,None,h,1,3.1126011430005747,1659.3732134420006,None,1659.3732134420006,None,1659.3732134420006,None,1662.524381651001,None,1662.524381651001,None,1662.524381651001,None,1662.524381651001,None,,,,,,,,,,,,,,,,,,,,,,,,,,,,,,,,,,,,,,,,,,,,001,166,2020_Feb_25_1213,spring_faces,3.1.5,60.09691408654697,
condition files/Stage0c_1.xlsx,0c,beta,theta,g,"['h', 'g']","['Chess', 'Go']","[-0.15, 0.5]","[0.15, 0.5]",1,1,0,16,16,16,0,3,3,2,,,,,,,,,,,,,,,,,,,,,,,,,,,,,,,,,,,,,,,,,,,,,,,,,,,,,,,,,,,,,,,1664.5068079850007,None,1664.5068079850007,None,1664.5068079850007,None,g,1,0.6058958310004527,1666.0399488950006,None,1666.0399488950006,None,1666.0399488950006,None,1666.7067236800012,None,1666.7067236800012,None,1666.7067236800012,None,1666.7067236800012,None,,,,,,,,,,,,,,,,,,,,,,,,,,,,,,,,,,,,,,,,,,,,001,166,2020_Feb_25_1213,spring_faces,3.1.5,60.09691408654697,
condition files/Stage0c_2.xlsx,0c,theta,beta,g,"['h', 'g']","['Chess', 'Go']","[-0.15, 0.5]","[0.15, 0.5]",1,1,0,17,17,17,0,0,0,2,,,,,,,,,,,,,,,,,,,,,,,,,,,,,,,,,,,,,,,,,,,,,,,,,,,,,,,,,,,,,,,1668.6900135060005,None,1668.6900135060005,None,1668.6900135060005,None,g,1,1.2544182689998706,1670.2234290160013,None,1670.2234290160013,None,1670.2234290160013,None,1671.5231381180001,None,1671.5231381180001,None,1671.5231381180001,None,1671.5231381180001,None,,,,,,,,,,,,,,,,,,,,,,,,,,,,,,,,,,,,,,,,,,,,001,166,2020_Feb_25_1213,spring_faces,3.1.5,60.09691408654697,
condition files/Stage0c_2.xlsx,0c,beta,phi,g,"['h', 'g']","['Chess', 'Go']","[-0.15, 0.5]","[0.15, 0.5]",1,1,0,17,17,17,0,1,1,3,,,,,,,,,,,,,,,,,,,,,,,,,,,,,,,,,,,,,,,,,,,,,,,,,,,,,,,,,,,,,,,1673.505728076001,None,1673.505728076001,None,1673.505728076001,None,g,1,0.9499025540008006,1675.0399451040012,None,1675.0399451040012,None,1675.0399451040012,None,1676.040112648001,None,1676.040112648001,None,1676.040112648001,None,1676.040112648001,None,,,,,,,,,,,,,,,,,,,,,,,,,,,,,,,,,,,,,,,,,,,,001,166,2020_Feb_25_1213,spring_faces,3.1.5,60.09691408654697,
condition files/Stage0c_2.xlsx,0c,phi,alpha,h,"['h', 'g']","['Chess', 'Go']","[-0.15, 0.5]","[0.15, 0.5]",1,1,0,17,17,17,0,2,2,1,,,,,,,,,,,,,,,,,,,,,,,,,,,,,,,,,,,,,,,,,,,,,,,,,,,,,,,,,,,,,,,1678.0060375860012,None,1678.0060375860012,None,1678.0060375860012,None,h,1,0.721812689998842,1679.5400252399995,None,1679.5400252399995,None,1679.5400252399995,None,1680.3232840660003,None,1680.3232840660003,None,1680.3232840660003,None,1680.3232840660003,None,,,,,,,,,,,,,,,,,,,,,,,,,,,,,,,,,,,,,,,,,,,,001,166,2020_Feb_25_1213,spring_faces,3.1.5,60.09691408654697,
condition files/Stage0c_2.xlsx,0c,alpha,theta,h,"['h', 'g']","['Chess', 'Go']","[-0.15, 0.5]","[0.15, 0.5]",1,1,0,17,17,17,0,3,3,0,,,,,,,,,,,,,,,,,,,,,,,,,,,,,,,,,,,,,,,,,,,,,,,,,,,,,,,,,,,,,,,1682.2898727720003,None,1682.2898727720003,None,1682.2898727720003,None,g,0,0.7428296119996958,1683.8229966119998,None,1683.8229966119998,None,1683.8229966119998,None,1684.6069409310003,None,1684.6069409310003,None,1684.6069409310003,None,1684.6069409310003,None,,,,,,,,,,,,,,,,,,,,,,,,,,,,,,,,,,,,,,,,,,,,001,166,2020_Feb_25_1213,spring_faces,3.1.5,60.09691408654697,
,,,,,,,,,,,,,,,,,,,,,,,,,,,,,,,,,,,,,,,,,,,,,,,,,,,,,,,,,,,,,,,,,,,,,,,,,,,,,,,,,,,,,,,,,,,,,,,,,,,,,,,,1686.6067215929997,None,space,1.4713321390008787,1691.606516922,None,,,,,,,,,,,,,,,,,,,,,,,,,,,,,,,,,,,,,,001,166,2020_Feb_25_1213,spring_faces,3.1.5,60.09691408654697,
condition files/Stage1_1.xlsx,,T1,B1,c,"['c', 'm']","['Clue', 'Monopoly']","[-0.15, 0.5]","[0.15, 0.5]",1,1,,,,,,,,,0,0,0,0,0,0,0,0,,,,,,,,,,,,,,,,,,,,,,,,,,,,,,,,,,,,,,,,,,,,,,,,,,,,,,,1693.1391376610009,None,1693.1391376610009,None,1693.1391376610009,None,c,1,1.440575546999753,1694.7252526650009,None,1694.7252526650009,None,1694.7252526650009,None,1696.2398443620004,None,1696.2398443620004,None,1696.2398443620004,None,1696.2398443620004,None,,,,,,,1691.606516922,None,,,,,,,,,,,,,,,,,,,,,,,,,,,,,,,,,,,,001,166,2020_Feb_25_1213,spring_faces,3.1.5,60.09691408654697,
condition files/Stage1_1.xlsx,,T3,B4,c,"['c', 'm']","['Clue', 'Monopoly']","[-0.15, 0.5]","[0.15, 0.5]",1,1,,,,,,,,,0,0,0,0,0,1,1,5,,,,,,,,,,,,,,,,,,,,,,,,,,,,,,,,,,,,,,,,,,,,,,,,,,,,,,,1698.1888213390012,None,1698.1888213390012,None,1698.1888213390012,None,m,0,1.3525012560003233,1699.7733342030006,None,1699.7733342030006,None,1699.7733342030006,None,1701.1902676540012,None,1701.1902676540012,None,1701.1902676540012,None,1701.1902676540012,None,,,,,,,,,,,,,,,,,,,,,,,,,,,,,,,,,,,,,,,,,,,,001,166,2020_Feb_25_1213,spring_faces,3.1.5,60.09691408654697,
condition files/Stage1_1.xlsx,,B4,T4,m,"['c', 'm']","['Clue', 'Monopoly']","[-0.15, 0.5]","[0.15, 0.5]",1,1,,,,,,,,,0,0,0,0,0,2,2,7,,,,,,,,,,,,,,,,,,,,,,,,,,,,,,,,,,,,,,,,,,,,,,,,,,,,,,,1703.156229731001,None,1703.156229731001,None,1703.156229731001,None,m,1,1.139526241000567,1704.7063212379999,None,1704.7063212379999,None,1704.7063212379999,None,1705.907541126,None,1705.907541126,None,1705.907541126,None,1705.907541126,None,,,,,,,,,,,,,,,,,,,,,,,,,,,,,,,,,,,,,,,,,,,,001,166,2020_Feb_25_1213,spring_faces,3.1.5,60.09691408654697,
condition files/Stage1_1.xlsx,,T2,B2,m,"['c', 'm']","['Clue', 'Monopoly']","[-0.15, 0.5]","[0.15, 0.5]",1,1,,,,,,,,,0,0,0,0,0,3,3,3,,,,,,,,,,,,,,,,,,,,,,,,,,,,,,,,,,,,,,,,,,,,,,,,,,,,,,,1707.8728263829998,None,1707.8728263829998,None,1707.8728263829998,None,c,0,0.9185816389999673,1709.407269677,None,1709.407269677,None,1709.407269677,None,1710.3902804770005,None,1710.3902804770005,None,1710.3902804770005,None,1710.3902804770005,None,,,,,,,,,,,,,,,,,,,,,,,,,,,,,,,,,,,,,,,,,,,,001,166,2020_Feb_25_1213,spring_faces,3.1.5,60.09691408654697,
condition files/Stage1_1.xlsx,,T4,B3,m,"['c', 'm']","['Clue', 'Monopoly']","[-0.15, 0.5]","[0.15, 0.5]",1,1,,,,,,,,,0,0,0,0,0,4,4,6,,,,,,,,,,,,,,,,,,,,,,,,,,,,,,,,,,,,,,,,,,,,,,,,,,,,,,,1712.3563738820012,None,1712.3563738820012,None,1712.3563738820012,None,m,1,1.2342425030001323,1713.8916141980008,None,1713.8916141980008,None,1713.8916141980008,None,1715.1900481270004,None,1715.1900481270004,None,1715.1900481270004,None,1715.1900481270004,None,,,,,,,,,,,,,,,,,,,,,,,,,,,,,,,,,,,,,,,,,,,,001,166,2020_Feb_25_1213,spring_faces,3.1.5,60.09691408654697,
condition files/Stage1_1.xlsx,,B3,T3,c,"['c', 'm']","['Clue', 'Monopoly']","[-0.15, 0.5]","[0.15, 0.5]",1,1,,,,,,,,,0,0,0,0,0,5,5,4,,,,,,,,,,,,,,,,,,,,,,,,,,,,,,,,,,,,,,,,,,,,,,,,,,,,,,,1717.156557831,None,1717.156557831,None,1717.156557831,None,c,1,0.596516571000393,1718.6893104980009,None,1718.6893104980009,None,1718.6893104980009,None,1719.3421400750012,None,1719.3421400750012,None,1719.3421400750012,None,1719.3421400750012,None,,,,,,,,,,,,,,,,,,,,,,,,,,,,,,,,,,,,,,,,,,,,001,166,2020_Feb_25_1213,spring_faces,3.1.5,60.09691408654697,
condition files/Stage1_1.xlsx,,B2,T1,m,"['c', 'm']","['Clue', 'Monopoly']","[-0.15, 0.5]","[0.15, 0.5]",1,1,,,,,,,,,0,0,0,0,0,6,6,2,,,,,,,,,,,,,,,,,,,,,,,,,,,,,,,,,,,,,,,,,,,,,,,,,,,,,,,1721.306609868001,None,1721.306609868001,None,1721.306609868001,None,c,0,0.8138890549998905,1722.839952960001,None,1722.839952960001,None,1722.839952960001,None,1723.7085968869997,None,1723.7085968869997,None,1723.7085968869997,None,1723.7085968869997,None,,,,,,,,,,,,,,,,,,,,,,,,,,,,,,,,,,,,,,,,,,,,001,166,2020_Feb_25_1213,spring_faces,3.1.5,60.09691408654697,
condition files/Stage1_1.xlsx,,B1,T2,c,"['c', 'm']","['Clue', 'Monopoly']","[-0.15, 0.5]","[0.15, 0.5]",1,1,,,,,,,,,0,0,0,0,0,7,7,1,,,,,,,,,,,,,,,,,,,,,,,,,,,,,,,,,,,,,,,,,,,,,,,,,,,,,,,1725.6729119390002,None,1725.6729119390002,None,1725.6729119390002,None,c,1,1.983656811000401,1727.2062125360007,None,1727.2062125360007,None,1727.2062125360007,None,1729.2566243310011,None,1729.2566243310011,None,1729.2566243310011,None,1729.2566243310011,None,,,,,,,,,,,,,,,,,,,,,,,,,,,,,,,,,,,,,,,,,,,,001,166,2020_Feb_25_1213,spring_faces,3.1.5,60.09691408654697,
condition files/Stage1_2.xlsx,,T2,B1,c,"['c', 'm']","['Clue', 'Monopoly']","[-0.15, 0.5]","[0.15, 0.5]",1,1,,,,,,,,,0,1,1,1,0,0,0,1,,,,,,,,,,,,,,,,,,,,,,,,,,,,,,,,,,,,,,,,,,,,,,,,,,,,,,,1731.2230237800013,None,1731.2230237800013,None,1731.2230237800013,None,m,0,0.8016307979996782,1732.756228413,None,1732.756228413,None,1732.756228413,None,1733.6234486190006,None,1733.6234486190006,None,1733.6234486190006,None,1733.6234486190006,None,,,,,,,,,,,,,,,,,,,,,,,,,,,,,,,,,,,,,,,,,,,,001,166,2020_Feb_25_1213,spring_faces,3.1.5,60.09691408654697,
condition files/Stage1_2.xlsx,,B2,T2,m,"['c', 'm']","['Clue', 'Monopoly']","[-0.15, 0.5]","[0.15, 0.5]",1,1,,,,,,,,,0,1,1,1,0,1,1,3,,,,,,,,,,,,,,,,,,,,,,,,,,,,,,,,,,,,,,,,,,,,,,,,,,,,,,,1735.589099140001,None,1735.589099140001,None,1735.589099140001,None,c,0,1.0915929570001026,1737.122311983001,None,1737.122311983001,None,1737.122311983001,None,1738.2756670840008,None,1738.2756670840008,None,1738.2756670840008,None,1738.2756670840008,None,,,,,,,,,,,,,,,,,,,,,,,,,,,,,,,,,,,,,,,,,,,,001,166,2020_Feb_25_1213,spring_faces,3.1.5,60.09691408654697,
condition files/Stage1_2.xlsx,,B3,T4,m,"['c', 'm']","['Clue', 'Monopoly']","[-0.15, 0.5]","[0.15, 0.5]",1,1,,,,,,,,,0,1,1,1,0,2,2,6,,,,,,,,,,,,,,,,,,,,,,,,,,,,,,,,,,,,,,,,,,,,,,,,,,,,,,,1740.2393280280012,None,1740.2393280280012,None,1740.2393280280012,None,m,1,1.320381315999839,1741.789460889,None,1741.789460889,None,1741.789460889,None,1743.173389656,None,1743.173389656,None,1743.173389656,None,1743.173389656,None,,,,,,,,,,,,,,,,,,,,,,,,,,,,,,,,,,,,,,,,,,,,001,166,2020_Feb_25_1213,spring_faces,3.1.5,60.09691408654697,
condition files/Stage1_2.xlsx,,T1,B2,m,"['c', 'm']","['Clue', 'Monopoly']","[-0.15, 0.5]","[0.15, 0.5]",1,1,,,,,,,,,0,1,1,1,0,3,3,2,,,,,,,,,,,,,,,,,,,,,,,,,,,,,,,,,,,,,,,,,,,,,,,,,,,,,,,1745.140248470001,None,1745.140248470001,None,1745.140248470001,None,c,0,0.5964236560012068,1746.6734177130002,None,1746.6734177130002,None,1746.6734177130002,None,1747.3227899739995,None,1747.3227899739995,None,1747.3227899739995,None,1747.3227899739995,None,,,,,,,,,,,,,,,,,,,,,,,,,,,,,,,,,,,,,,,,,,,,001,166,2020_Feb_25_1213,spring_faces,3.1.5,60.09691408654697,
condition files/Stage1_2.xlsx,,B4,T3,c,"['c', 'm']","['Clue', 'Monopoly']","[-0.15, 0.5]","[0.15, 0.5]",1,1,,,,,,,,,0,1,1,1,0,4,4,5,,,,,,,,,,,,,,,,,,,,,,,,,,,,,,,,,,,,,,,,,,,,,,,,,,,,,,,1749.2894647829999,None,1749.2894647829999,None,1749.2894647829999,None,c,1,0.8931780519997119,1750.8246233890004,None,1750.8246233890004,None,1750.8246233890004,None,1751.7751996040006,None,1751.7751996040006,None,1751.7751996040006,None,1751.7751996040006,None,,,,,,,,,,,,,,,,,,,,,,,,,,,,,,,,,,,,,,,,,,,,001,166,2020_Feb_25_1213,spring_faces,3.1.5,60.09691408654697,
condition files/Stage1_2.xlsx,,T3,B3,c,"['c', 'm']","['Clue', 'Monopoly']","[-0.15, 0.5]","[0.15, 0.5]",1,1,,,,,,,,,0,1,1,1,0,5,5,4,,,,,,,,,,,,,,,,,,,,,,,,,,,,,,,,,,,,,,,,,,,,,,,,,,,,,,,1753.7401361360007,None,1753.7401361360007,None,1753.7401361360007,None,m,0,1.7245735790002072,1755.2733283590005,None,1755.2733283590005,None,1755.2733283590005,None,1757.0564425169996,None,1757.0564425169996,None,1757.0564425169996,None,1757.0564425169996,None,,,,,,,,,,,,,,,,,,,,,,,,,,,,,,,,,,,,,,,,,,,,001,166,2020_Feb_25_1213,spring_faces,3.1.5,60.09691408654697,
condition files/Stage1_2.xlsx,,T4,B4,m,"['c', 'm']","['Clue', 'Monopoly']","[-0.15, 0.5]","[0.15, 0.5]",1,1,,,,,,,,,0,1,1,1,0,6,6,7,,,,,,,,,,,,,,,,,,,,,,,,,,,,,,,,,,,,,,,,,,,,,,,,,,,,,,,1759.0232605740002,None,1759.0232605740002,None,1759.0232605740002,None,m,1,0.7297830690004048,1760.556025369,None,1760.556025369,None,1760.556025369,None,1761.3562745470008,None,1761.3562745470008,None,1761.3562745470008,None,1761.3562745470008,None,,,,,,,,,,,,,,,,,,,,,,,,,,,,,,,,,,,,,,,,,,,,001,166,2020_Feb_25_1213,spring_faces,3.1.5,60.09691408654697,
condition files/Stage1_2.xlsx,,B1,T1,c,"['c', 'm']","['Clue', 'Monopoly']","[-0.15, 0.5]","[0.15, 0.5]",1,1,,,,,,,,,0,1,1,1,0,7,7,0,,,,,,,,,,,,,,,,,,,,,,,,,,,,,,,,,,,,,,,,,,,,,,,,,,,,,,,1763.3064394150006,None,1763.3064394150006,None,1763.3064394150006,None,c,1,0.7821724100012943,1764.839677510001,None,1764.839677510001,None,1764.839677510001,None,1765.6729608679998,None,1765.6729608679998,None,1765.6729608679998,None,1765.6729608679998,None,,,,,,,,,,,,,,,,,,,,,,,,,,,,,,,,,,,,,,,,,,,,001,166,2020_Feb_25_1213,spring_faces,3.1.5,60.09691408654697,
condition files/Stage1_1.xlsx,,B4,T4,m,"['c', 'm']","['Clue', 'Monopoly']","[-0.15, 0.5]","[0.15, 0.5]",1,1,,,,,,,,,0,2,2,2,0,0,0,7,,,,,,,,,,,,,,,,,,,,,,,,,,,,,,,,,,,,,,,,,,,,,,,,,,,,,,,1767.6566287740006,None,1767.6566287740006,None,1767.6566287740006,None,m,1,0.7677815980005107,1769.1900028260006,None,1769.1900028260006,None,1769.1900028260006,None,1770.0240980729995,None,1770.0240980729995,None,1770.0240980729995,None,1770.0240980729995,None,,,,,,,,,,,,,,,,,,,,,,,,,,,,,,,,,,,,,,,,,,,,001,166,2020_Feb_25_1213,spring_faces,3.1.5,60.09691408654697,
condition files/Stage1_1.xlsx,,B1,T2,c,"['c', 'm']","['Clue', 'Monopoly']","[-0.15, 0.5]","[0.15, 0.5]",1,1,,,,,,,,,0,2,2,2,0,1,1,1,,,,,,,,,,,,,,,,,,,,,,,,,,,,,,,,,,,,,,,,,,,,,,,,,,,,,,,1771.989559740001,None,1771.989559740001,None,1771.989559740001,None,c,1,0.43381398000019544,1773.5239950659998,None,1773.5239950659998,None,1773.5239950659998,None,1774.0238357320013,None,1774.0238357320013,None,1774.0238357320013,None,1774.0238357320013,None,,,,,,,,,,,,,,,,,,,,,,,,,,,,,,,,,,,,,,,,,,,,001,166,2020_Feb_25_1213,spring_faces,3.1.5,60.09691408654697,
condition files/Stage1_1.xlsx,,T4,B3,m,"['c', 'm']","['Clue', 'Monopoly']","[-0.15, 0.5]","[0.15, 0.5]",1,1,,,,,,,,,0,2,2,2,0,2,2,6,,,,,,,,,,,,,,,,,,,,,,,,,,,,,,,,,,,,,,,,,,,,,,,,,,,,,,,1775.9897456529998,None,1775.9897456529998,None,1775.9897456529998,None,m,1,0.6570574149991444,1777.5248439719999,None,1777.5248439719999,None,1777.5248439719999,None,1778.2419618660006,None,1778.2419618660006,None,1778.2419618660006,None,1778.2419618660006,None,,,,,,,,,,,,,,,,,,,,,,,,,,,,,,,,,,,,,,,,,,,,001,166,2020_Feb_25_1213,spring_faces,3.1.5,60.09691408654697,
condition files/Stage1_1.xlsx,,B2,T1,m,"['c', 'm']","['Clue', 'Monopoly']","[-0.15, 0.5]","[0.15, 0.5]",1,1,,,,,,,,,0,2,2,2,0,3,3,2,,,,,,,,,,,,,,,,,,,,,,,,,,,,,,,,,,,,,,,,,,,,,,,,,,,,,,,1780.2060553419997,None,1780.2060553419997,None,1780.2060553419997,None,c,0,0.600783150001007,1781.74102915,None,1781.74102915,None,1781.74102915,None,1782.4059518860013,None,1782.4059518860013,None,1782.4059518860013,None,1782.4059518860013,None,,,,,,,,,,,,,,,,,,,,,,,,,,,,,,,,,,,,,,,,,,,,001,166,2020_Feb_25_1213,spring_faces,3.1.5,60.09691408654697,
condition files/Stage1_1.xlsx,,T2,B2,m,"['c', 'm']","['Clue', 'Monopoly']","[-0.15, 0.5]","[0.15, 0.5]",1,1,,,,,,,,,0,2,2,2,0,4,4,3,,,,,,,,,,,,,,,,,,,,,,,,,,,,,,,,,,,,,,,,,,,,,,,,,,,,,,,1784.3730752089996,None,1784.3730752089996,None,1784.3730752089996,None,c,0,0.7715359419999004,1785.9063203620008,None,1785.9063203620008,None,1785.9063203620008,None,1786.7403741760008,None,1786.7403741760008,None,1786.7403741760008,None,1786.7403741760008,None,,,,,,,,,,,,,,,,,,,,,,,,,,,,,,,,,,,,,,,,,,,,001,166,2020_Feb_25_1213,spring_faces,3.1.5,60.09691408654697,
condition files/Stage1_1.xlsx,,T1,B1,c,"['c', 'm']","['Clue', 'Monopoly']","[-0.15, 0.5]","[0.15, 0.5]",1,1,,,,,,,,,0,2,2,2,0,5,5,0,,,,,,,,,,,,,,,,,,,,,,,,,,,,,,,,,,,,,,,,,,,,,,,,,,,,,,,1788.706739180001,None,1788.706739180001,None,1788.706739180001,None,c,1,0.9657883210002183,1790.2560605890012,None,1790.2560605890012,None,1790.2560605890012,None,1791.2901006379998,None,1791.2901006379998,None,1791.2901006379998,None,1791.2901006379998,None,,,,,,,,,,,,,,,,,,,,,,,,,,,,,,,,,,,,,,,,,,,,001,166,2020_Feb_25_1213,spring_faces,3.1.5,60.09691408654697,
condition files/Stage1_1.xlsx,,T3,B4,c,"['c', 'm']","['Clue', 'Monopoly']","[-0.15, 0.5]","[0.15, 0.5]",1,1,,,,,,,,,0,2,2,2,0,6,6,5,,,,,,,,,,,,,,,,,,,,,,,,,,,,,,,,,,,,,,,,,,,,,,,,,,,,,,,1793.2396813289997,None,1793.2396813289997,None,1793.2396813289997,None,c,1,0.8483998860010615,1794.773464359001,None,1794.773464359001,None,1794.773464359001,None,1795.6734154000005,None,1795.6734154000005,None,1795.6734154000005,None,1795.6734154000005,None,,,,,,,,,,,,,,,,,,,,,,,,,,,,,,,,,,,,,,,,,,,,001,166,2020_Feb_25_1213,spring_faces,3.1.5,60.09691408654697,
condition files/Stage1_1.xlsx,,B3,T3,c,"['c', 'm']","['Clue', 'Monopoly']","[-0.15, 0.5]","[0.15, 0.5]",1,1,,,,,,,,,0,2,2,2,0,7,7,4,,,,,,,,,,,,,,,,,,,,,,,,,,,,,,,,,,,,,,,,,,,,,,,,,,,,,,,1797.639383312,None,1797.639383312,None,1797.639383312,None,m,0,1.5523016650004138,1799.1735155340011,None,1799.1735155340011,None,1799.1735155340011,None,1800.789688707,None,1800.789688707,None,1800.789688707,None,1800.789688707,None,,,,,,,,,,,,,,,,,,,,,,,,,,,,,,,,,,,,,,,,,,,,001,166,2020_Feb_25_1213,spring_faces,3.1.5,60.09691408654697,
condition files/Stage1_2.xlsx,,T2,B1,c,"['c', 'm']","['Clue', 'Monopoly']","[-0.15, 0.5]","[0.15, 0.5]",1,1,,,,,,,,,0,3,3,3,0,0,0,1,,,,,,,,,,,,,,,,,,,,,,,,,,,,,,,,,,,,,,,,,,,,,,,,,,,,,,,1802.773338152001,None,1802.773338152001,None,1802.773338152001,None,m,0,1.5551510549994418,1804.306704259001,None,1804.306704259001,None,1804.306704259001,None,1805.9231590950003,None,1805.9231590950003,None,1805.9231590950003,None,1805.9231590950003,None,,,,,,,,,,,,,,,,,,,,,,,,,,,,,,,,,,,,,,,,,,,,001,166,2020_Feb_25_1213,spring_faces,3.1.5,60.09691408654697,
condition files/Stage1_2.xlsx,,B2,T2,m,"['c', 'm']","['Clue', 'Monopoly']","[-0.15, 0.5]","[0.15, 0.5]",1,1,,,,,,,,,0,3,3,3,0,1,1,3,,,,,,,,,,,,,,,,,,,,,,,,,,,,,,,,,,,,,,,,,,,,,,,,,,,,,,,1807.889168142001,None,1807.889168142001,None,1807.889168142001,None,c,0,2.3734730249998393,1809.4244142900006,None,1809.4244142900006,None,1809.4244142900006,None,1811.873829604001,None,1811.873829604001,None,1811.873829604001,None,1811.873829604001,None,,,,,,,,,,,,,,,,,,,,,,,,,,,,,,,,,,,,,,,,,,,,001,166,2020_Feb_25_1213,spring_faces,3.1.5,60.09691408654697,
condition files/Stage1_2.xlsx,,B3,T4,m,"['c', 'm']","['Clue', 'Monopoly']","[-0.15, 0.5]","[0.15, 0.5]",1,1,,,,,,,,,0,3,3,3,0,2,2,6,,,,,,,,,,,,,,,,,,,,,,,,,,,,,,,,,,,,,,,,,,,,,,,,,,,,,,,1813.8230333459996,None,1813.8230333459996,None,1813.8230333459996,None,m,1,0.8896131429992238,1815.3562528849998,None,1815.3562528849998,None,1815.3562528849998,None,1816.3065957729996,None,1816.3065957729996,None,1816.3065957729996,None,1816.3065957729996,None,,,,,,,,,,,,,,,,,,,,,,,,,,,,,,,,,,,,,,,,,,,,001,166,2020_Feb_25_1213,spring_faces,3.1.5,60.09691408654697,
condition files/Stage1_2.xlsx,,T1,B2,m,"['c', 'm']","['Clue', 'Monopoly']","[-0.15, 0.5]","[0.15, 0.5]",1,1,,,,,,,,,0,3,3,3,0,3,3,2,,,,,,,,,,,,,,,,,,,,,,,,,,,,,,,,,,,,,,,,,,,,,,,,,,,,,,,1818.273028953001,None,1818.273028953001,None,1818.273028953001,None,c,0,0.8876707709987386,1819.8061839889997,None,1819.8061839889997,None,1819.8061839889997,None,1820.7569318280002,None,1820.7569318280002,None,1820.7569318280002,None,1820.7569318280002,None,,,,,,,,,,,,,,,,,,,,,,,,,,,,,,,,,,,,,,,,,,,,001,166,2020_Feb_25_1213,spring_faces,3.1.5,60.09691408654697,
condition files/Stage1_2.xlsx,,T3,B3,c,"['c', 'm']","['Clue', 'Monopoly']","[-0.15, 0.5]","[0.15, 0.5]",1,1,,,,,,,,,0,3,3,3,0,4,4,4,,,,,,,,,,,,,,,,,,,,,,,,,,,,,,,,,,,,,,,,,,,,,,,,,,,,,,,1822.72301643,None,1822.72301643,None,1822.72301643,None,m,0,0.9809081359999254,1824.2569380630011,None,1824.2569380630011,None,1824.2569380630011,None,1825.2908704600013,None,1825.2908704600013,None,1825.2908704600013,None,1825.2908704600013,None,,,,,,,,,,,,,,,,,,,,,,,,,,,,,,,,,,,,,,,,,,,,001,166,2020_Feb_25_1213,spring_faces,3.1.5,60.09691408654697,
condition files/Stage1_2.xlsx,,B1,T1,c,"['c', 'm']","['Clue', 'Monopoly']","[-0.15, 0.5]","[0.15, 0.5]",1,1,,,,,,,,,0,3,3,3,0,5,5,0,,,,,,,,,,,,,,,,,,,,,,,,,,,,,,,,,,,,,,,,,,,,,,,,,,,,,,,1827.256269046,None,1827.256269046,None,1827.256269046,None,m,0,0.9284716810016107,1828.7893471300013,None,1828.7893471300013,None,1828.7893471300013,None,1829.773475940001,None,1829.773475940001,None,1829.773475940001,None,1829.773475940001,None,,,,,,,,,,,,,,,,,,,,,,,,,,,,,,,,,,,,,,,,,,,,001,166,2020_Feb_25_1213,spring_faces,3.1.5,60.09691408654697,
condition files/Stage1_2.xlsx,,B4,T3,c,"['c', 'm']","['Clue', 'Monopoly']","[-0.15, 0.5]","[0.15, 0.5]",1,1,,,,,,,,,0,3,3,3,0,6,6,5,,,,,,,,,,,,,,,,,,,,,,,,,,,,,,,,,,,,,,,,,,,,,,,,,,,,,,,1831.7395280970013,None,1831.7395280970013,None,1831.7395280970013,None,c,1,0.3155960349995439,1833.2902574020009,None,1833.2902574020009,None,1833.2902574020009,None,1833.6567568770006,None,1833.6567568770006,None,1833.6567568770006,None,1833.6567568770006,None,,,,,,,,,,,,,,,,,,,,,,,,,,,,,,,,,,,,,,,,,,,,001,166,2020_Feb_25_1213,spring_faces,3.1.5,60.09691408654697,
condition files/Stage1_2.xlsx,,T4,B4,m,"['c', 'm']","['Clue', 'Monopoly']","[-0.15, 0.5]","[0.15, 0.5]",1,1,,,,,,,,,0,3,3,3,0,7,7,7,,,,,,,,,,,,,,,,,,,,,,,,,,,,,,,,,,,,,,,,,,,,,,,,,,,,,,,1835.6230352530001,None,1835.6230352530001,None,1835.6230352530001,None,c,0,5.025207912998667,1837.1566946439998,None,1837.1566946439998,None,1837.1566946439998,None,1842.2398358400005,None,1842.2398358400005,None,1842.2398358400005,None,1842.2398358400005,None,,,,,,,,,,,,,,,,,,,,,,,,,,,,,,,,,,,,,,,,,,,,001,166,2020_Feb_25_1213,spring_faces,3.1.5,60.09691408654697,
condition files/Stage1_1.xlsx,,T3,B4,c,"['c', 'm']","['Clue', 'Monopoly']","[-0.15, 0.5]","[0.15, 0.5]",1,1,,,,,,,,,0,4,4,4,0,0,0,5,,,,,,,,,,,,,,,,,,,,,,,,,,,,,,,,,,,,,,,,,,,,,,,,,,,,,,,1844.2230349090005,None,1844.2230349090005,None,1844.2230349090005,None,m,0,1.75262281400137,1845.773249582,None,1845.773249582,None,1845.773249582,None,1847.5911795920001,None,1847.5911795920001,None,1847.5911795920001,None,1847.5911795920001,None,,,,,,,,,,,,,,,,,,,,,,,,,,,,,,,,,,,,,,,,,,,,001,166,2020_Feb_25_1213,spring_faces,3.1.5,60.09691408654697,
condition files/Stage1_1.xlsx,,B3,T3,c,"['c', 'm']","['Clue', 'Monopoly']","[-0.15, 0.5]","[0.15, 0.5]",1,1,,,,,,,,,0,4,4,4,0,1,1,4,,,,,,,,,,,,,,,,,,,,,,,,,,,,,,,,,,,,,,,,,,,,,,,,,,,,,,,1849.5560441369998,None,1849.5560441369998,None,1849.5560441369998,None,m,0,1.154372314000284,1851.0914834720006,None,1851.0914834720006,None,1851.0914834720006,None,1852.3063802590004,None,1852.3063802590004,None,1852.3063802590004,None,1852.3063802590004,None,,,,,,,,,,,,,,,,,,,,,,,,,,,,,,,,,,,,,,,,,,,,001,166,2020_Feb_25_1213,spring_faces,3.1.5,60.09691408654697,
condition files/Stage1_1.xlsx,,T4,B3,m,"['c', 'm']","['Clue', 'Monopoly']","[-0.15, 0.5]","[0.15, 0.5]",1,1,,,,,,,,,0,4,4,4,0,2,2,6,,,,,,,,,,,,,,,,,,,,,,,,,,,,,,,,,,,,,,,,,,,,,,,,,,,,,,,1854.272988054001,None,1854.272988054001,None,1854.272988054001,None,m,1,0.7275089049999224,1855.8063684520002,None,1855.8063684520002,None,1855.8063684520002,None,1856.6068183730004,None,1856.6068183730004,None,1856.6068183730004,None,1856.6068183730004,None,,,,,,,,,,,,,,,,,,,,,,,,,,,,,,,,,,,,,,,,,,,,001,166,2020_Feb_25_1213,spring_faces,3.1.5,60.09691408654697,
condition files/Stage1_1.xlsx,,T1,B1,c,"['c', 'm']","['Clue', 'Monopoly']","[-0.15, 0.5]","[0.15, 0.5]",1,1,,,,,,,,,0,4,4,4,0,3,3,0,,,,,,,,,,,,,,,,,,,,,,,,,,,,,,,,,,,,,,,,,,,,,,,,,,,,,,,1858.5563552330004,None,1858.5563552330004,None,1858.5563552330004,None,c,1,1.4671267649991933,1860.1066732600011,None,1860.1066732600011,None,1860.1066732600011,None,1861.6404470830003,None,1861.6404470830003,None,1861.6404470830003,None,1861.6404470830003,None,,,,,,,,,,,,,,,,,,,,,,,,,,,,,,,,,,,,,,,,,,,,001,166,2020_Feb_25_1213,spring_faces,3.1.5,60.09691408654697,
condition files/Stage1_1.xlsx,,B2,T1,m,"['c', 'm']","['Clue', 'Monopoly']","[-0.15, 0.5]","[0.15, 0.5]",1,1,,,,,,,,,0,4,4,4,0,4,4,2,,,,,,,,,,,,,,,,,,,,,,,,,,,,,,,,,,,,,,,,,,,,,,,,,,,,,,,1863.606177171001,None,1863.606177171001,None,1863.606177171001,None,c,0,1.4089560699994763,1865.1568861690012,None,1865.1568861690012,None,1865.1568861690012,None,1866.6249880840005,None,1866.6249880840005,None,1866.6249880840005,None,1866.6249880840005,None,,,,,,,,,,,,,,,,,,,,,,,,,,,,,,,,,,,,,,,,,,,,001,166,2020_Feb_25_1213,spring_faces,3.1.5,60.09691408654697,
condition files/Stage1_1.xlsx,,B1,T2,c,"['c', 'm']","['Clue', 'Monopoly']","[-0.15, 0.5]","[0.15, 0.5]",1,1,,,,,,,,,0,4,4,4,0,5,5,1,,,,,,,,,,,,,,,,,,,,,,,,,,,,,,,,,,,,,,,,,,,,,,,,,,,,,,,1868.5896524649997,None,1868.5896524649997,None,1868.5896524649997,None,c,1,1.9316209810003784,1870.1222049280004,None,1870.1222049280004,None,1870.1222049280004,None,1872.108554679,None,1872.108554679,None,1872.108554679,None,1872.108554679,None,,,,,,,,,,,,,,,,,,,,,,,,,,,,,,,,,,,,,,,,,,,,001,166,2020_Feb_25_1213,spring_faces,3.1.5,60.09691408654697,
condition files/Stage1_1.xlsx,,T2,B2,m,"['c', 'm']","['Clue', 'Monopoly']","[-0.15, 0.5]","[0.15, 0.5]",1,1,,,,,,,,,0,4,4,4,0,6,6,3,,,,,,,,,,,,,,,,,,,,,,,,,,,,,,,,,,,,,,,,,,,,,,,,,,,,,,,1874.0727215710012,None,1874.0727215710012,None,1874.0727215710012,None,m,1,0.8313311689998955,1875.6065112230008,None,1875.6065112230008,None,1875.6065112230008,None,1876.5066066600011,None,1876.5066066600011,None,1876.5066066600011,None,1876.5066066600011,None,,,,,,,,,,,,,,,,,,,,,,,,,,,,,,,,,,,,,,,,,,,,001,166,2020_Feb_25_1213,spring_faces,3.1.5,60.09691408654697,
condition files/Stage1_1.xlsx,,B4,T4,m,"['c', 'm']","['Clue', 'Monopoly']","[-0.15, 0.5]","[0.15, 0.5]",1,1,,,,,,,,,0,4,4,4,0,7,7,7,,,,,,,,,,,,,,,,,,,,,,,,,,,,,,,,,,,,,,,,,,,,,,,,,,,,,,,1878.4565046790012,None,1878.4565046790012,None,1878.4565046790012,None,m,1,0.7352739450016088,1880.0065450250004,None,1880.0065450250004,None,1880.0065450250004,None,1880.8063627009997,None,1880.8063627009997,None,1880.8063627009997,None,1880.8063627009997,None,,,,,,,,,,,,,,,,,,,,,,,,,,,,,,,,,,,,,,,,,,,,001,166,2020_Feb_25_1213,spring_faces,3.1.5,60.09691408654697,
condition files/Stage1_2.xlsx,,T2,B1,c,"['c', 'm']","['Clue', 'Monopoly']","[-0.15, 0.5]","[0.15, 0.5]",1,1,,,,,,,,,0,5,5,5,0,0,0,1,,,,,,,,,,,,,,,,,,,,,,,,,,,,,,,,,,,,,,,,,,,,,,,,,,,,,,,1882.7901975170007,None,1882.7901975170007,None,1882.7901975170007,None,c,1,1.4103205280007387,1884.3235127730004,None,1884.3235127730004,None,1884.3235127730004,None,1885.792207255001,None,1885.792207255001,None,1885.792207255001,None,1885.792207255001,None,,,,,,,,,,,,,,,,,,,,,,,,,,,,,,,,,,,,,,,,,,,,001,166,2020_Feb_25_1213,spring_faces,3.1.5,60.09691408654697,
condition files/Stage1_2.xlsx,,B3,T4,m,"['c', 'm']","['Clue', 'Monopoly']","[-0.15, 0.5]","[0.15, 0.5]",1,1,,,,,,,,,0,5,5,5,0,1,1,6,,,,,,,,,,,,,,,,,,,,,,,,,,,,,,,,,,,,,,,,,,,,,,,,,,,,,,,1887.756180208,None,1887.756180208,None,1887.756180208,None,m,1,0.6518442449996655,1889.2900014589995,None,1889.2900014589995,None,1889.2900014589995,None,1890.007590733001,None,1890.007590733001,None,1890.007590733001,None,1890.007590733001,None,,,,,,,,,,,,,,,,,,,,,,,,,,,,,,,,,,,,,,,,,,,,001,166,2020_Feb_25_1213,spring_faces,3.1.5,60.09691408654697,
condition files/Stage1_2.xlsx,,B1,T1,c,"['c', 'm']","['Clue', 'Monopoly']","[-0.15, 0.5]","[0.15, 0.5]",1,1,,,,,,,,,0,5,5,5,0,2,2,0,,,,,,,,,,,,,,,,,,,,,,,,,,,,,,,,,,,,,,,,,,,,,,,,,,,,,,,1891.9730075710013,None,1891.9730075710013,None,1891.9730075710013,None,c,1,1.0910293999986607,1893.522859689001,None,1893.522859689001,None,1893.522859689001,None,1894.6900130120011,None,1894.6900130120011,None,1894.6900130120011,None,1894.6900130120011,None,,,,,,,,,,,,,,,,,,,,,,,,,,,,,,,,,,,,,,,,,,,,001,166,2020_Feb_25_1213,spring_faces,3.1.5,60.09691408654697,
condition files/Stage1_2.xlsx,,B4,T3,c,"['c', 'm']","['Clue', 'Monopoly']","[-0.15, 0.5]","[0.15, 0.5]",1,1,,,,,,,,,0,5,5,5,0,3,3,5,,,,,,,,,,,,,,,,,,,,,,,,,,,,,,,,,,,,,,,,,,,,,,,,,,,,,,,1896.639692226001,None,1896.639692226001,None,1896.639692226001,None,c,1,1.3358661560014298,1898.1899798060003,None,1898.1899798060003,None,1898.1899798060003,None,1899.5897882090012,None,1899.5897882090012,None,1899.5897882090012,None,1899.5897882090012,None,,,,,,,,,,,,,,,,,,,,,,,,,,,,,,,,,,,,,,,,,,,,001,166,2020_Feb_25_1213,spring_faces,3.1.5,60.09691408654697,
condition files/Stage1_2.xlsx,,T1,B2,m,"['c', 'm']","['Clue', 'Monopoly']","[-0.15, 0.5]","[0.15, 0.5]",1,1,,,,,,,,,0,5,5,5,0,4,4,2,,,,,,,,,,,,,,,,,,,,,,,,,,,,,,,,,,,,,,,,,,,,,,,,,,,,,,,1901.5568391020006,None,1901.5568391020006,None,1901.5568391020006,None,m,1,0.6748006210000312,1903.0910435269998,None,1903.0910435269998,None,1903.0910435269998,None,1903.839300439,None,1903.839300439,None,1903.839300439,None,1903.839300439,None,,,,,,,,,,,,,,,,,,,,,,,,,,,,,,,,,,,,,,,,,,,,001,166,2020_Feb_25_1213,spring_faces,3.1.5,60.09691408654697,
condition files/Stage1_2.xlsx,,B2,T2,m,"['c', 'm']","['Clue', 'Monopoly']","[-0.15, 0.5]","[0.15, 0.5]",1,1,,,,,,,,,0,5,5,5,0,5,5,3,,,,,,,,,,,,,,,,,,,,,,,,,,,,,,,,,,,,,,,,,,,,,,,,,,,,,,,1905.7896710550012,None,1905.7896710550012,None,1905.7896710550012,None,c,0,0.5049344429990015,1907.3249696809999,None,1907.3249696809999,None,1907.3249696809999,None,1907.8903032320013,None,1907.8903032320013,None,1907.8903032320013,None,1907.8903032320013,None,,,,,,,,,,,,,,,,,,,,,,,,,,,,,,,,,,,,,,,,,,,,001,166,2020_Feb_25_1213,spring_faces,3.1.5,60.09691408654697,
condition files/Stage1_2.xlsx,,T4,B4,m,"['c', 'm']","['Clue', 'Monopoly']","[-0.15, 0.5]","[0.15, 0.5]",1,1,,,,,,,,,0,5,5,5,0,6,6,7,,,,,,,,,,,,,,,,,,,,,,,,,,,,,,,,,,,,,,,,,,,,,,,,,,,,,,,1909.8563256710004,None,1909.8563256710004,None,1909.8563256710004,None,m,1,0.40802927400000044,1911.3899007190012,None,1911.3899007190012,None,1911.3899007190012,None,1911.8561577580003,None,1911.8561577580003,None,1911.8561577580003,None,1911.8561577580003,None,,,,,,,,,,,,,,,,,,,,,,,,,,,,,,,,,,,,,,,,,,,,001,166,2020_Feb_25_1213,spring_faces,3.1.5,60.09691408654697,
condition files/Stage1_2.xlsx,,T3,B3,c,"['c', 'm']","['Clue', 'Monopoly']","[-0.15, 0.5]","[0.15, 0.5]",1,1,,,,,,,,,0,5,5,5,0,7,7,4,,,,,,,,,,,,,,,,,,,,,,,,,,,,,,,,,,,,,,,,,,,,,,,,,,,,,,,1913.8230739090013,None,1913.8230739090013,None,1913.8230739090013,None,m,0,0.40842974400038656,1915.3734455150006,None,1915.3734455150006,None,1915.3734455150006,None,1915.8425374180006,None,1915.8425374180006,None,1915.8425374180006,None,1915.8425374180006,None,,,,,,,,,,,,,,,,,,,,,,,,,,,,,,,,,,,,,,,,,,,,001,166,2020_Feb_25_1213,spring_faces,3.1.5,60.09691408654697,
condition files/Stage1_1.xlsx,,T2,B2,m,"['c', 'm']","['Clue', 'Monopoly']","[-0.15, 0.5]","[0.15, 0.5]",1,1,,,,,,,,,0,6,6,6,0,0,0,3,,,,,,,,,,,,,,,,,,,,,,,,,,,,,,,,,,,,,,,,,,,,,,,,,,,,,,,1917.8230149009996,None,1917.8230149009996,None,1917.8230149009996,None,c,0,0.5847251779996441,1919.3571267179996,None,1919.3571267179996,None,1919.3571267179996,None,1920.006922206001,None,1920.006922206001,None,1920.006922206001,None,1920.006922206001,None,,,,,,,,,,,,,,,,,,,,,,,,,,,,,,,,,,,,,,,,,,,,001,166,2020_Feb_25_1213,spring_faces,3.1.5,60.09691408654697,
condition files/Stage1_1.xlsx,,B3,T3,c,"['c', 'm']","['Clue', 'Monopoly']","[-0.15, 0.5]","[0.15, 0.5]",1,1,,,,,,,,,0,6,6,6,0,1,1,4,,,,,,,,,,,,,,,,,,,,,,,,,,,,,,,,,,,,,,,,,,,,,,,,,,,,,,,1921.9725451080012,None,1921.9725451080012,None,1921.9725451080012,None,m,0,0.46752981999998156,1923.506271929,None,1923.506271929,None,1923.506271929,None,1924.0393807580003,None,1924.0393807580003,None,1924.0393807580003,None,1924.0393807580003,None,,,,,,,,,,,,,,,,,,,,,,,,,,,,,,,,,,,,,,,,,,,,001,166,2020_Feb_25_1213,spring_faces,3.1.5,60.09691408654697,
condition files/Stage1_1.xlsx,,B2,T1,m,"['c', 'm']","['Clue', 'Monopoly']","[-0.15, 0.5]","[0.15, 0.5]",1,1,,,,,,,,,0,6,6,6,0,2,2,2,,,,,,,,,,,,,,,,,,,,,,,,,,,,,,,,,,,,,,,,,,,,,,,,,,,,,,,1926.0055546740005,None,1926.0055546740005,None,1926.0055546740005,None,c,0,0.3858428499988804,1927.5400237989998,None,1927.5400237989998,None,1927.5400237989998,None,1927.9903755970008,None,1927.9903755970008,None,1927.9903755970008,None,1927.9903755970008,None,,,,,,,,,,,,,,,,,,,,,,,,,,,,,,,,,,,,,,,,,,,,001,166,2020_Feb_25_1213,spring_faces,3.1.5,60.09691408654697,
condition files/Stage1_1.xlsx,,B1,T2,c,"['c', 'm']","['Clue', 'Monopoly']","[-0.15, 0.5]","[0.15, 0.5]",1,1,,,,,,,,,0,6,6,6,0,3,3,1,,,,,,,,,,,,,,,,,,,,,,,,,,,,,,,,,,,,,,,,,,,,,,,,,,,,,,,1929.956321578,None,1929.956321578,None,1929.956321578,None,c,1,0.6764036469994608,1931.4894418500007,None,1931.4894418500007,None,1931.4894418500007,None,1932.2250398720007,None,1932.2250398720007,None,1932.2250398720007,None,1932.2250398720007,None,,,,,,,,,,,,,,,,,,,,,,,,,,,,,,,,,,,,,,,,,,,,001,166,2020_Feb_25_1213,spring_faces,3.1.5,60.09691408654697,
condition files/Stage1_1.xlsx,,T4,B3,m,"['c', 'm']","['Clue', 'Monopoly']","[-0.15, 0.5]","[0.15, 0.5]",1,1,,,,,,,,,0,6,6,6,0,4,4,6,,,,,,,,,,,,,,,,,,,,,,,,,,,,,,,,,,,,,,,,,,,,,,,,,,,,,,,1934.1892546060008,None,1934.1892546060008,None,1934.1892546060008,None,m,1,0.6351118099992163,1935.7226851110008,None,1935.7226851110008,None,1935.7226851110008,None,1936.4248986029997,None,1936.4248986029997,None,1936.4248986029997,None,1936.4248986029997,None,,,,,,,,,,,,,,,,,,,,,,,,,,,,,,,,,,,,,,,,,,,,001,166,2020_Feb_25_1213,spring_faces,3.1.5,60.09691408654697,
condition files/Stage1_1.xlsx,,T1,B1,c,"['c', 'm']","['Clue', 'Monopoly']","[-0.15, 0.5]","[0.15, 0.5]",1,1,,,,,,,,,0,6,6,6,0,5,5,0,,,,,,,,,,,,,,,,,,,,,,,,,,,,,,,,,,,,,,,,,,,,,,,,,,,,,,,1938.3896176770013,None,1938.3896176770013,None,1938.3896176770013,None,m,0,0.9299335850009811,1939.9400799289997,None,1939.9400799289997,None,1939.9400799289997,None,1940.9252573560007,None,1940.9252573560007,None,1940.9252573560007,None,1940.9252573560007,None,,,,,,,,,,,,,,,,,,,,,,,,,,,,,,,,,,,,,,,,,,,,001,166,2020_Feb_25_1213,spring_faces,3.1.5,60.09691408654697,
condition files/Stage1_1.xlsx,,B4,T4,m,"['c', 'm']","['Clue', 'Monopoly']","[-0.15, 0.5]","[0.15, 0.5]",1,1,,,,,,,,,0,6,6,6,0,6,6,7,,,,,,,,,,,,,,,,,,,,,,,,,,,,,,,,,,,,,,,,,,,,,,,,,,,,,,,1942.8894413890011,None,1942.8894413890011,None,1942.8894413890011,None,m,1,0.8617708500005392,1944.4400559700007,None,1944.4400559700007,None,1944.4400559700007,None,1945.3585381909998,None,1945.3585381909998,None,1945.3585381909998,None,1945.3585381909998,None,,,,,,,,,,,,,,,,,,,,,,,,,,,,,,,,,,,,,,,,,,,,001,166,2020_Feb_25_1213,spring_faces,3.1.5,60.09691408654697,
condition files/Stage1_1.xlsx,,T3,B4,c,"['c', 'm']","['Clue', 'Monopoly']","[-0.15, 0.5]","[0.15, 0.5]",1,1,,,,,,,,,0,6,6,6,0,7,7,5,,,,,,,,,,,,,,,,,,,,,,,,,,,,,,,,,,,,,,,,,,,,,,,,,,,,,,,1947.3229830590008,None,1947.3229830590008,None,1947.3229830590008,None,m,0,0.8130110339989187,1948.8568270150008,None,1948.8568270150008,None,1948.8568270150008,None,1949.7258636780007,None,1949.7258636780007,None,1949.7258636780007,None,1949.7258636780007,None,,,,,,,,,,,,,,,,,,,,,,,,,,,,,,,,,,,,,,,,,,,,001,166,2020_Feb_25_1213,spring_faces,3.1.5,60.09691408654697,
condition files/Stage1_2.xlsx,,B4,T3,c,"['c', 'm']","['Clue', 'Monopoly']","[-0.15, 0.5]","[0.15, 0.5]",1,1,,,,,,,,,0,7,7,7,0,0,0,5,,,,,,,,,,,,,,,,,,,,,,,,,,,,,,,,,,,,,,,,,,,,,,,,,,,,,,,1951.706371272001,None,1951.706371272001,None,1951.706371272001,None,c,1,2.7817712480009504,1953.240077595001,None,1953.240077595001,None,1953.240077595001,None,1956.073183169001,None,1956.073183169001,None,1956.073183169001,None,1956.073183169001,None,,,,,,,,,,,,,,,,,,,,,,,,,,,,,,,,,,,,,,,,,,,,001,166,2020_Feb_25_1213,spring_faces,3.1.5,60.09691408654697,
condition files/Stage1_2.xlsx,,T1,B2,m,"['c', 'm']","['Clue', 'Monopoly']","[-0.15, 0.5]","[0.15, 0.5]",1,1,,,,,,,,,0,7,7,7,0,1,1,2,,,,,,,,,,,,,,,,,,,,,,,,,,,,,,,,,,,,,,,,,,,,,,,,,,,,,,,1958.0392188019996,None,1958.0392188019996,None,1958.0392188019996,None,c,0,0.6887848370006395,1959.5730325780005,None,1959.5730325780005,None,1959.5730325780005,None,1960.3399654860004,None,1960.3399654860004,None,1960.3399654860004,None,1960.3399654860004,None,,,,,,,,,,,,,,,,,,,,,,,,,,,,,,,,,,,,,,,,,,,,001,166,2020_Feb_25_1213,spring_faces,3.1.5,60.09691408654697,
condition files/Stage1_2.xlsx,,B2,T2,m,"['c', 'm']","['Clue', 'Monopoly']","[-0.15, 0.5]","[0.15, 0.5]",1,1,,,,,,,,,0,7,7,7,0,2,2,3,,,,,,,,,,,,,,,,,,,,,,,,,,,,,,,,,,,,,,,,,,,,,,,,,,,,,,,1962.289663474001,None,1962.289663474001,None,1962.289663474001,None,m,1,0.3739065270001447,1963.8399833330004,None,1963.8399833330004,None,1963.8399833330004,None,1964.2729166650006,None,1964.2729166650006,None,1964.2729166650006,None,1964.2729166650006,None,,,,,,,,,,,,,,,,,,,,,,,,,,,,,,,,,,,,,,,,,,,,001,166,2020_Feb_25_1213,spring_faces,3.1.5,60.09691408654697,
condition files/Stage1_2.xlsx,,B3,T4,m,"['c', 'm']","['Clue', 'Monopoly']","[-0.15, 0.5]","[0.15, 0.5]",1,1,,,,,,,,,0,7,7,7,0,3,3,6,,,,,,,,,,,,,,,,,,,,,,,,,,,,,,,,,,,,,,,,,,,,,,,,,,,,,,,1966.2392209600002,None,1966.2392209600002,None,1966.2392209600002,None,m,1,0.6327698400000372,1967.7730979490007,None,1967.7730979490007,None,1967.7730979490007,None,1968.456602186001,None,1968.456602186001,None,1968.456602186001,None,1968.456602186001,None,,,,,,,,,,,,,,,,,,,,,,,,,,,,,,,,,,,,,,,,,,,,001,166,2020_Feb_25_1213,spring_faces,3.1.5,60.09691408654697,
condition files/Stage1_2.xlsx,,B1,T1,c,"['c', 'm']","['Clue', 'Monopoly']","[-0.15, 0.5]","[0.15, 0.5]",1,1,,,,,,,,,0,7,7,7,0,4,4,0,,,,,,,,,,,,,,,,,,,,,,,,,,,,,,,,,,,,,,,,,,,,,,,,,,,,,,,1970.422795849001,None,1970.422795849001,None,1970.422795849001,None,m,0,0.6395264559996576,1971.9583803580008,None,1971.9583803580008,None,1971.9583803580008,None,1972.6578808840004,None,1972.6578808840004,None,1972.6578808840004,None,1972.6578808840004,None,,,,,,,,,,,,,,,,,,,,,,,,,,,,,,,,,,,,,,,,,,,,001,166,2020_Feb_25_1213,spring_faces,3.1.5,60.09691408654697,
condition files/Stage1_2.xlsx,,T4,B4,m,"['c', 'm']","['Clue', 'Monopoly']","[-0.15, 0.5]","[0.15, 0.5]",1,1,,,,,,,,,0,7,7,7,0,5,5,7,,,,,,,,,,,,,,,,,,,,,,,,,,,,,,,,,,,,,,,,,,,,,,,,,,,,,,,1974.6231577260005,None,1974.6231577260005,None,1974.6231577260005,None,c,0,0.5538262400004896,1976.1560210250009,None,1976.1560210250009,None,1976.1560210250009,None,1976.789509403001,None,1976.789509403001,None,1976.789509403001,None,1976.789509403001,None,,,,,,,,,,,,,,,,,,,,,,,,,,,,,,,,,,,,,,,,,,,,001,166,2020_Feb_25_1213,spring_faces,3.1.5,60.09691408654697,
condition files/Stage1_2.xlsx,,T2,B1,c,"['c', 'm']","['Clue', 'Monopoly']","[-0.15, 0.5]","[0.15, 0.5]",1,1,,,,,,,,,0,7,7,7,0,6,6,1,,,,,,,,,,,,,,,,,,,,,,,,,,,,,,,,,,,,,,,,,,,,,,,,,,,,,,,1978.7396352380001,None,1978.7396352380001,None,1978.7396352380001,None,c,1,0.7081979829999909,1980.273699184001,None,1980.273699184001,None,1980.273699184001,None,1981.041105237,None,1981.041105237,None,1981.041105237,None,1981.041105237,None,,,,,,,,,,,,,,,,,,,,,,,,,,,,,,,,,,,,,,,,,,,,001,166,2020_Feb_25_1213,spring_faces,3.1.5,60.09691408654697,
condition files/Stage1_2.xlsx,,T3,B3,c,"['c', 'm']","['Clue', 'Monopoly']","[-0.15, 0.5]","[0.15, 0.5]",1,1,,,,,,,,,0,7,7,7,0,7,7,4,,,,,,,,,,,,,,,,,,,,,,,,,,,,,,,,,,,,,,,,,,,,,,,,,,,,,,,1983.006315595001,None,1983.006315595001,None,1983.006315595001,None,m,0,0.8079479160005576,1984.5419358239997,None,1984.5419358239997,None,1984.5419358239997,None,1985.4067341070004,None,1985.4067341070004,None,1985.4067341070004,None,1985.4067341070004,None,,,,,,,,,,,,,,,,,,,,,,,,,,,,,,,,,,,,,,,,,,,,001,166,2020_Feb_25_1213,spring_faces,3.1.5,60.09691408654697,
condition files/Stage1_1.xlsx,,B1,T2,c,"['c', 'm']","['Clue', 'Monopoly']","[-0.15, 0.5]","[0.15, 0.5]",1,1,,,,,,,,,0,8,8,8,0,0,0,1,,,,,,,,,,,,,,,,,,,,,,,,,,,,,,,,,,,,,,,,,,,,,,,,,,,,,,,1987.3900965209996,None,1987.3900965209996,None,1987.3900965209996,None,m,0,1.2748666030001914,1988.9230171870004,None,1988.9230171870004,None,1988.9230171870004,None,1990.2564083350007,None,1990.2564083350007,None,1990.2564083350007,None,1990.2564083350007,None,,,,,,,,,,,,,,,,,,,,,,,,,,,,,,,,,,,,,,,,,,,,001,166,2020_Feb_25_1213,spring_faces,3.1.5,60.09691408654697,
condition files/Stage1_1.xlsx,,T1,B1,c,"['c', 'm']","['Clue', 'Monopoly']","[-0.15, 0.5]","[0.15, 0.5]",1,1,,,,,,,,,0,8,8,8,0,1,1,0,,,,,,,,,,,,,,,,,,,,,,,,,,,,,,,,,,,,,,,,,,,,,,,,,,,,,,,1992.2231396389998,None,1992.2231396389998,None,1992.2231396389998,None,m,0,2.8084086640010355,1993.7734785310004,None,1993.7734785310004,None,1993.7734785310004,None,1996.6392813250004,None,1996.6392813250004,None,1996.6392813250004,None,1996.6392813250004,None,,,,,,,,,,,,,,,,,,,,,,,,,,,,,,,,,,,,,,,,,,,,001,166,2020_Feb_25_1213,spring_faces,3.1.5,60.09691408654697,
condition files/Stage1_1.xlsx,,T2,B2,m,"['c', 'm']","['Clue', 'Monopoly']","[-0.15, 0.5]","[0.15, 0.5]",1,1,,,,,,,,,0,8,8,8,0,2,2,3,,,,,,,,,,,,,,,,,,,,,,,,,,,,,,,,,,,,,,,,,,,,,,,,,,,,,,,1998.606583439001,None,1998.606583439001,None,1998.606583439001,None,c,0,1.5291701450005348,2000.1566490799996,None,2000.1566490799996,None,2000.1566490799996,None,2001.7567180730002,None,2001.7567180730002,None,2001.7567180730002,None,2001.7567180730002,None,,,,,,,,,,,,,,,,,,,,,,,,,,,,,,,,,,,,,,,,,,,,001,166,2020_Feb_25_1213,spring_faces,3.1.5,60.09691408654697,
condition files/Stage1_1.xlsx,,B4,T4,m,"['c', 'm']","['Clue', 'Monopoly']","[-0.15, 0.5]","[0.15, 0.5]",1,1,,,,,,,,,0,8,8,8,0,3,3,7,,,,,,,,,,,,,,,,,,,,,,,,,,,,,,,,,,,,,,,,,,,,,,,,,,,,,,,2003.7062971180003,None,2003.7062971180003,None,2003.7062971180003,None,m,1,0.6037625909993949,2005.242132505,None,2005.242132505,None,2005.242132505,None,2005.9063498220003,None,2005.9063498220003,None,2005.9063498220003,None,2005.9063498220003,None,,,,,,,,,,,,,,,,,,,,,,,,,,,,,,,,,,,,,,,,,,,,001,166,2020_Feb_25_1213,spring_faces,3.1.5,60.09691408654697,
condition files/Stage1_1.xlsx,,T3,B4,c,"['c', 'm']","['Clue', 'Monopoly']","[-0.15, 0.5]","[0.15, 0.5]",1,1,,,,,,,,,0,8,8,8,0,4,4,5,,,,,,,,,,,,,,,,,,,,,,,,,,,,,,,,,,,,,,,,,,,,,,,,,,,,,,,2007.8727658810003,None,2007.8727658810003,None,2007.8727658810003,None,m,0,1.0783841399988887,2009.4074598019997,None,2009.4074598019997,None,2009.4074598019997,None,2010.5563090790001,None,2010.5563090790001,None,2010.5563090790001,None,2010.5563090790001,None,,,,,,,,,,,,,,,,,,,,,,,,,,,,,,,,,,,,,,,,,,,,001,166,2020_Feb_25_1213,spring_faces,3.1.5,60.09691408654697,
condition files/Stage1_1.xlsx,,T4,B3,m,"['c', 'm']","['Clue', 'Monopoly']","[-0.15, 0.5]","[0.15, 0.5]",1,1,,,,,,,,,0,8,8,8,0,5,5,6,,,,,,,,,,,,,,,,,,,,,,,,,,,,,,,,,,,,,,,,,,,,,,,,,,,,,,,2012.506165453,None,2012.506165453,None,2012.506165453,None,m,1,0.7170529499999247,2014.0407440430008,None,2014.0407440430008,None,2014.0407440430008,None,2014.8258494260008,None,2014.8258494260008,None,2014.8258494260008,None,2014.8258494260008,None,,,,,,,,,,,,,,,,,,,,,,,,,,,,,,,,,,,,,,,,,,,,001,166,2020_Feb_25_1213,spring_faces,3.1.5,60.09691408654697,
condition files/Stage1_1.xlsx,,B3,T3,c,"['c', 'm']","['Clue', 'Monopoly']","[-0.15, 0.5]","[0.15, 0.5]",1,1,,,,,,,,,0,8,8,8,0,6,6,4,,,,,,,,,,,,,,,,,,,,,,,,,,,,,,,,,,,,,,,,,,,,,,,,,,,,,,,2016.789524152,None,2016.789524152,None,2016.789524152,None,c,1,1.5536446549995162,2018.3402108270002,None,2018.3402108270002,None,2018.3402108270002,None,2019.9564105870013,None,2019.9564105870013,None,2019.9564105870013,None,2019.9564105870013,None,,,,,,,,,,,,,,,,,,,,,,,,,,,,,,,,,,,,,,,,,,,,001,166,2020_Feb_25_1213,spring_faces,3.1.5,60.09691408654697,
condition files/Stage1_1.xlsx,,B2,T1,m,"['c', 'm']","['Clue', 'Monopoly']","[-0.15, 0.5]","[0.15, 0.5]",1,1,,,,,,,,,0,8,8,8,0,7,7,2,,,,,,,,,,,,,,,,,,,,,,,,,,,,,,,,,,,,,,,,,,,,,,,,,,,,,,,2021.922687825001,None,2021.922687825001,None,2021.922687825001,None,c,0,1.3173397589998785,2023.4564324620005,None,2023.4564324620005,None,2023.4564324620005,None,2024.8395956349996,None,2024.8395956349996,None,2024.8395956349996,None,2024.8395956349996,None,,,,,,,,,,,,,,,,,,,,,,,,,,,,,,,,,,,,,,,,,,,,001,166,2020_Feb_25_1213,spring_faces,3.1.5,60.09691408654697,
condition files/Stage1_2.xlsx,,B4,T3,c,"['c', 'm']","['Clue', 'Monopoly']","[-0.15, 0.5]","[0.15, 0.5]",1,1,,,,,,,,,0,9,9,9,0,0,0,5,,,,,,,,,,,,,,,,,,,,,,,,,,,,,,,,,,,,,,,,,,,,,,,,,,,,,,,2026.8230014029996,None,2026.8230014029996,None,2026.8230014029996,None,c,1,1.2004558589997032,2028.373357288001,None,2028.373357288001,None,2028.373357288001,None,2029.6396035039998,None,2029.6396035039998,None,2029.6396035039998,None,2029.6396035039998,None,,,,,,,,,,,,,,,,,,,,,,,,,,,,,,,,,,,,,,,,,,,,001,166,2020_Feb_25_1213,spring_faces,3.1.5,60.09691408654697,
condition files/Stage1_2.xlsx,,B3,T4,m,"['c', 'm']","['Clue', 'Monopoly']","[-0.15, 0.5]","[0.15, 0.5]",1,1,,,,,,,,,0,9,9,9,0,1,1,6,,,,,,,,,,,,,,,,,,,,,,,,,,,,,,,,,,,,,,,,,,,,,,,,,,,,,,,2031.606407239,None,2031.606407239,None,2031.606407239,None,m,1,1.4570737060003012,2033.140833372001,None,2033.140833372001,None,2033.140833372001,None,2034.6579412890005,None,2034.6579412890005,None,2034.6579412890005,None,2034.6579412890005,None,,,,,,,,,,,,,,,,,,,,,,,,,,,,,,,,,,,,,,,,,,,,001,166,2020_Feb_25_1213,spring_faces,3.1.5,60.09691408654697,
condition files/Stage1_2.xlsx,,T1,B2,m,"['c', 'm']","['Clue', 'Monopoly']","[-0.15, 0.5]","[0.15, 0.5]",1,1,,,,,,,,,0,9,9,9,0,2,2,2,,,,,,,,,,,,,,,,,,,,,,,,,,,,,,,,,,,,,,,,,,,,,,,,,,,,,,,2036.6228313770007,None,2036.6228313770007,None,2036.6228313770007,None,m,1,1.369781007999336,2038.1560676259996,None,2038.1560676259996,None,2038.1560676259996,None,2039.589997997,None,2039.589997997,None,2039.589997997,None,2039.589997997,None,,,,,,,,,,,,,,,,,,,,,,,,,,,,,,,,,,,,,,,,,,,,001,166,2020_Feb_25_1213,spring_faces,3.1.5,60.09691408654697,
condition files/Stage1_2.xlsx,,T3,B3,c,"['c', 'm']","['Clue', 'Monopoly']","[-0.15, 0.5]","[0.15, 0.5]",1,1,,,,,,,,,0,9,9,9,0,3,3,4,,,,,,,,,,,,,,,,,,,,,,,,,,,,,,,,,,,,,,,,,,,,,,,,,,,,,,,2041.5563531320004,None,2041.5563531320004,None,2041.5563531320004,None,c,1,1.5883716030002688,2043.0895090020003,None,2043.0895090020003,None,2043.0895090020003,None,2044.7560672580003,None,2044.7560672580003,None,2044.7560672580003,None,2044.7560672580003,None,,,,,,,,,,,,,,,,,,,,,,,,,,,,,,,,,,,,,,,,,,,,001,166,2020_Feb_25_1213,spring_faces,3.1.5,60.09691408654697,
condition files/Stage1_2.xlsx,,T4,B4,m,"['c', 'm']","['Clue', 'Monopoly']","[-0.15, 0.5]","[0.15, 0.5]",1,1,,,,,,,,,0,9,9,9,0,4,4,7,,,,,,,,,,,,,,,,,,,,,,,,,,,,,,,,,,,,,,,,,,,,,,,,,,,,,,,2046.7069253440004,None,2046.7069253440004,None,2046.7069253440004,None,m,1,0.5651323630008847,2048.2567192700008,None,2048.2567192700008,None,2048.2567192700008,None,2048.8759454949995,None,2048.8759454949995,None,2048.8759454949995,None,2048.8759454949995,None,,,,,,,,,,,,,,,,,,,,,,,,,,,,,,,,,,,,,,,,,,,,001,166,2020_Feb_25_1213,spring_faces,3.1.5,60.09691408654697,
condition files/Stage1_2.xlsx,,T2,B1,c,"['c', 'm']","['Clue', 'Monopoly']","[-0.15, 0.5]","[0.15, 0.5]",1,1,,,,,,,,,0,9,9,9,0,5,5,1,,,,,,,,,,,,,,,,,,,,,,,,,,,,,,,,,,,,,,,,,,,,,,,,,,,,,,,2050.8394644170003,None,2050.8394644170003,None,2050.8394644170003,None,c,1,1.4882960729992192,2052.3895573219997,None,2052.3895573219997,None,2052.3895573219997,None,2053.941951715,None,2053.941951715,None,2053.941951715,None,2053.941951715,None,,,,,,,,,,,,,,,,,,,,,,,,,,,,,,,,,,,,,,,,,,,,001,166,2020_Feb_25_1213,spring_faces,3.1.5,60.09691408654697,
condition files/Stage1_2.xlsx,,B2,T2,m,"['c', 'm']","['Clue', 'Monopoly']","[-0.15, 0.5]","[0.15, 0.5]",1,1,,,,,,,,,0,9,9,9,0,6,6,3,,,,,,,,,,,,,,,,,,,,,,,,,,,,,,,,,,,,,,,,,,,,,,,,,,,,,,,2055.9059711730006,None,2055.9059711730006,None,2055.9059711730006,None,c,0,1.6370804150010372,2057.4567775080013,None,2057.4567775080013,None,2057.4567775080013,None,2059.157940788,None,2059.157940788,None,2059.157940788,None,2059.157940788,None,,,,,,,,,,,,,,,,,,,,,,,,,,,,,,,,,,,,,,,,,,,,001,166,2020_Feb_25_1213,spring_faces,3.1.5,60.09691408654697,
condition files/Stage1_2.xlsx,,B1,T1,c,"['c', 'm']","['Clue', 'Monopoly']","[-0.15, 0.5]","[0.15, 0.5]",1,1,,,,,,,,,0,9,9,9,0,7,7,0,,,,,,,,,,,,,,,,,,,,,,,,,,,,,,,,,,,,,,,,,,,,,,,,,,,,,,,2061.1229881960007,None,2061.1229881960007,None,2061.1229881960007,None,c,1,1.8612122039994574,2062.6566158140013,None,2062.6566158140013,None,2062.6566158140013,None,2064.5748571799995,None,2064.5748571799995,None,2064.5748571799995,None,2064.5748571799995,None,,,,,,,,,,,,,,,,,,,,,,,,,,,,,,,,,,,,,,,,,,,,001,166,2020_Feb_25_1213,spring_faces,3.1.5,60.09691408654697,
condition files/Stage1_1.xlsx,,T3,B4,c,"['c', 'm']","['Clue', 'Monopoly']","[-0.15, 0.5]","[0.15, 0.5]",1,1,,,,,,,,,0,10,10,10,0,0,0,5,,,,,,,,,,,,,,,,,,,,,,,,,,,,,,,,,,,,,,,,,,,,,,,,,,,,,,,2066.5567208030006,None,2066.5567208030006,None,2066.5567208030006,None,c,1,2.52311046000068,2068.0908061299997,None,2068.0908061299997,None,2068.0908061299997,None,2070.67260233,None,2070.67260233,None,2070.67260233,None,2070.67260233,None,,,,,,,,,,,,,,,,,,,,,,,,,,,,,,,,,,,,,,,,,,,,001,166,2020_Feb_25_1213,spring_faces,3.1.5,60.09691408654697,
condition files/Stage1_1.xlsx,,B2,T1,m,"['c', 'm']","['Clue', 'Monopoly']","[-0.15, 0.5]","[0.15, 0.5]",1,1,,,,,,,,,0,10,10,10,0,1,1,2,,,,,,,,,,,,,,,,,,,,,,,,,,,,,,,,,,,,,,,,,,,,,,,,,,,,,,,2072.639716449001,None,2072.639716449001,None,2072.639716449001,None,m,1,1.4158786490006605,2074.189982103,None,2074.189982103,None,2074.189982103,None,2075.6590118450004,None,2075.6590118450004,None,2075.6590118450004,None,2075.6590118450004,None,,,,,,,,,,,,,,,,,,,,,,,,,,,,,,,,,,,,,,,,,,,,001,166,2020_Feb_25_1213,spring_faces,3.1.5,60.09691408654697,
condition files/Stage1_1.xlsx,,B3,T3,c,"['c', 'm']","['Clue', 'Monopoly']","[-0.15, 0.5]","[0.15, 0.5]",1,1,,,,,,,,,0,10,10,10,0,2,2,4,,,,,,,,,,,,,,,,,,,,,,,,,,,,,,,,,,,,,,,,,,,,,,,,,,,,,,,2077.622765336,None,2077.622765336,None,2077.622765336,None,c,1,2.14506137600074,2079.172756528,None,2079.172756528,None,2079.172756528,None,2081.375216820001,None,2081.375216820001,None,2081.375216820001,None,2081.375216820001,None,,,,,,,,,,,,,,,,,,,,,,,,,,,,,,,,,,,,,,,,,,,,001,166,2020_Feb_25_1213,spring_faces,3.1.5,60.09691408654697,
condition files/Stage1_1.xlsx,,T2,B2,m,"['c', 'm']","['Clue', 'Monopoly']","[-0.15, 0.5]","[0.15, 0.5]",1,1,,,,,,,,,0,10,10,10,0,3,3,3,,,,,,,,,,,,,,,,,,,,,,,,,,,,,,,,,,,,,,,,,,,,,,,,,,,,,,,2083.339442702001,None,2083.339442702001,None,2083.339442702001,None,m,1,1.5474620400000276,2084.874404999,None,2084.874404999,None,2084.874404999,None,2086.4754364359997,None,2086.4754364359997,None,2086.4754364359997,None,2086.4754364359997,None,,,,,,,,,,,,,,,,,,,,,,,,,,,,,,,,,,,,,,,,,,,,001,166,2020_Feb_25_1213,spring_faces,3.1.5,60.09691408654697,
condition files/Stage1_1.xlsx,,T1,B1,c,"['c', 'm']","['Clue', 'Monopoly']","[-0.15, 0.5]","[0.15, 0.5]",1,1,,,,,,,,,0,10,10,10,0,4,4,0,,,,,,,,,,,,,,,,,,,,,,,,,,,,,,,,,,,,,,,,,,,,,,,,,,,,,,,2088.4396656570007,None,2088.4396656570007,None,2088.4396656570007,None,c,1,1.4729732329997205,2089.9728721150004,None,2089.9728721150004,None,2089.9728721150004,None,2091.508088886001,None,2091.508088886001,None,2091.508088886001,None,2091.508088886001,None,,,,,,,,,,,,,,,,,,,,,,,,,,,,,,,,,,,,,,,,,,,,001,166,2020_Feb_25_1213,spring_faces,3.1.5,60.09691408654697,
condition files/Stage1_1.xlsx,,B1,T2,c,"['c', 'm']","['Clue', 'Monopoly']","[-0.15, 0.5]","[0.15, 0.5]",1,1,,,,,,,,,0,10,10,10,0,5,5,1,,,,,,,,,,,,,,,,,,,,,,,,,,,,,,,,,,,,,,,,,,,,,,,,,,,,,,,2093.472929044001,None,2093.472929044001,None,2093.472929044001,None,c,1,4.0716859019994445,2095.0061921180004,None,2095.0061921180004,None,2095.0061921180004,None,2099.1400185270013,None,2099.1400185270013,None,2099.1400185270013,None,2099.1400185270013,None,,,,,,,,,,,,,,,,,,,,,,,,,,,,,,,,,,,,,,,,,,,,001,166,2020_Feb_25_1213,spring_faces,3.1.5,60.09691408654697,
condition files/Stage1_1.xlsx,,B4,T4,m,"['c', 'm']","['Clue', 'Monopoly']","[-0.15, 0.5]","[0.15, 0.5]",1,1,,,,,,,,,0,10,10,10,0,6,6,7,,,,,,,,,,,,,,,,,,,,,,,,,,,,,,,,,,,,,,,,,,,,,,,,,,,,,,,2101.1064604700005,None,2101.1064604700005,None,2101.1064604700005,None,m,1,0.5969665630000236,2102.656849516001,None,2102.656849516001,None,2102.656849516001,None,2103.323449179001,None,2103.323449179001,None,2103.323449179001,None,2103.323449179001,None,,,,,,,,,,,,,,,,,,,,,,,,,,,,,,,,,,,,,,,,,,,,001,166,2020_Feb_25_1213,spring_faces,3.1.5,60.09691408654697,
condition files/Stage1_1.xlsx,,T4,B3,m,"['c', 'm']","['Clue', 'Monopoly']","[-0.15, 0.5]","[0.15, 0.5]",1,1,,,,,,,,,0,10,10,10,0,7,7,6,,,,,,,,,,,,,,,,,,,,,,,,,,,,,,,,,,,,,,,,,,,,,,,,,,,,,,,2105.273203707,None,2105.273203707,None,2105.273203707,None,m,1,0.5121508330012148,2106.80564622,None,2106.80564622,None,2106.80564622,None,2107.373589654,None,2107.373589654,None,2107.373589654,None,2107.373589654,None,,,,,,,,,,,,,,,,,,,,,,,,,,,,,,,,,,,,,,,,,,,,001,166,2020_Feb_25_1213,spring_faces,3.1.5,60.09691408654697,
condition files/Stage1_2.xlsx,,T4,B4,m,"['c', 'm']","['Clue', 'Monopoly']","[-0.15, 0.5]","[0.15, 0.5]",1,1,,,,,,,,,0,11,11,11,0,0,0,7,,,,,,,,,,,,,,,,,,,,,,,,,,,,,,,,,,,,,,,,,,,,,,,,,,,,,,,2109.3563838440004,None,2109.3563838440004,None,2109.3563838440004,None,m,1,0.4115807109992602,2110.890298890001,None,2110.890298890001,None,2110.890298890001,None,2111.356785780001,None,2111.356785780001,None,2111.356785780001,None,2111.356785780001,None,,,,,,,,,,,,,,,,,,,,,,,,,,,,,,,,,,,,,,,,,,,,001,166,2020_Feb_25_1213,spring_faces,3.1.5,60.09691408654697,
condition files/Stage1_2.xlsx,,B1,T1,c,"['c', 'm']","['Clue', 'Monopoly']","[-0.15, 0.5]","[0.15, 0.5]",1,1,,,,,,,,,0,11,11,11,0,1,1,0,,,,,,,,,,,,,,,,,,,,,,,,,,,,,,,,,,,,,,,,,,,,,,,,,,,,,,,2113.322676799,None,2113.322676799,None,2113.322676799,None,m,0,0.3018953739992867,2114.8558986770004,None,2114.8558986770004,None,2114.8558986770004,None,2115.240515224001,None,2115.240515224001,None,2115.240515224001,None,2115.240515224001,None,,,,,,,,,,,,,,,,,,,,,,,,,,,,,,,,,,,,,,,,,,,,001,166,2020_Feb_25_1213,spring_faces,3.1.5,60.09691408654697,
condition files/Stage1_2.xlsx,,T3,B3,c,"['c', 'm']","['Clue', 'Monopoly']","[-0.15, 0.5]","[0.15, 0.5]",1,1,,,,,,,,,0,11,11,11,0,2,2,4,,,,,,,,,,,,,,,,,,,,,,,,,,,,,,,,,,,,,,,,,,,,,,,,,,,,,,,2117.1897772190005,None,2117.1897772190005,None,2117.1897772190005,None,c,1,0.7056237750002765,2118.7402407570007,None,2118.7402407570007,None,2118.7402407570007,None,2119.506039426,None,2119.506039426,None,2119.506039426,None,2119.506039426,None,,,,,,,,,,,,,,,,,,,,,,,,,,,,,,,,,,,,,,,,,,,,001,166,2020_Feb_25_1213,spring_faces,3.1.5,60.09691408654697,
condition files/Stage1_2.xlsx,,B2,T2,m,"['c', 'm']","['Clue', 'Monopoly']","[-0.15, 0.5]","[0.15, 0.5]",1,1,,,,,,,,,0,11,11,11,0,3,3,3,,,,,,,,,,,,,,,,,,,,,,,,,,,,,,,,,,,,,,,,,,,,,,,,,,,,,,,2121.4734201580013,None,2121.4734201580013,None,2121.4734201580013,None,m,1,1.7191072790010367,2123.0067313220006,None,2123.0067313220006,None,2123.0067313220006,None,2124.7913404089995,None,2124.7913404089995,None,2124.7913404089995,None,2124.7913404089995,None,,,,,,,,,,,,,,,,,,,,,,,,,,,,,,,,,,,,,,,,,,,,001,166,2020_Feb_25_1213,spring_faces,3.1.5,60.09691408654697,
condition files/Stage1_2.xlsx,,B4,T3,c,"['c', 'm']","['Clue', 'Monopoly']","[-0.15, 0.5]","[0.15, 0.5]",1,1,,,,,,,,,0,11,11,11,0,4,4,5,,,,,,,,,,,,,,,,,,,,,,,,,,,,,,,,,,,,,,,,,,,,,,,,,,,,,,,2126.7563867010012,None,2126.7563867010012,None,2126.7563867010012,None,c,1,2.1802044319993,2128.289826516,None,2128.289826516,None,2128.289826516,None,2130.52480594,None,2130.52480594,None,2130.52480594,None,2130.52480594,None,,,,,,,,,,,,,,,,,,,,,,,,,,,,,,,,,,,,,,,,,,,,001,166,2020_Feb_25_1213,spring_faces,3.1.5,60.09691408654697,
condition files/Stage1_2.xlsx,,T1,B2,m,"['c', 'm']","['Clue', 'Monopoly']","[-0.15, 0.5]","[0.15, 0.5]",1,1,,,,,,,,,0,11,11,11,0,5,5,2,,,,,,,,,,,,,,,,,,,,,,,,,,,,,,,,,,,,,,,,,,,,,,,,,,,,,,,2132.4893395950003,None,2132.4893395950003,None,2132.4893395950003,None,m,1,1.4218507139994472,2134.0400050280005,None,2134.0400050280005,None,2134.0400050280005,None,2135.524194701,None,2135.524194701,None,2135.524194701,None,2135.524194701,None,,,,,,,,,,,,,,,,,,,,,,,,,,,,,,,,,,,,,,,,,,,,001,166,2020_Feb_25_1213,spring_faces,3.1.5,60.09691408654697,
condition files/Stage1_2.xlsx,,B3,T4,m,"['c', 'm']","['Clue', 'Monopoly']","[-0.15, 0.5]","[0.15, 0.5]",1,1,,,,,,,,,0,11,11,11,0,6,6,6,,,,,,,,,,,,,,,,,,,,,,,,,,,,,,,,,,,,,,,,,,,,,,,,,,,,,,,2137.4902075419996,None,2137.4902075419996,None,2137.4902075419996,None,m,1,0.6308331299987913,2139.0229605349996,None,2139.0229605349996,None,2139.0229605349996,None,2139.7059659730003,None,2139.7059659730003,None,2139.7059659730003,None,2139.7059659730003,None,,,,,,,,,,,,,,,,,,,,,,,,,,,,,,,,,,,,,,,,,,,,001,166,2020_Feb_25_1213,spring_faces,3.1.5,60.09691408654697,
condition files/Stage1_2.xlsx,,T2,B1,c,"['c', 'm']","['Clue', 'Monopoly']","[-0.15, 0.5]","[0.15, 0.5]",1,1,,,,,,,,,0,11,11,11,0,7,7,1,,,,,,,,,,,,,,,,,,,,,,,,,,,,,,,,,,,,,,,,,,,,,,,,,,,,,,,2141.6730804729996,None,2141.6730804729996,None,2141.6730804729996,None,c,1,0.7518088080014422,2143.2059754460006,None,2143.2059754460006,None,2143.2059754460006,None,2144.0228740680013,None,2144.0228740680013,None,2144.0228740680013,None,2144.0228740680013,None,,,,,,,,,,,,,,,,,,,,,,,,,,,,,,,,,,,,,,,,,,,,001,166,2020_Feb_25_1213,spring_faces,3.1.5,60.09691408654697,
,,,,,,,,,,,,,,,,,,,,,,,,,,,,,,,,,,,,,,,,,,,,,,,,,,,,,,,,,,,,,,,,,,,,,,,,,,,,,,,,,,,,,,,,,,,,,,,,,,,,,,,,,,,,,,,,2146.006615126,None,space,0.519175579000148,2151.0066879700007,None,,,,,,,,,,,,,,,,,,,,,,,,,,,,,,001,166,2020_Feb_25_1213,spring_faces,3.1.5,60.09691408654697,
condition files/Stage2_1.xlsx,,T3,B3,s,"['s', 'r']","['Stratego', 'Risk']","[-0.15, 0.5]","[0.15, 0.5]",1,1,,,,,,,,,,,,,,,,,0,0,0,0,0,0,0,4,,,,,,,,,,,,,,,,,,,,,,,,,,,,,,,,,,,,,,,,,,,,,,,2151.589624002001,None,2151.589624002001,None,2151.589624002001,None,s,1,1.4433315079986642,2153.090524391,None,2153.090524391,None,2153.090524391,None,2154.6066298860005,None,2154.6066298860005,None,2154.6066298860005,None,2154.6066298860005,None,,,,,,,,,,,,,,,2151.0066879700007,None,,,,,,,,,,,,,,,,,,,,,,,,,,,,001,166,2020_Feb_25_1213,spring_faces,3.1.5,60.09691408654697,
condition files/Stage2_1.xlsx,,B4,T4,r,"['s', 'r']","['Stratego', 'Risk']","[-0.15, 0.5]","[0.15, 0.5]",1,1,,,,,,,,,,,,,,,,,0,0,0,0,0,1,1,5,,,,,,,,,,,,,,,,,,,,,,,,,,,,,,,,,,,,,,,,,,,,,,,2156.55629572,None,2156.55629572,None,2156.55629572,None,r,1,0.5560670110007777,2158.089796384,None,2158.089796384,None,2158.089796384,None,2158.7068133230005,None,2158.7068133230005,None,2158.7068133230005,None,2158.7068133230005,None,,,,,,,,,,,,,,,,,,,,,,,,,,,,,,,,,,,,,,,,,,,,001,166,2020_Feb_25_1213,spring_faces,3.1.5,60.09691408654697,
condition files/Stage2_1.xlsx,,B6,T6,r,"['s', 'r']","['Stratego', 'Risk']","[-0.15, 0.5]","[0.15, 0.5]",1,1,,,,,,,,,,,,,,,,,0,0,0,0,0,2,2,1,,,,,,,,,,,,,,,,,,,,,,,,,,,,,,,,,,,,,,,,,,,,,,,2160.673071995001,None,2160.673071995001,None,2160.673071995001,None,s,0,2.005607193999822,2162.2562370980013,None,2162.2562370980013,None,2162.2562370980013,None,2164.3236842820006,None,2164.3236842820006,None,2164.3236842820006,None,2164.3236842820006,None,,,,,,,,,,,,,,,,,,,,,,,,,,,,,,,,,,,,,,,,,,,,001,166,2020_Feb_25_1213,spring_faces,3.1.5,60.09691408654697,
condition files/Stage2_1.xlsx,,T1,B1,s,"['s', 'r']","['Stratego', 'Risk']","[-0.15, 0.5]","[0.15, 0.5]",1,1,,,,,,,,,,,,,,,,,0,0,0,0,0,3,3,2,,,,,,,,,,,,,,,,,,,,,,,,,,,,,,,,,,,,,,,,,,,,,,,2166.289586906001,None,2166.289586906001,None,2166.289586906001,None,r,0,0.8702851029993326,2167.823586014001,None,2167.823586014001,None,2167.823586014001,None,2168.756540405,None,2168.756540405,None,2168.756540405,None,2168.756540405,None,,,,,,,,,,,,,,,,,,,,,,,,,,,,,,,,,,,,,,,,,,,,001,166,2020_Feb_25_1213,spring_faces,3.1.5,60.09691408654697,
condition files/Stage2_1.xlsx,,T5,B5,s,"['s', 'r']","['Stratego', 'Risk']","[-0.15, 0.5]","[0.15, 0.5]",1,1,,,,,,,,,,,,,,,,,0,0,0,0,0,4,4,0,,,,,,,,,,,,,,,,,,,,,,,,,,,,,,,,,,,,,,,,,,,,,,,2170.7230445269997,None,2170.7230445269997,None,2170.7230445269997,None,r,0,1.7312969869999506,2172.306545255,None,2172.306545255,None,2172.306545255,None,2174.0897953050007,None,2174.0897953050007,None,2174.0897953050007,None,2174.0897953050007,None,,,,,,,,,,,,,,,,,,,,,,,,,,,,,,,,,,,,,,,,,,,,001,166,2020_Feb_25_1213,spring_faces,3.1.5,60.09691408654697,
condition files/Stage2_1.xlsx,,B2,T2,r,"['s', 'r']","['Stratego', 'Risk']","[-0.15, 0.5]","[0.15, 0.5]",1,1,,,,,,,,,,,,,,,,,0,0,0,0,0,5,5,3,,,,,,,,,,,,,,,,,,,,,,,,,,,,,,,,,,,,,,,,,,,,,,,2176.056407299,None,2176.056407299,None,2176.056407299,None,r,1,2.175151569001173,2177.590700195,None,2177.590700195,None,2177.590700195,None,2179.8253194179997,None,2179.8253194179997,None,2179.8253194179997,None,2179.8253194179997,None,,,,,,,,,,,,,,,,,,,,,,,,,,,,,,,,,,,,,,,,,,,,001,166,2020_Feb_25_1213,spring_faces,3.1.5,60.09691408654697,
condition files/Stage2_2.xlsx,,T4,B4,r,"['s', 'r']","['Stratego', 'Risk']","[-0.15, 0.5]","[0.15, 0.5]",1,1,,,,,,,,,,,,,,,,,0,1,1,1,0,0,0,5,,,,,,,,,,,,,,,,,,,,,,,,,,,,,,,,,,,,,,,,,,,,,,,2181.8063074230013,None,2181.8063074230013,None,2181.8063074230013,None,r,1,1.3036558519997925,2183.3422234789996,None,2183.3422234789996,None,2183.3422234789996,None,2184.706961516,None,2184.706961516,None,2184.706961516,None,2184.706961516,None,,,,,,,,,,,,,,,,,,,,,,,,,,,,,,,,,,,,,,,,,,,,001,166,2020_Feb_25_1213,spring_faces,3.1.5,60.09691408654697,
condition files/Stage2_2.xlsx,,B5,T5,s,"['s', 'r']","['Stratego', 'Risk']","[-0.15, 0.5]","[0.15, 0.5]",1,1,,,,,,,,,,,,,,,,,0,1,1,1,0,1,1,0,,,,,,,,,,,,,,,,,,,,,,,,,,,,,,,,,,,,,,,,,,,,,,,2186.672719506001,None,2186.672719506001,None,2186.672719506001,None,s,1,0.8715560000000551,2188.206305832,None,2188.206305832,None,2188.206305832,None,2189.1403060310004,None,2189.1403060310004,None,2189.1403060310004,None,2189.1403060310004,None,,,,,,,,,,,,,,,,,,,,,,,,,,,,,,,,,,,,,,,,,,,,001,166,2020_Feb_25_1213,spring_faces,3.1.5,60.09691408654697,
condition files/Stage2_2.xlsx,,B3,T3,s,"['s', 'r']","['Stratego', 'Risk']","[-0.15, 0.5]","[0.15, 0.5]",1,1,,,,,,,,,,,,,,,,,0,1,1,1,0,2,2,4,,,,,,,,,,,,,,,,,,,,,,,,,,,,,,,,,,,,,,,,,,,,,,,2191.1061578520003,None,2191.1061578520003,None,2191.1061578520003,None,s,1,1.909849851999752,2192.6559957500012,None,2192.6559957500012,None,2192.6559957500012,None,2194.622820296001,None,2194.622820296001,None,2194.622820296001,None,2194.622820296001,None,,,,,,,,,,,,,,,,,,,,,,,,,,,,,,,,,,,,,,,,,,,,001,166,2020_Feb_25_1213,spring_faces,3.1.5,60.09691408654697,
condition files/Stage2_2.xlsx,,T2,B2,r,"['s', 'r']","['Stratego', 'Risk']","[-0.15, 0.5]","[0.15, 0.5]",1,1,,,,,,,,,,,,,,,,,0,1,1,1,0,3,3,3,,,,,,,,,,,,,,,,,,,,,,,,,,,,,,,,,,,,,,,,,,,,,,,2196.589686407,None,2196.589686407,None,2196.589686407,None,r,1,1.2890422379987285,2198.124869716001,None,2198.124869716001,None,2198.124869716001,None,2199.4900068000006,None,2199.4900068000006,None,2199.4900068000006,None,2199.4900068000006,None,,,,,,,,,,,,,,,,,,,,,,,,,,,,,,,,,,,,,,,,,,,,001,166,2020_Feb_25_1213,spring_faces,3.1.5,60.09691408654697,
condition files/Stage2_2.xlsx,,B1,T1,s,"['s', 'r']","['Stratego', 'Risk']","[-0.15, 0.5]","[0.15, 0.5]",1,1,,,,,,,,,,,,,,,,,0,1,1,1,0,4,4,2,,,,,,,,,,,,,,,,,,,,,,,,,,,,,,,,,,,,,,,,,,,,,,,2201.439512864001,None,2201.439512864001,None,2201.439512864001,None,s,1,0.9828200300016761,2202.974956330001,None,2202.974956330001,None,2202.974956330001,None,2204.0253923070013,None,2204.0253923070013,None,2204.0253923070013,None,2204.0253923070013,None,,,,,,,,,,,,,,,,,,,,,,,,,,,,,,,,,,,,,,,,,,,,001,166,2020_Feb_25_1213,spring_faces,3.1.5,60.09691408654697,
condition files/Stage2_2.xlsx,,T6,B6,r,"['s', 'r']","['Stratego', 'Risk']","[-0.15, 0.5]","[0.15, 0.5]",1,1,,,,,,,,,,,,,,,,,0,1,1,1,0,5,5,1,,,,,,,,,,,,,,,,,,,,,,,,,,,,,,,,,,,,,,,,,,,,,,,2205.989634081001,None,2205.989634081001,None,2205.989634081001,None,s,0,0.9442011209994234,2207.525614512,None,2207.525614512,None,2207.525614512,None,2208.5260078970005,None,2208.5260078970005,None,2208.5260078970005,None,2208.5260078970005,None,,,,,,,,,,,,,,,,,,,,,,,,,,,,,,,,,,,,,,,,,,,,001,166,2020_Feb_25_1213,spring_faces,3.1.5,60.09691408654697,
condition files/Stage2_1.xlsx,,B2,T2,r,"['s', 'r']","['Stratego', 'Risk']","[-0.15, 0.5]","[0.15, 0.5]",1,1,,,,,,,,,,,,,,,,,0,2,2,2,0,0,0,3,,,,,,,,,,,,,,,,,,,,,,,,,,,,,,,,,,,,,,,,,,,,,,,2210.50663335,None,2210.50663335,None,2210.50663335,None,r,1,0.9571695279992127,2212.056735825001,None,2212.056735825001,None,2212.056735825001,None,2213.072363243,None,2213.072363243,None,2213.072363243,None,2213.072363243,None,,,,,,,,,,,,,,,,,,,,,,,,,,,,,,,,,,,,,,,,,,,,001,166,2020_Feb_25_1213,spring_faces,3.1.5,60.09691408654697,
condition files/Stage2_1.xlsx,,T5,B5,s,"['s', 'r']","['Stratego', 'Risk']","[-0.15, 0.5]","[0.15, 0.5]",1,1,,,,,,,,,,,,,,,,,0,2,2,2,0,1,1,0,,,,,,,,,,,,,,,,,,,,,,,,,,,,,,,,,,,,,,,,,,,,,,,2215.0398479180003,None,2215.0398479180003,None,2215.0398479180003,None,s,1,3.4006133539987786,2216.589261882,None,2216.589261882,None,2216.589261882,None,2220.0567169250007,None,2220.0567169250007,None,2220.0567169250007,None,2220.0567169250007,None,,,,,,,,,,,,,,,,,,,,,,,,,,,,,,,,,,,,,,,,,,,,001,166,2020_Feb_25_1213,spring_faces,3.1.5,60.09691408654697,
condition files/Stage2_1.xlsx,,T1,B1,s,"['s', 'r']","['Stratego', 'Risk']","[-0.15, 0.5]","[0.15, 0.5]",1,1,,,,,,,,,,,,,,,,,0,2,2,2,0,2,2,2,,,,,,,,,,,,,,,,,,,,,,,,,,,,,,,,,,,,,,,,,,,,,,,2222.0064152859995,None,2222.0064152859995,None,2222.0064152859995,None,s,1,3.938279139001679,2223.5395891959997,None,2223.5395891959997,None,2223.5395891959997,None,2227.5396634200006,None,2227.5396634200006,None,2227.5396634200006,None,2227.5396634200006,None,,,,,,,,,,,,,,,,,,,,,,,,,,,,,,,,,,,,,,,,,,,,001,166,2020_Feb_25_1213,spring_faces,3.1.5,60.09691408654697,
condition files/Stage2_1.xlsx,,B6,T6,r,"['s', 'r']","['Stratego', 'Risk']","[-0.15, 0.5]","[0.15, 0.5]",1,1,,,,,,,,,,,,,,,,,0,2,2,2,0,3,3,1,,,,,,,,,,,,,,,,,,,,,,,,,,,,,,,,,,,,,,,,,,,,,,,2229.5064429480008,None,2229.5064429480008,None,2229.5064429480008,None,r,1,1.0762674920006248,2231.041567958,None,2231.041567958,None,2231.041567958,None,2232.1899323039997,None,2232.1899323039997,None,2232.1899323039997,None,2232.1899323039997,None,,,,,,,,,,,,,,,,,,,,,,,,,,,,,,,,,,,,,,,,,,,,001,166,2020_Feb_25_1213,spring_faces,3.1.5,60.09691408654697,
condition files/Stage2_1.xlsx,,T3,B3,s,"['s', 'r']","['Stratego', 'Risk']","[-0.15, 0.5]","[0.15, 0.5]",1,1,,,,,,,,,,,,,,,,,0,2,2,2,0,4,4,4,,,,,,,,,,,,,,,,,,,,,,,,,,,,,,,,,,,,,,,,,,,,,,,2234.1396664950007,None,2234.1396664950007,None,2234.1396664950007,None,s,1,0.9410482610001054,2235.6728679450007,None,2235.6728679450007,None,2235.6728679450007,None,2236.6746263040004,None,2236.6746263040004,None,2236.6746263040004,None,2236.6746263040004,None,,,,,,,,,,,,,,,,,,,,,,,,,,,,,,,,,,,,,,,,,,,,001,166,2020_Feb_25_1213,spring_faces,3.1.5,60.09691408654697,
condition files/Stage2_1.xlsx,,B4,T4,r,"['s', 'r']","['Stratego', 'Risk']","[-0.15, 0.5]","[0.15, 0.5]",1,1,,,,,,,,,,,,,,,,,0,2,2,2,0,5,5,5,,,,,,,,,,,,,,,,,,,,,,,,,,,,,,,,,,,,,,,,,,,,,,,2238.6398000690006,None,2238.6398000690006,None,2238.6398000690006,None,r,1,0.7767129759995441,2240.173171259001,None,2240.173171259001,None,2240.173171259001,None,2241.0073740530006,None,2241.0073740530006,None,2241.0073740530006,None,2241.0073740530006,None,,,,,,,,,,,,,,,,,,,,,,,,,,,,,,,,,,,,,,,,,,,,001,166,2020_Feb_25_1213,spring_faces,3.1.5,60.09691408654697,
condition files/Stage2_2.xlsx,,T2,B2,r,"['s', 'r']","['Stratego', 'Risk']","[-0.15, 0.5]","[0.15, 0.5]",1,1,,,,,,,,,,,,,,,,,0,3,3,3,0,0,0,3,,,,,,,,,,,,,,,,,,,,,,,,,,,,,,,,,,,,,,,,,,,,,,,2242.9897489350005,None,2242.9897489350005,None,2242.9897489350005,None,s,0,1.002244008001071,2244.5395989240005,None,2244.5395989240005,None,2244.5395989240005,None,2245.606081999,None,2245.606081999,None,2245.606081999,None,2245.606081999,None,,,,,,,,,,,,,,,,,,,,,,,,,,,,,,,,,,,,,,,,,,,,001,166,2020_Feb_25_1213,spring_faces,3.1.5,60.09691408654697,
condition files/Stage2_2.xlsx,,B3,T3,s,"['s', 'r']","['Stratego', 'Risk']","[-0.15, 0.5]","[0.15, 0.5]",1,1,,,,,,,,,,,,,,,,,0,3,3,3,0,1,1,4,,,,,,,,,,,,,,,,,,,,,,,,,,,,,,,,,,,,,,,,,,,,,,,2247.5728052760005,None,2247.5728052760005,None,2247.5728052760005,None,s,1,1.0588200900001539,2249.107033384,None,2249.107033384,None,2249.107033384,None,2250.225780859,None,2250.225780859,None,2250.225780859,None,2250.225780859,None,,,,,,,,,,,,,,,,,,,,,,,,,,,,,,,,,,,,,,,,,,,,001,166,2020_Feb_25_1213,spring_faces,3.1.5,60.09691408654697,
condition files/Stage2_2.xlsx,,T4,B4,r,"['s', 'r']","['Stratego', 'Risk']","[-0.15, 0.5]","[0.15, 0.5]",1,1,,,,,,,,,,,,,,,,,0,3,3,3,0,2,2,5,,,,,,,,,,,,,,,,,,,,,,,,,,,,,,,,,,,,,,,,,,,,,,,2252.1900920940006,None,2252.1900920940006,None,2252.1900920940006,None,r,1,0.7936190429991257,2253.724237871,None,2253.724237871,None,2253.724237871,None,2254.573581185001,None,2254.573581185001,None,2254.573581185001,None,2254.573581185001,None,,,,,,,,,,,,,,,,,,,,,,,,,,,,,,,,,,,,,,,,,,,,001,166,2020_Feb_25_1213,spring_faces,3.1.5,60.09691408654697,
condition files/Stage2_2.xlsx,,B1,T1,s,"['s', 'r']","['Stratego', 'Risk']","[-0.15, 0.5]","[0.15, 0.5]",1,1,,,,,,,,,,,,,,,,,0,3,3,3,0,3,3,2,,,,,,,,,,,,,,,,,,,,,,,,,,,,,,,,,,,,,,,,,,,,,,,2256.5399832500007,None,2256.5399832500007,None,2256.5399832500007,None,s,1,0.6040614880002977,2258.0738140209996,None,2258.0738140209996,None,2258.0738140209996,None,2258.75648131,None,2258.75648131,None,2258.75648131,None,2258.75648131,None,,,,,,,,,,,,,,,,,,,,,,,,,,,,,,,,,,,,,,,,,,,,001,166,2020_Feb_25_1213,spring_faces,3.1.5,60.09691408654697,
condition files/Stage2_2.xlsx,,T6,B6,r,"['s', 'r']","['Stratego', 'Risk']","[-0.15, 0.5]","[0.15, 0.5]",1,1,,,,,,,,,,,,,,,,,0,3,3,3,0,4,4,1,,,,,,,,,,,,,,,,,,,,,,,,,,,,,,,,,,,,,,,,,,,,,,,2260.7063514969996,None,2260.7063514969996,None,2260.7063514969996,None,r,1,1.2384055299989996,2262.239459059001,None,2262.239459059001,None,2262.239459059001,None,2263.5426075739997,None,2263.5426075739997,None,2263.5426075739997,None,2263.5426075739997,None,,,,,,,,,,,,,,,,,,,,,,,,,,,,,,,,,,,,,,,,,,,,001,166,2020_Feb_25_1213,spring_faces,3.1.5,60.09691408654697,
condition files/Stage2_2.xlsx,,B5,T5,s,"['s', 'r']","['Stratego', 'Risk']","[-0.15, 0.5]","[0.15, 0.5]",1,1,,,,,,,,,,,,,,,,,0,3,3,3,0,5,5,0,,,,,,,,,,,,,,,,,,,,,,,,,,,,,,,,,,,,,,,,,,,,,,,2265.506773014,None,2265.506773014,None,2265.506773014,None,s,1,0.8856569250001485,2267.0561743020007,None,2267.0561743020007,None,2267.0561743020007,None,2268.0063274370004,None,2268.0063274370004,None,2268.0063274370004,None,2268.0063274370004,None,,,,,,,,,,,,,,,,,,,,,,,,,,,,,,,,,,,,,,,,,,,,001,166,2020_Feb_25_1213,spring_faces,3.1.5,60.09691408654697,
condition files/Stage2_1.xlsx,,B4,T4,r,"['s', 'r']","['Stratego', 'Risk']","[-0.15, 0.5]","[0.15, 0.5]",1,1,,,,,,,,,,,,,,,,,0,4,4,4,0,0,0,5,,,,,,,,,,,,,,,,,,,,,,,,,,,,,,,,,,,,,,,,,,,,,,,2269.990156795,None,2269.990156795,None,2269.990156795,None,r,1,2.818715848001375,2271.523097718,None,2271.523097718,None,2271.523097718,None,2274.4073409909997,None,2274.4073409909997,None,2274.4073409909997,None,2274.4073409909997,None,,,,,,,,,,,,,,,,,,,,,,,,,,,,,,,,,,,,,,,,,,,,001,166,2020_Feb_25_1213,spring_faces,3.1.5,60.09691408654697,
condition files/Stage2_1.xlsx,,T3,B3,s,"['s', 'r']","['Stratego', 'Risk']","[-0.15, 0.5]","[0.15, 0.5]",1,1,,,,,,,,,,,,,,,,,0,4,4,4,0,1,1,4,,,,,,,,,,,,,,,,,,,,,,,,,,,,,,,,,,,,,,,,,,,,,,,2276.372604946,None,2276.372604946,None,2276.372604946,None,s,1,3.250894217999303,2277.906925548001,None,2277.906925548001,None,2277.906925548001,None,2281.2240864220003,None,2281.2240864220003,None,2281.2240864220003,None,2281.2240864220003,None,,,,,,,,,,,,,,,,,,,,,,,,,,,,,,,,,,,,,,,,,,,,001,166,2020_Feb_25_1213,spring_faces,3.1.5,60.09691408654697,
