condsFile,subStage,cue1,cue2,correct,responseKeys,responseNames,cue1Position,cue2Position,cue1Opacity,cue2Opacity,stageLoop0.thisRepN,stageLoop0.thisTrialN,stageLoop0.thisN,stageLoop0.thisIndex,blockLoop0.thisRepN,blockLoop0.thisTrialN,blockLoop0.thisN,blockLoop0.thisIndex,stage1Loop.thisRepN,stage1Loop.thisTrialN,stage1Loop.thisN,stage1Loop.thisIndex,blockLoop1.thisRepN,blockLoop1.thisTrialN,blockLoop1.thisN,blockLoop1.thisIndex,stage2Loop.thisRepN,stage2Loop.thisTrialN,stage2Loop.thisN,stage2Loop.thisIndex,blockLoop2.thisRepN,blockLoop2.thisTrialN,blockLoop2.thisN,blockLoop2.thisIndex,testLoop.thisRepN,testLoop.thisTrialN,testLoop.thisN,testLoop.thisIndex,blockLoopTest.thisRepN,blockLoopTest.thisTrialN,blockLoopTest.thisN,blockLoopTest.thisIndex,cuePics,id_instr_text.started,id_instr_text.stopped,space_to_continue_2.started,space_to_continue_2.stopped,end_instructions_resp_3.keys,end_instructions_resp_3.rt,end_instructions_resp_3.started,end_instructions_resp_3.stopped,id_input_instr.started,id_input_instr.stopped,id_input_rect.started,id_input_rect.stopped,id_input_resp.keys,id_input_resp.rt,id_input_resp.started,id_input_resp.stopped,sonaID,id_input_text.started,id_input_text.stopped,final_text.started,final_text.stopped,instructions.started,instructions.stopped,end_instructions_resp.keys,end_instructions_resp.rt,end_instructions_resp.started,end_instructions_resp.stopped,space_to_continue.started,space_to_continue.stopped,instructions_stage0.started,instructions_stage0.stopped,end_instructions_resp_stage0.keys,end_instructions_resp_stage0.rt,end_instructions_resp_stage0.started,end_instructions_resp_stage0.stopped,space_to_continue_stage0.started,space_to_continue_stage0.stopped,text.started,text.stopped,resp_text1.started,resp_text1.stopped,resp_text2.started,resp_text2.stopped,trial_resp.keys,trial_resp.corr,trial_resp.rt,trial_resp.started,trial_resp.stopped,cue1Image.started,cue1Image.stopped,cue2Image.started,cue2Image.stopped,cue1Image_fb.started,cue1Image_fb.stopped,cue2Image_fb.started,cue2Image_fb.stopped,fb_text_answer.started,fb_text_answer.stopped,feedback_image.started,feedback_image.stopped,instructions_stage1.started,instructions_stage1.stopped,end_instructions_resp_stage1.keys,end_instructions_resp_stage1.rt,end_instructions_resp_stage1.started,end_instructions_resp_stage1.stopped,space_to_continue_stage1.started,space_to_continue_stage1.stopped,instructions_2.started,instructions_2.stopped,end_instructions_resp_2.keys,end_instructions_resp_2.rt,end_instructions_resp_2.started,end_instructions_resp_2.stopped,press_space_to_continue_stage2.started,press_space_to_continue_stage2.stopped,instructions_testStage1.started,instructions_testStage1.stopped,end_instructions_resp_test1.keys,end_instructions_resp_test1.rt,end_instructions_resp_test1.started,end_instructions_resp_test1.stopped,press_space_to_continue_test1.started,press_space_to_continue_test1.stopped,cue1Image_testChoice.started,cue1Image_testChoice.stopped,cue2Image_testChoice.started,cue2Image_testChoice.stopped,test_resp.keys,test_resp.corr,test_resp.rt,test_resp.started,test_resp.stopped,cue1Image_testConf.started,cue1Image_testConf.stopped,cue2Image_testConf.started,cue2Image_testConf.stopped,conf_reminder.started,conf_reminder.stopped,conf_rating.response,conf_rating.rt,conf_rating.started,conf_rating.stopped,session,participant,date,expName,psychopyVersion,frameRate,
,,,,,,,,,,,,,,,,,,,,,,,,,,,,,,,,,,,,,,,,,,,"{'none': 'pictures/20M_AN_C.png', 'alpha': 'pictures/SHINEd_apple.png', 'beta': 'pictures/SHINEd_pear.png', 'theta': 'pictures/SHINEd_pepper.png', 'phi': 'pictures/SHINEd_melon.png', 'T1': 'pictures/23M_AN_C.png', 'T2': 'pictures/31M_AN_C.png', 'T3': 'pictures/32M_AN_C.png', 'T4': 'pictures/34M_AN_C.png', 'T5': 'pictures/38M_AN_C.png', 'T6': 'pictures/33M_AN_C.png', 'B1': 'pictures/37M_NE_C.png', 'B2': 'pictures/26M_NE_C.png', 'B3': 'pictures/25M_NE_C.png', 'B4': 'pictures/20M_NE_C.png', 'B5': 'pictures/36M_NE_C.png', 'B6': 'pictures/22M_NE_C.png'}",15.00831896300042,None,20.008441836000202,None,space,1119.4127113249997,20.008441836000202,None,,,,,,,,,,,,,,,,,,,,,,,,,,,,,,,,,,,,,,,,,,,,,,,,,,,,,,,,,,,,,,,,,,,,,,,,,,,,,,,,,,,,,,,,,,,,,,,,001,167,2020_Feb_25_1213,spring_faces,3.1.5,60.12744468903478,
,,,,,,,,,,,,,,,,,,,,,,,,,,,,,,,,,,,,,,,,,,,,,,,,,,,,1139.7919785289996,None,1139.7919785289996,None,"['0', '7', '2', '1', 'c', 'a', 'h', 'a', 'r']","[37.501118213000154, 38.4931784019991, 39.437137334, 39.58114741499958, 43.42117289499947, 43.51711841100041, 45.37316774499959, 45.453171252000175, 45.50111741500041]",1139.7919785289996,None,,,,,,,,,,,,,,,,,,,,,,,,,,,,,,,,,,,,,,,,,,,,,,,,,,,,,,,,,,,,,,,,,,,,,,,,,,,,,,,,,,,,,,,,001,167,2020_Feb_25_1213,spring_faces,3.1.5,60.12744468903478,
,,,,,,,,,,,,,,,,,,,,,,,,,,,,,,,,,,,,,,,,,,,,,,,,,,,,,,,,,,,,0721cahar,1139.7919785289996,None,1139.7919785289996,None,1190.3752928129998,None,space,3.517905016999066,1195.3751800259997,None,,,,,,,,,,,,,,,,,,,,,,,,,,,,,,,,,,,,,,,,,,,,,,,,,,,,,,,,,,,,,,,,,,,,,,,,,,,,,001,167,2020_Feb_25_1213,spring_faces,3.1.5,60.12744468903478,
,,,,,,,,,,,,,,,,,,,,,,,,,,,,,,,,,,,,,,,,,,,,,,,,,,,,,,,,,,,,,,,,,,,,,,,1195.3751800259997,None,1198.9422576100005,None,space,3.2710711380004796,1203.9420823210003,None,,,,,,,,,,,,,,,,,,,,,,,,,,,,,,,,,,,,,,,,,,,,,,,,,,,,,,,,,,,,,,,,,,,,,001,167,2020_Feb_25_1213,spring_faces,3.1.5,60.12744468903478,
condition files/Stage0a.xlsx,0a,beta,none,g,"['h', 'g']","['Chess', 'Go']","[0, 0.5]","[0, 0]",1,0,0,0,0,0,0,0,0,1,,,,,,,,,,,,,,,,,,,,,,,,,,,,,,,,,,,,,,,,,,,,,,,,,,,,,,,,,,,,,1203.9420823210003,None,1207.2755277100005,None,1207.2755277100005,None,1207.2755277100005,None,h,0,7.586205510999207,1208.8589609030005,None,1208.8589609030005,None,1208.8589609030005,None,1216.5254520800008,None,1216.5254520800008,None,1216.5254520800008,None,1216.5254520800008,None,,,,,,,,,,,,,,,,,,,,,,,,,,,,,,,,,,,,,,,,,,,,001,167,2020_Feb_25_1213,spring_faces,3.1.5,60.12744468903478,
condition files/Stage0a.xlsx,0a,alpha,none,h,"['h', 'g']","['Chess', 'Go']","[0, 0.5]","[0, 0]",1,0,0,0,0,0,0,1,1,0,,,,,,,,,,,,,,,,,,,,,,,,,,,,,,,,,,,,,,,,,,,,,,,,,,,,,,,,,,,,,,,1218.4751468989998,None,1218.4751468989998,None,1218.4751468989998,None,g,0,4.530702553998708,1220.0104708050003,None,1220.0104708050003,None,1220.0104708050003,None,1224.591896242,None,1224.591896242,None,1224.591896242,None,1224.591896242,None,,,,,,,,,,,,,,,,,,,,,,,,,,,,,,,,,,,,,,,,,,,,001,167,2020_Feb_25_1213,spring_faces,3.1.5,60.12744468903478,
condition files/Stage0a.xlsx,0a,beta,none,g,"['h', 'g']","['Chess', 'Go']","[0, 0.5]","[0, 0]",1,0,0,1,1,1,0,0,0,1,,,,,,,,,,,,,,,,,,,,,,,,,,,,,,,,,,,,,,,,,,,,,,,,,,,,,,,,,,,,,,,1226.5752952580006,None,1226.5752952580006,None,1226.5752952580006,None,g,1,4.319694991001597,1228.109484179,None,1228.109484179,None,1228.109484179,None,1232.4914334549994,None,1232.4914334549994,None,1232.4914334549994,None,1232.4914334549994,None,,,,,,,,,,,,,,,,,,,,,,,,,,,,,,,,,,,,,,,,,,,,001,167,2020_Feb_25_1213,spring_faces,3.1.5,60.12744468903478,
condition files/Stage0a.xlsx,0a,alpha,none,h,"['h', 'g']","['Chess', 'Go']","[0, 0.5]","[0, 0]",1,0,0,1,1,1,0,1,1,0,,,,,,,,,,,,,,,,,,,,,,,,,,,,,,,,,,,,,,,,,,,,,,,,,,,,,,,,,,,,,,,1234.458043388,None,1234.458043388,None,1234.458043388,None,h,1,1.3496494760001951,1235.9915265550007,None,1235.9915265550007,None,1235.9915265550007,None,1237.3924158629998,None,1237.3924158629998,None,1237.3924158629998,None,1237.3924158629998,None,,,,,,,,,,,,,,,,,,,,,,,,,,,,,,,,,,,,,,,,,,,,001,167,2020_Feb_25_1213,spring_faces,3.1.5,60.12744468903478,
condition files/Stage0a.xlsx,0a,beta,none,g,"['h', 'g']","['Chess', 'Go']","[0, 0.5]","[0, 0]",1,0,0,2,2,2,0,0,0,1,,,,,,,,,,,,,,,,,,,,,,,,,,,,,,,,,,,,,,,,,,,,,,,,,,,,,,,,,,,,,,,1239.3754544389994,None,1239.3754544389994,None,1239.3754544389994,None,g,1,2.128471348001767,1240.908638152001,None,1240.908638152001,None,1240.908638152001,None,1243.0915650810002,None,1243.0915650810002,None,1243.0915650810002,None,1243.0915650810002,None,,,,,,,,,,,,,,,,,,,,,,,,,,,,,,,,,,,,,,,,,,,,001,167,2020_Feb_25_1213,spring_faces,3.1.5,60.12744468903478,
condition files/Stage0a.xlsx,0a,alpha,none,h,"['h', 'g']","['Chess', 'Go']","[0, 0.5]","[0, 0]",1,0,0,2,2,2,0,1,1,0,,,,,,,,,,,,,,,,,,,,,,,,,,,,,,,,,,,,,,,,,,,,,,,,,,,,,,,,,,,,,,,1245.0584865679994,None,1245.0584865679994,None,1245.0584865679994,None,h,1,2.365115639000578,1246.592037071001,None,1246.592037071001,None,1246.592037071001,None,1249.0084931820002,None,1249.0084931820002,None,1249.0084931820002,None,1249.0084931820002,None,,,,,,,,,,,,,,,,,,,,,,,,,,,,,,,,,,,,,,,,,,,,001,167,2020_Feb_25_1213,spring_faces,3.1.5,60.12744468903478,
condition files/Stage0a.xlsx,0a,beta,none,g,"['h', 'g']","['Chess', 'Go']","[0, 0.5]","[0, 0]",1,0,0,3,3,3,0,0,0,1,,,,,,,,,,,,,,,,,,,,,,,,,,,,,,,,,,,,,,,,,,,,,,,,,,,,,,,,,,,,,,,1250.9919035799994,None,1250.9919035799994,None,1250.9919035799994,None,g,1,1.1674823939993075,1252.5256215099998,None,1252.5256215099998,None,1252.5256215099998,None,1253.7591628650007,None,1253.7591628650007,None,1253.7591628650007,None,1253.7591628650007,None,,,,,,,,,,,,,,,,,,,,,,,,,,,,,,,,,,,,,,,,,,,,001,167,2020_Feb_25_1213,spring_faces,3.1.5,60.12744468903478,
condition files/Stage0a.xlsx,0a,alpha,none,h,"['h', 'g']","['Chess', 'Go']","[0, 0.5]","[0, 0]",1,0,0,3,3,3,0,1,1,0,,,,,,,,,,,,,,,,,,,,,,,,,,,,,,,,,,,,,,,,,,,,,,,,,,,,,,,,,,,,,,,1255.7244220230004,None,1255.7244220230004,None,1255.7244220230004,None,h,1,1.2828336589991522,1257.2583388900002,None,1257.2583388900002,None,1257.2583388900002,None,1258.5923934040002,None,1258.5923934040002,None,1258.5923934040002,None,1258.5923934040002,None,,,,,,,,,,,,,,,,,,,,,,,,,,,,,,,,,,,,,,,,,,,,001,167,2020_Feb_25_1213,spring_faces,3.1.5,60.12744468903478,
condition files/Stage0a.xlsx,0a,beta,none,g,"['h', 'g']","['Chess', 'Go']","[0, 0.5]","[0, 0]",1,0,0,4,4,4,0,0,0,1,,,,,,,,,,,,,,,,,,,,,,,,,,,,,,,,,,,,,,,,,,,,,,,,,,,,,,,,,,,,,,,1260.575418104001,None,1260.575418104001,None,1260.575418104001,None,g,1,0.9605373930007772,1262.1086603660005,None,1262.1086603660005,None,1262.1086603660005,None,1263.1253225260007,None,1263.1253225260007,None,1263.1253225260007,None,1263.1253225260007,None,,,,,,,,,,,,,,,,,,,,,,,,,,,,,,,,,,,,,,,,,,,,001,167,2020_Feb_25_1213,spring_faces,3.1.5,60.12744468903478,
condition files/Stage0a.xlsx,0a,alpha,none,h,"['h', 'g']","['Chess', 'Go']","[0, 0.5]","[0, 0]",1,0,0,4,4,4,0,1,1,0,,,,,,,,,,,,,,,,,,,,,,,,,,,,,,,,,,,,,,,,,,,,,,,,,,,,,,,,,,,,,,,1265.0920815099998,None,1265.0920815099998,None,1265.0920815099998,None,h,1,0.9234345010008838,1266.6257477689996,None,1266.6257477689996,None,1266.6257477689996,None,1267.6076476519993,None,1267.6076476519993,None,1267.6076476519993,None,1267.6076476519993,None,,,,,,,,,,,,,,,,,,,,,,,,,,,,,,,,,,,,,,,,,,,,001,167,2020_Feb_25_1213,spring_faces,3.1.5,60.12744468903478,
condition files/Stage0a.xlsx,0a,beta,none,g,"['h', 'g']","['Chess', 'Go']","[0, 0.5]","[0, 0]",1,0,0,5,5,5,0,0,0,1,,,,,,,,,,,,,,,,,,,,,,,,,,,,,,,,,,,,,,,,,,,,,,,,,,,,,,,,,,,,,,,1269.5918300579997,None,1269.5918300579997,None,1269.5918300579997,None,g,1,2.3118845139997575,1271.1252559919994,None,1271.1252559919994,None,1271.1252559919994,None,1273.4913662880008,None,1273.4913662880008,None,1273.4913662880008,None,1273.4913662880008,None,,,,,,,,,,,,,,,,,,,,,,,,,,,,,,,,,,,,,,,,,,,,001,167,2020_Feb_25_1213,spring_faces,3.1.5,60.12744468903478,
condition files/Stage0a.xlsx,0a,alpha,none,h,"['h', 'g']","['Chess', 'Go']","[0, 0.5]","[0, 0]",1,0,0,5,5,5,0,1,1,0,,,,,,,,,,,,,,,,,,,,,,,,,,,,,,,,,,,,,,,,,,,,,,,,,,,,,,,,,,,,,,,1275.457791111001,None,1275.457791111001,None,1275.457791111001,None,h,1,0.8616930049993243,1276.9914249350004,None,1276.9914249350004,None,1276.9914249350004,None,1277.9086912029998,None,1277.9086912029998,None,1277.9086912029998,None,1277.9086912029998,None,,,,,,,,,,,,,,,,,,,,,,,,,,,,,,,,,,,,,,,,,,,,001,167,2020_Feb_25_1213,spring_faces,3.1.5,60.12744468903478,
condition files/Stage0b_1.xlsx,0b,none,beta,g,"['h', 'g']","['Chess', 'Go']","[-0.15, 0.5]","[0.15, 0.5]",0,1,0,6,6,6,0,0,0,1,,,,,,,,,,,,,,,,,,,,,,,,,,,,,,,,,,,,,,,,,,,,,,,,,,,,,,,,,,,,,,,1279.891998729001,None,1279.891998729001,None,1279.891998729001,None,g,1,2.811234956001499,1281.441890393,None,1281.441890393,None,1281.441890393,None,1284.3251058250007,None,1284.3251058250007,None,1284.3251058250007,None,1284.3251058250007,None,,,,,,,,,,,,,,,,,,,,,,,,,,,,,,,,,,,,,,,,,,,,001,167,2020_Feb_25_1213,spring_faces,3.1.5,60.12744468903478,
condition files/Stage0b_1.xlsx,0b,alpha,none,h,"['h', 'g']","['Chess', 'Go']","[-0.15, 0.5]","[0.15, 0.5]",1,0,0,6,6,6,0,1,1,0,,,,,,,,,,,,,,,,,,,,,,,,,,,,,,,,,,,,,,,,,,,,,,,,,,,,,,,,,,,,,,,1286.2753684529998,None,1286.2753684529998,None,1286.2753684529998,None,h,1,0.8874676889990951,1287.813765023,None,1287.813765023,None,1287.813765023,None,1288.7621375020008,None,1288.7621375020008,None,1288.7621375020008,None,1288.7621375020008,None,,,,,,,,,,,,,,,,,,,,,,,,,,,,,,,,,,,,,,,,,,,,001,167,2020_Feb_25_1213,spring_faces,3.1.5,60.12744468903478,
condition files/Stage0b_2.xlsx,0b,beta,none,g,"['h', 'g']","['Chess', 'Go']","[-0.15, 0.5]","[0.15, 0.5]",1,0,0,7,7,7,0,0,0,1,,,,,,,,,,,,,,,,,,,,,,,,,,,,,,,,,,,,,,,,,,,,,,,,,,,,,,,,,,,,,,,1290.741844649001,None,1290.741844649001,None,1290.741844649001,None,g,1,1.9775321899996925,1292.2755972609993,None,1292.2755972609993,None,1292.2755972609993,None,1294.3083087819996,None,1294.3083087819996,None,1294.3083087819996,None,1294.3083087819996,None,,,,,,,,,,,,,,,,,,,,,,,,,,,,,,,,,,,,,,,,,,,,001,167,2020_Feb_25_1213,spring_faces,3.1.5,60.12744468903478,
condition files/Stage0b_2.xlsx,0b,none,alpha,h,"['h', 'g']","['Chess', 'Go']","[-0.15, 0.5]","[0.15, 0.5]",0,1,0,7,7,7,0,1,1,0,,,,,,,,,,,,,,,,,,,,,,,,,,,,,,,,,,,,,,,,,,,,,,,,,,,,,,,,,,,,,,,1296.2750760500003,None,1296.2750760500003,None,1296.2750760500003,None,h,1,1.1591653960003896,1297.8139703300003,None,1297.8139703300003,None,1297.8139703300003,None,1299.0416109550006,None,1299.0416109550006,None,1299.0416109550006,None,1299.0416109550006,None,,,,,,,,,,,,,,,,,,,,,,,,,,,,,,,,,,,,,,,,,,,,001,167,2020_Feb_25_1213,spring_faces,3.1.5,60.12744468903478,
condition files/Stage0b_1.xlsx,0b,alpha,none,h,"['h', 'g']","['Chess', 'Go']","[-0.15, 0.5]","[0.15, 0.5]",1,0,0,8,8,8,0,0,0,0,,,,,,,,,,,,,,,,,,,,,,,,,,,,,,,,,,,,,,,,,,,,,,,,,,,,,,,,,,,,,,,1301.0086677870004,None,1301.0086677870004,None,1301.0086677870004,None,h,1,3.116296936999788,1302.544847221001,None,1302.544847221001,None,1302.544847221001,None,1305.7248442769996,None,1305.7248442769996,None,1305.7248442769996,None,1305.7248442769996,None,,,,,,,,,,,,,,,,,,,,,,,,,,,,,,,,,,,,,,,,,,,,001,167,2020_Feb_25_1213,spring_faces,3.1.5,60.12744468903478,
condition files/Stage0b_1.xlsx,0b,none,beta,g,"['h', 'g']","['Chess', 'Go']","[-0.15, 0.5]","[0.15, 0.5]",0,1,0,8,8,8,0,1,1,1,,,,,,,,,,,,,,,,,,,,,,,,,,,,,,,,,,,,,,,,,,,,,,,,,,,,,,,,,,,,,,,1307.6923181790007,None,1307.6923181790007,None,1307.6923181790007,None,g,1,1.0282383399990067,1309.224883887,None,1309.224883887,None,1309.224883887,None,1310.325574984001,None,1310.325574984001,None,1310.325574984001,None,1310.325574984001,None,,,,,,,,,,,,,,,,,,,,,,,,,,,,,,,,,,,,,,,,,,,,001,167,2020_Feb_25_1213,spring_faces,3.1.5,60.12744468903478,
condition files/Stage0b_2.xlsx,0b,none,alpha,h,"['h', 'g']","['Chess', 'Go']","[-0.15, 0.5]","[0.15, 0.5]",0,1,0,9,9,9,0,0,0,0,,,,,,,,,,,,,,,,,,,,,,,,,,,,,,,,,,,,,,,,,,,,,,,,,,,,,,,,,,,,,,,1312.291510172001,None,1312.291510172001,None,1312.291510172001,None,h,1,0.9564485759983654,1313.8247367490003,None,1313.8247367490003,None,1313.8247367490003,None,1314.8418513159995,None,1314.8418513159995,None,1314.8418513159995,None,1314.8418513159995,None,,,,,,,,,,,,,,,,,,,,,,,,,,,,,,,,,,,,,,,,,,,,001,167,2020_Feb_25_1213,spring_faces,3.1.5,60.12744468903478,
condition files/Stage0b_2.xlsx,0b,beta,none,g,"['h', 'g']","['Chess', 'Go']","[-0.15, 0.5]","[0.15, 0.5]",1,0,0,9,9,9,0,1,1,1,,,,,,,,,,,,,,,,,,,,,,,,,,,,,,,,,,,,,,,,,,,,,,,,,,,,,,,,,,,,,,,1316.8082033530009,None,1316.8082033530009,None,1316.8082033530009,None,g,1,1.2389576890000171,1318.3581963449997,None,1318.3581963449997,None,1318.3581963449997,None,1319.6752992599995,None,1319.6752992599995,None,1319.6752992599995,None,1319.6752992599995,None,,,,,,,,,,,,,,,,,,,,,,,,,,,,,,,,,,,,,,,,,,,,001,167,2020_Feb_25_1213,spring_faces,3.1.5,60.12744468903478,
condition files/Stage0b_1.xlsx,0b,none,beta,g,"['h', 'g']","['Chess', 'Go']","[-0.15, 0.5]","[0.15, 0.5]",0,1,0,10,10,10,0,0,0,1,,,,,,,,,,,,,,,,,,,,,,,,,,,,,,,,,,,,,,,,,,,,,,,,,,,,,,,,,,,,,,,1321.6417392500007,None,1321.6417392500007,None,1321.6417392500007,None,g,1,2.6757709169996815,1323.1613639610005,None,1323.1613639610005,None,1323.1613639610005,None,1325.8922598099998,None,1325.8922598099998,None,1325.8922598099998,None,1325.8922598099998,None,,,,,,,,,,,,,,,,,,,,,,,,,,,,,,,,,,,,,,,,,,,,001,167,2020_Feb_25_1213,spring_faces,3.1.5,60.12744468903478,
condition files/Stage0b_1.xlsx,0b,alpha,none,h,"['h', 'g']","['Chess', 'Go']","[-0.15, 0.5]","[0.15, 0.5]",1,0,0,10,10,10,0,1,1,0,,,,,,,,,,,,,,,,,,,,,,,,,,,,,,,,,,,,,,,,,,,,,,,,,,,,,,,,,,,,,,,1327.8584304430005,None,1327.8584304430005,None,1327.8584304430005,None,h,1,1.2564976309986378,1329.3966072799994,None,1329.3966072799994,None,1329.3966072799994,None,1330.711132642,None,1330.711132642,None,1330.711132642,None,1330.711132642,None,,,,,,,,,,,,,,,,,,,,,,,,,,,,,,,,,,,,,,,,,,,,001,167,2020_Feb_25_1213,spring_faces,3.1.5,60.12744468903478,
condition files/Stage0b_2.xlsx,0b,beta,none,g,"['h', 'g']","['Chess', 'Go']","[-0.15, 0.5]","[0.15, 0.5]",1,0,0,11,11,11,0,0,0,1,,,,,,,,,,,,,,,,,,,,,,,,,,,,,,,,,,,,,,,,,,,,,,,,,,,,,,,,,,,,,,,1332.6919883770006,None,1332.6919883770006,None,1332.6919883770006,None,g,1,2.3323125569986587,1334.224823613,None,1334.224823613,None,1334.224823613,None,1336.608302474,None,1336.608302474,None,1336.608302474,None,1336.608302474,None,,,,,,,,,,,,,,,,,,,,,,,,,,,,,,,,,,,,,,,,,,,,001,167,2020_Feb_25_1213,spring_faces,3.1.5,60.12744468903478,
condition files/Stage0b_2.xlsx,0b,none,alpha,h,"['h', 'g']","['Chess', 'Go']","[-0.15, 0.5]","[0.15, 0.5]",0,1,0,11,11,11,0,1,1,0,,,,,,,,,,,,,,,,,,,,,,,,,,,,,,,,,,,,,,,,,,,,,,,,,,,,,,,,,,,,,,,1338.574974436,None,1338.574974436,None,1338.574974436,None,h,1,1.0693113170000288,1340.1118395409994,None,1340.1118395409994,None,1340.1118395409994,None,1341.245663099,None,1341.245663099,None,1341.245663099,None,1341.245663099,None,,,,,,,,,,,,,,,,,,,,,,,,,,,,,,,,,,,,,,,,,,,,001,167,2020_Feb_25_1213,spring_faces,3.1.5,60.12744468903478,
condition files/Stage0c_1.xlsx,0c,theta,alpha,h,"['h', 'g']","['Chess', 'Go']","[-0.15, 0.5]","[0.15, 0.5]",1,1,0,12,12,12,0,0,0,0,,,,,,,,,,,,,,,,,,,,,,,,,,,,,,,,,,,,,,,,,,,,,,,,,,,,,,,,,,,,,,,1343.2253547920009,None,1343.2253547920009,None,1343.2253547920009,None,h,1,3.430485939999926,1344.7586436660004,None,1344.7586436660004,None,1344.7586436660004,None,1348.2421348490006,None,1348.2421348490006,None,1348.2421348490006,None,1348.2421348490006,None,,,,,,,,,,,,,,,,,,,,,,,,,,,,,,,,,,,,,,,,,,,,001,167,2020_Feb_25_1213,spring_faces,3.1.5,60.12744468903478,
condition files/Stage0c_1.xlsx,0c,beta,theta,g,"['h', 'g']","['Chess', 'Go']","[-0.15, 0.5]","[0.15, 0.5]",1,1,0,12,12,12,0,1,1,2,,,,,,,,,,,,,,,,,,,,,,,,,,,,,,,,,,,,,,,,,,,,,,,,,,,,,,,,,,,,,,,1350.2083459620007,None,1350.2083459620007,None,1350.2083459620007,None,g,1,3.246961218999786,1351.7421748449997,None,1351.7421748449997,None,1351.7421748449997,None,1355.0416432710008,None,1355.0416432710008,None,1355.0416432710008,None,1355.0416432710008,None,,,,,,,,,,,,,,,,,,,,,,,,,,,,,,,,,,,,,,,,,,,,001,167,2020_Feb_25_1213,spring_faces,3.1.5,60.12744468903478,
condition files/Stage0c_1.xlsx,0c,phi,beta,g,"['h', 'g']","['Chess', 'Go']","[-0.15, 0.5]","[0.15, 0.5]",1,1,0,12,12,12,0,2,2,3,,,,,,,,,,,,,,,,,,,,,,,,,,,,,,,,,,,,,,,,,,,,,,,,,,,,,,,,,,,,,,,1357.007764158001,None,1357.007764158001,None,1357.007764158001,None,g,1,4.335012097000799,1358.542071801001,None,1358.542071801001,None,1358.542071801001,None,1362.9420651159999,None,1362.9420651159999,None,1362.9420651159999,None,1362.9420651159999,None,,,,,,,,,,,,,,,,,,,,,,,,,,,,,,,,,,,,,,,,,,,,001,167,2020_Feb_25_1213,spring_faces,3.1.5,60.12744468903478,
condition files/Stage0c_1.xlsx,0c,alpha,phi,h,"['h', 'g']","['Chess', 'Go']","[-0.15, 0.5]","[0.15, 0.5]",1,1,0,12,12,12,0,3,3,1,,,,,,,,,,,,,,,,,,,,,,,,,,,,,,,,,,,,,,,,,,,,,,,,,,,,,,,,,,,,,,,1364.908420287,None,1364.908420287,None,1364.908420287,None,h,1,3.4593744530011463,1366.4418422140006,None,1366.4418422140006,None,1366.4418422140006,None,1369.9582854229993,None,1369.9582854229993,None,1369.9582854229993,None,1369.9582854229993,None,,,,,,,,,,,,,,,,,,,,,,,,,,,,,,,,,,,,,,,,,,,,001,167,2020_Feb_25_1213,spring_faces,3.1.5,60.12744468903478,
condition files/Stage0c_2.xlsx,0c,alpha,theta,h,"['h', 'g']","['Chess', 'Go']","[-0.15, 0.5]","[0.15, 0.5]",1,1,0,13,13,13,0,0,0,0,,,,,,,,,,,,,,,,,,,,,,,,,,,,,,,,,,,,,,,,,,,,,,,,,,,,,,,,,,,,,,,1371.9417892990004,None,1371.9417892990004,None,1371.9417892990004,None,h,1,4.938413190999199,1373.474750943,None,1373.474750943,None,1373.474750943,None,1378.458627508,None,1378.458627508,None,1378.458627508,None,1378.458627508,None,,,,,,,,,,,,,,,,,,,,,,,,,,,,,,,,,,,,,,,,,,,,001,167,2020_Feb_25_1213,spring_faces,3.1.5,60.12744468903478,
condition files/Stage0c_2.xlsx,0c,theta,beta,g,"['h', 'g']","['Chess', 'Go']","[-0.15, 0.5]","[0.15, 0.5]",1,1,0,13,13,13,0,1,1,2,,,,,,,,,,,,,,,,,,,,,,,,,,,,,,,,,,,,,,,,,,,,,,,,,,,,,,,,,,,,,,,1380.4419378019993,None,1380.4419378019993,None,1380.4419378019993,None,g,1,2.6136158159988554,1381.9755064229994,None,1381.9755064229994,None,1381.9755064229994,None,1384.6420361519995,None,1384.6420361519995,None,1384.6420361519995,None,1384.6420361519995,None,,,,,,,,,,,,,,,,,,,,,,,,,,,,,,,,,,,,,,,,,,,,001,167,2020_Feb_25_1213,spring_faces,3.1.5,60.12744468903478,
condition files/Stage0c_2.xlsx,0c,phi,alpha,h,"['h', 'g']","['Chess', 'Go']","[-0.15, 0.5]","[0.15, 0.5]",1,1,0,13,13,13,0,2,2,1,,,,,,,,,,,,,,,,,,,,,,,,,,,,,,,,,,,,,,,,,,,,,,,,,,,,,,,,,,,,,,,1386.6081859290007,None,1386.6081859290007,None,1386.6081859290007,None,h,1,3.4231308159996843,1388.1420158960009,None,1388.1420158960009,None,1388.1420158960009,None,1391.6256568850004,None,1391.6256568850004,None,1391.6256568850004,None,1391.6256568850004,None,,,,,,,,,,,,,,,,,,,,,,,,,,,,,,,,,,,,,,,,,,,,001,167,2020_Feb_25_1213,spring_faces,3.1.5,60.12744468903478,
condition files/Stage0c_2.xlsx,0c,beta,phi,g,"['h', 'g']","['Chess', 'Go']","[-0.15, 0.5]","[0.15, 0.5]",1,1,0,13,13,13,0,3,3,3,,,,,,,,,,,,,,,,,,,,,,,,,,,,,,,,,,,,,,,,,,,,,,,,,,,,,,,,,,,,,,,1393.5917885920007,None,1393.5917885920007,None,1393.5917885920007,None,g,1,2.615770087999408,1395.1253884439993,None,1395.1253884439993,None,1395.1253884439993,None,1397.791684463,None,1397.791684463,None,1397.791684463,None,1397.791684463,None,,,,,,,,,,,,,,,,,,,,,,,,,,,,,,,,,,,,,,,,,,,,001,167,2020_Feb_25_1213,spring_faces,3.1.5,60.12744468903478,
condition files/Stage0c_1.xlsx,0c,beta,theta,g,"['h', 'g']","['Chess', 'Go']","[-0.15, 0.5]","[0.15, 0.5]",1,1,0,14,14,14,0,0,0,2,,,,,,,,,,,,,,,,,,,,,,,,,,,,,,,,,,,,,,,,,,,,,,,,,,,,,,,,,,,,,,,1399.7756577199998,None,1399.7756577199998,None,1399.7756577199998,None,g,1,2.272994266999376,1401.308168226,None,1401.308168226,None,1401.308168226,None,1403.6271030200005,None,1403.6271030200005,None,1403.6271030200005,None,1403.6271030200005,None,,,,,,,,,,,,,,,,,,,,,,,,,,,,,,,,,,,,,,,,,,,,001,167,2020_Feb_25_1213,spring_faces,3.1.5,60.12744468903478,
condition files/Stage0c_1.xlsx,0c,phi,beta,g,"['h', 'g']","['Chess', 'Go']","[-0.15, 0.5]","[0.15, 0.5]",1,1,0,14,14,14,0,1,1,3,,,,,,,,,,,,,,,,,,,,,,,,,,,,,,,,,,,,,,,,,,,,,,,,,,,,,,,,,,,,,,,1405.6084127140002,None,1405.6084127140002,None,1405.6084127140002,None,g,1,3.079442587999438,1407.1416335899994,None,1407.1416335899994,None,1407.1416335899994,None,1410.2601415789995,None,1410.2601415789995,None,1410.2601415789995,None,1410.2601415789995,None,,,,,,,,,,,,,,,,,,,,,,,,,,,,,,,,,,,,,,,,,,,,001,167,2020_Feb_25_1213,spring_faces,3.1.5,60.12744468903478,
condition files/Stage0c_1.xlsx,0c,theta,alpha,h,"['h', 'g']","['Chess', 'Go']","[-0.15, 0.5]","[0.15, 0.5]",1,1,0,14,14,14,0,2,2,0,,,,,,,,,,,,,,,,,,,,,,,,,,,,,,,,,,,,,,,,,,,,,,,,,,,,,,,,,,,,,,,1412.2414231950006,None,1412.2414231950006,None,1412.2414231950006,None,h,1,1.9022761059986806,1413.7748509899993,None,1413.7748509899993,None,1413.7748509899993,None,1415.742050963001,None,1415.742050963001,None,1415.742050963001,None,1415.742050963001,None,,,,,,,,,,,,,,,,,,,,,,,,,,,,,,,,,,,,,,,,,,,,001,167,2020_Feb_25_1213,spring_faces,3.1.5,60.12744468903478,
condition files/Stage0c_1.xlsx,0c,alpha,phi,h,"['h', 'g']","['Chess', 'Go']","[-0.15, 0.5]","[0.15, 0.5]",1,1,0,14,14,14,0,3,3,1,,,,,,,,,,,,,,,,,,,,,,,,,,,,,,,,,,,,,,,,,,,,,,,,,,,,,,,,,,,,,,,1417.7086169449994,None,1417.7086169449994,None,1417.7086169449994,None,h,1,2.371082444999047,1419.2420074479996,None,1419.2420074479996,None,1419.2420074479996,None,1421.6752924730008,None,1421.6752924730008,None,1421.6752924730008,None,1421.6752924730008,None,,,,,,,,,,,,,,,,,,,,,,,,,,,,,,,,,,,,,,,,,,,,001,167,2020_Feb_25_1213,spring_faces,3.1.5,60.12744468903478,
condition files/Stage0c_2.xlsx,0c,phi,alpha,h,"['h', 'g']","['Chess', 'Go']","[-0.15, 0.5]","[0.15, 0.5]",1,1,0,15,15,15,0,0,0,1,,,,,,,,,,,,,,,,,,,,,,,,,,,,,,,,,,,,,,,,,,,,,,,,,,,,,,,,,,,,,,,1423.6588276750008,None,1423.6588276750008,None,1423.6588276750008,None,h,1,1.5097660930005077,1425.1753500180002,None,1425.1753500180002,None,1425.1753500180002,None,1426.7271675360007,None,1426.7271675360007,None,1426.7271675360007,None,1426.7271675360007,None,,,,,,,,,,,,,,,,,,,,,,,,,,,,,,,,,,,,,,,,,,,,001,167,2020_Feb_25_1213,spring_faces,3.1.5,60.12744468903478,
condition files/Stage0c_2.xlsx,0c,alpha,theta,h,"['h', 'g']","['Chess', 'Go']","[-0.15, 0.5]","[0.15, 0.5]",1,1,0,15,15,15,0,1,1,0,,,,,,,,,,,,,,,,,,,,,,,,,,,,,,,,,,,,,,,,,,,,,,,,,,,,,,,,,,,,,,,1428.7079273399995,None,1428.7079273399995,None,1428.7079273399995,None,h,1,2.0758737589985685,1430.2413211170006,None,1430.2413211170006,None,1430.2413211170006,None,1432.359880004,None,1432.359880004,None,1432.359880004,None,1432.359880004,None,,,,,,,,,,,,,,,,,,,,,,,,,,,,,,,,,,,,,,,,,,,,001,167,2020_Feb_25_1213,spring_faces,3.1.5,60.12744468903478,
condition files/Stage0c_2.xlsx,0c,theta,beta,g,"['h', 'g']","['Chess', 'Go']","[-0.15, 0.5]","[0.15, 0.5]",1,1,0,15,15,15,0,2,2,2,,,,,,,,,,,,,,,,,,,,,,,,,,,,,,,,,,,,,,,,,,,,,,,,,,,,,,,,,,,,,,,1434.3417115240009,None,1434.3417115240009,None,1434.3417115240009,None,g,1,1.7542225409997627,1435.874945382,None,1435.874945382,None,1435.874945382,None,1437.6920345399994,None,1437.6920345399994,None,1437.6920345399994,None,1437.6920345399994,None,,,,,,,,,,,,,,,,,,,,,,,,,,,,,,,,,,,,,,,,,,,,001,167,2020_Feb_25_1213,spring_faces,3.1.5,60.12744468903478,
condition files/Stage0c_2.xlsx,0c,beta,phi,g,"['h', 'g']","['Chess', 'Go']","[-0.15, 0.5]","[0.15, 0.5]",1,1,0,15,15,15,0,3,3,3,,,,,,,,,,,,,,,,,,,,,,,,,,,,,,,,,,,,,,,,,,,,,,,,,,,,,,,,,,,,,,,1439.65851071,None,1439.65851071,None,1439.65851071,None,g,1,1.5414699630000541,1441.191767325001,None,1441.191767325001,None,1441.191767325001,None,1442.7754570800007,None,1442.7754570800007,None,1442.7754570800007,None,1442.7754570800007,None,,,,,,,,,,,,,,,,,,,,,,,,,,,,,,,,,,,,,,,,,,,,001,167,2020_Feb_25_1213,spring_faces,3.1.5,60.12744468903478,
condition files/Stage0c_1.xlsx,0c,phi,beta,g,"['h', 'g']","['Chess', 'Go']","[-0.15, 0.5]","[0.15, 0.5]",1,1,0,16,16,16,0,0,0,3,,,,,,,,,,,,,,,,,,,,,,,,,,,,,,,,,,,,,,,,,,,,,,,,,,,,,,,,,,,,,,,1444.7749842190005,None,1444.7749842190005,None,1444.7749842190005,None,g,1,3.880577097999776,1446.3084873480002,None,1446.3084873480002,None,1446.3084873480002,None,1450.227360156001,None,1450.227360156001,None,1450.227360156001,None,1450.227360156001,None,,,,,,,,,,,,,,,,,,,,,,,,,,,,,,,,,,,,,,,,,,,,001,167,2020_Feb_25_1213,spring_faces,3.1.5,60.12744468903478,
condition files/Stage0c_1.xlsx,0c,beta,theta,g,"['h', 'g']","['Chess', 'Go']","[-0.15, 0.5]","[0.15, 0.5]",1,1,0,16,16,16,0,1,1,2,,,,,,,,,,,,,,,,,,,,,,,,,,,,,,,,,,,,,,,,,,,,,,,,,,,,,,,,,,,,,,,1452.2084022620002,None,1452.2084022620002,None,1452.2084022620002,None,g,1,1.9996726360004686,1453.7414567380001,None,1453.7414567380001,None,1453.7414567380001,None,1455.7769792340005,None,1455.7769792340005,None,1455.7769792340005,None,1455.7769792340005,None,,,,,,,,,,,,,,,,,,,,,,,,,,,,,,,,,,,,,,,,,,,,001,167,2020_Feb_25_1213,spring_faces,3.1.5,60.12744468903478,
condition files/Stage0c_1.xlsx,0c,alpha,phi,h,"['h', 'g']","['Chess', 'Go']","[-0.15, 0.5]","[0.15, 0.5]",1,1,0,16,16,16,0,2,2,1,,,,,,,,,,,,,,,,,,,,,,,,,,,,,,,,,,,,,,,,,,,,,,,,,,,,,,,,,,,,,,,1457.7577270269994,None,1457.7577270269994,None,1457.7577270269994,None,h,1,1.2809018200005085,1459.2922268450002,None,1459.2922268450002,None,1459.2922268450002,None,1460.6253071120009,None,1460.6253071120009,None,1460.6253071120009,None,1460.6253071120009,None,,,,,,,,,,,,,,,,,,,,,,,,,,,,,,,,,,,,,,,,,,,,001,167,2020_Feb_25_1213,spring_faces,3.1.5,60.12744468903478,
condition files/Stage0c_1.xlsx,0c,theta,alpha,h,"['h', 'g']","['Chess', 'Go']","[-0.15, 0.5]","[0.15, 0.5]",1,1,0,16,16,16,0,3,3,0,,,,,,,,,,,,,,,,,,,,,,,,,,,,,,,,,,,,,,,,,,,,,,,,,,,,,,,,,,,,,,,1462.5913311420009,None,1462.5913311420009,None,1462.5913311420009,None,h,1,2.176480158999766,1464.1247147739996,None,1464.1247147739996,None,1464.1247147739996,None,1466.3426899679998,None,1466.3426899679998,None,1466.3426899679998,None,1466.3426899679998,None,,,,,,,,,,,,,,,,,,,,,,,,,,,,,,,,,,,,,,,,,,,,001,167,2020_Feb_25_1213,spring_faces,3.1.5,60.12744468903478,
condition files/Stage0c_2.xlsx,0c,phi,alpha,h,"['h', 'g']","['Chess', 'Go']","[-0.15, 0.5]","[0.15, 0.5]",1,1,0,17,17,17,0,0,0,1,,,,,,,,,,,,,,,,,,,,,,,,,,,,,,,,,,,,,,,,,,,,,,,,,,,,,,,,,,,,,,,1468.3417399680002,None,1468.3417399680002,None,1468.3417399680002,None,h,1,7.241767904999506,1469.8754213650009,None,1469.8754213650009,None,1469.8754213650009,None,1477.1611765920006,None,1477.1611765920006,None,1477.1611765920006,None,1477.1611765920006,None,,,,,,,,,,,,,,,,,,,,,,,,,,,,,,,,,,,,,,,,,,,,001,167,2020_Feb_25_1213,spring_faces,3.1.5,60.12744468903478,
condition files/Stage0c_2.xlsx,0c,beta,phi,g,"['h', 'g']","['Chess', 'Go']","[-0.15, 0.5]","[0.15, 0.5]",1,1,0,17,17,17,0,1,1,3,,,,,,,,,,,,,,,,,,,,,,,,,,,,,,,,,,,,,,,,,,,,,,,,,,,,,,,,,,,,,,,1479.1411227080007,None,1479.1411227080007,None,1479.1411227080007,None,g,1,2.29782123699988,1480.67530678,None,1480.67530678,None,1480.67530678,None,1483.0251770310006,None,1483.0251770310006,None,1483.0251770310006,None,1483.0251770310006,None,,,,,,,,,,,,,,,,,,,,,,,,,,,,,,,,,,,,,,,,,,,,001,167,2020_Feb_25_1213,spring_faces,3.1.5,60.12744468903478,
condition files/Stage0c_2.xlsx,0c,theta,beta,g,"['h', 'g']","['Chess', 'Go']","[-0.15, 0.5]","[0.15, 0.5]",1,1,0,17,17,17,0,2,2,2,,,,,,,,,,,,,,,,,,,,,,,,,,,,,,,,,,,,,,,,,,,,,,,,,,,,,,,,,,,,,,,1484.992042748001,None,1484.992042748001,None,1484.992042748001,None,g,1,4.031432368001333,1486.5257226369995,None,1486.5257226369995,None,1486.5257226369995,None,1490.5933953830008,None,1490.5933953830008,None,1490.5933953830008,None,1490.5933953830008,None,,,,,,,,,,,,,,,,,,,,,,,,,,,,,,,,,,,,,,,,,,,,001,167,2020_Feb_25_1213,spring_faces,3.1.5,60.12744468903478,
condition files/Stage0c_2.xlsx,0c,alpha,theta,h,"['h', 'g']","['Chess', 'Go']","[-0.15, 0.5]","[0.15, 0.5]",1,1,0,17,17,17,0,3,3,0,,,,,,,,,,,,,,,,,,,,,,,,,,,,,,,,,,,,,,,,,,,,,,,,,,,,,,,,,,,,,,,1492.5751175629994,None,1492.5751175629994,None,1492.5751175629994,None,h,1,1.744497946001502,1494.108632634001,None,1494.108632634001,None,1494.108632634001,None,1495.9083462960007,None,1495.9083462960007,None,1495.9083462960007,None,1495.9083462960007,None,,,,,,,,,,,,,,,,,,,,,,,,,,,,,,,,,,,,,,,,,,,,001,167,2020_Feb_25_1213,spring_faces,3.1.5,60.12744468903478,
,,,,,,,,,,,,,,,,,,,,,,,,,,,,,,,,,,,,,,,,,,,,,,,,,,,,,,,,,,,,,,,,,,,,,,,,,,,,,,,,,,,,,,,,,,,,,,,,,,,,,,,,1497.8920120439998,None,space,3.4732992310000554,1502.8918801870004,None,,,,,,,,,,,,,,,,,,,,,,,,,,,,,,,,,,,,,,001,167,2020_Feb_25_1213,spring_faces,3.1.5,60.12744468903478,
condition files/Stage1_1.xlsx,,T3,B4,c,"['c', 'm']","['Clue', 'Monopoly']","[-0.15, 0.5]","[0.15, 0.5]",1,1,,,,,,,,,0,0,0,0,0,0,0,5,,,,,,,,,,,,,,,,,,,,,,,,,,,,,,,,,,,,,,,,,,,,,,,,,,,,,,,1506.425156493,None,1506.425156493,None,1506.425156493,None,c,1,3.0279066809998767,1508.0251556969997,None,1508.0251556969997,None,1508.0251556969997,None,1511.125998169,None,1511.125998169,None,1511.125998169,None,1511.125998169,None,,,,,,,1502.8918801870004,None,,,,,,,,,,,,,,,,,,,,,,,,,,,,,,,,,,,,001,167,2020_Feb_25_1213,spring_faces,3.1.5,60.12744468903478,
condition files/Stage1_1.xlsx,,T2,B2,m,"['c', 'm']","['Clue', 'Monopoly']","[-0.15, 0.5]","[0.15, 0.5]",1,1,,,,,,,,,0,0,0,0,0,1,1,3,,,,,,,,,,,,,,,,,,,,,,,,,,,,,,,,,,,,,,,,,,,,,,,,,,,,,,,1513.0749973729999,None,1513.0749973729999,None,1513.0749973729999,None,c,0,2.540059590000965,1514.6251224410007,None,1514.6251224410007,None,1514.6251224410007,None,1517.2422231109995,None,1517.2422231109995,None,1517.2422231109995,None,1517.2422231109995,None,,,,,,,,,,,,,,,,,,,,,,,,,,,,,,,,,,,,,,,,,,,,001,167,2020_Feb_25_1213,spring_faces,3.1.5,60.12744468903478,
condition files/Stage1_1.xlsx,,B3,T3,c,"['c', 'm']","['Clue', 'Monopoly']","[-0.15, 0.5]","[0.15, 0.5]",1,1,,,,,,,,,0,0,0,0,0,2,2,4,,,,,,,,,,,,,,,,,,,,,,,,,,,,,,,,,,,,,,,,,,,,,,,,,,,,,,,1519.1912272480004,None,1519.1912272480004,None,1519.1912272480004,None,m,0,2.966608507998899,1520.7264911439997,None,1520.7264911439997,None,1520.7264911439997,None,1523.7584715280009,None,1523.7584715280009,None,1523.7584715280009,None,1523.7584715280009,None,,,,,,,,,,,,,,,,,,,,,,,,,,,,,,,,,,,,,,,,,,,,001,167,2020_Feb_25_1213,spring_faces,3.1.5,60.12744468903478,
condition files/Stage1_1.xlsx,,T4,B3,m,"['c', 'm']","['Clue', 'Monopoly']","[-0.15, 0.5]","[0.15, 0.5]",1,1,,,,,,,,,0,0,0,0,0,3,3,6,,,,,,,,,,,,,,,,,,,,,,,,,,,,,,,,,,,,,,,,,,,,,,,,,,,,,,,1525.7253277109994,None,1525.7253277109994,None,1525.7253277109994,None,c,0,4.464844909000021,1527.3082875609998,None,1527.3082875609998,None,1527.3082875609998,None,1531.8278985870002,None,1531.8278985870002,None,1531.8278985870002,None,1531.8278985870002,None,,,,,,,,,,,,,,,,,,,,,,,,,,,,,,,,,,,,,,,,,,,,001,167,2020_Feb_25_1213,spring_faces,3.1.5,60.12744468903478,
condition files/Stage1_1.xlsx,,T1,B1,c,"['c', 'm']","['Clue', 'Monopoly']","[-0.15, 0.5]","[0.15, 0.5]",1,1,,,,,,,,,0,0,0,0,0,4,4,0,,,,,,,,,,,,,,,,,,,,,,,,,,,,,,,,,,,,,,,,,,,,,,,,,,,,,,,1533.7915162360005,None,1533.7915162360005,None,1533.7915162360005,None,m,0,3.198085844000161,1535.3750466380006,None,1535.3750466380006,None,1535.3750466380006,None,1538.6421389879997,None,1538.6421389879997,None,1538.6421389879997,None,1538.6421389879997,None,,,,,,,,,,,,,,,,,,,,,,,,,,,,,,,,,,,,,,,,,,,,001,167,2020_Feb_25_1213,spring_faces,3.1.5,60.12744468903478,
condition files/Stage1_1.xlsx,,B2,T1,m,"['c', 'm']","['Clue', 'Monopoly']","[-0.15, 0.5]","[0.15, 0.5]",1,1,,,,,,,,,0,0,0,0,0,5,5,2,,,,,,,,,,,,,,,,,,,,,,,,,,,,,,,,,,,,,,,,,,,,,,,,,,,,,,,1540.5917634830002,None,1540.5917634830002,None,1540.5917634830002,None,c,0,3.2000283270008367,1542.1251428710002,None,1542.1251428710002,None,1542.1251428710002,None,1545.3775702439998,None,1545.3775702439998,None,1545.3775702439998,None,1545.3775702439998,None,,,,,,,,,,,,,,,,,,,,,,,,,,,,,,,,,,,,,,,,,,,,001,167,2020_Feb_25_1213,spring_faces,3.1.5,60.12744468903478,
condition files/Stage1_1.xlsx,,B1,T2,c,"['c', 'm']","['Clue', 'Monopoly']","[-0.15, 0.5]","[0.15, 0.5]",1,1,,,,,,,,,0,0,0,0,0,6,6,1,,,,,,,,,,,,,,,,,,,,,,,,,,,,,,,,,,,,,,,,,,,,,,,,,,,,,,,1547.3418176150008,None,1547.3418176150008,None,1547.3418176150008,None,m,0,2.145723215999169,1548.8914075619996,None,1548.8914075619996,None,1548.8914075619996,None,1551.0947394939994,None,1551.0947394939994,None,1551.0947394939994,None,1551.0947394939994,None,,,,,,,,,,,,,,,,,,,,,,,,,,,,,,,,,,,,,,,,,,,,001,167,2020_Feb_25_1213,spring_faces,3.1.5,60.12744468903478,
condition files/Stage1_1.xlsx,,B4,T4,m,"['c', 'm']","['Clue', 'Monopoly']","[-0.15, 0.5]","[0.15, 0.5]",1,1,,,,,,,,,0,0,0,0,0,7,7,7,,,,,,,,,,,,,,,,,,,,,,,,,,,,,,,,,,,,,,,,,,,,,,,,,,,,,,,1553.058435799001,None,1553.058435799001,None,1553.058435799001,None,c,0,2.9241664199998922,1554.6090276220002,None,1554.6090276220002,None,1554.6090276220002,None,1557.6089622790005,None,1557.6089622790005,None,1557.6089622790005,None,1557.6089622790005,None,,,,,,,,,,,,,,,,,,,,,,,,,,,,,,,,,,,,,,,,,,,,001,167,2020_Feb_25_1213,spring_faces,3.1.5,60.12744468903478,
condition files/Stage1_2.xlsx,,T4,B4,m,"['c', 'm']","['Clue', 'Monopoly']","[-0.15, 0.5]","[0.15, 0.5]",1,1,,,,,,,,,0,1,1,1,0,0,0,7,,,,,,,,,,,,,,,,,,,,,,,,,,,,,,,,,,,,,,,,,,,,,,,,,,,,,,,1559.575342045,None,1559.575342045,None,1559.575342045,None,c,0,3.975968577000458,1561.125124274,None,1561.125124274,None,1561.125124274,None,1565.1591528030003,None,1565.1591528030003,None,1565.1591528030003,None,1565.1591528030003,None,,,,,,,,,,,,,,,,,,,,,,,,,,,,,,,,,,,,,,,,,,,,001,167,2020_Feb_25_1213,spring_faces,3.1.5,60.12744468903478,
condition files/Stage1_2.xlsx,,B4,T3,c,"['c', 'm']","['Clue', 'Monopoly']","[-0.15, 0.5]","[0.15, 0.5]",1,1,,,,,,,,,0,1,1,1,0,1,1,5,,,,,,,,,,,,,,,,,,,,,,,,,,,,,,,,,,,,,,,,,,,,,,,,,,,,,,,1567.1246208190005,None,1567.1246208190005,None,1567.1246208190005,None,m,0,3.8659069299992552,1568.6752546259995,None,1568.6752546259995,None,1568.6752546259995,None,1572.6083470419999,None,1572.6083470419999,None,1572.6083470419999,None,1572.6083470419999,None,,,,,,,,,,,,,,,,,,,,,,,,,,,,,,,,,,,,,,,,,,,,001,167,2020_Feb_25_1213,spring_faces,3.1.5,60.12744468903478,
condition files/Stage1_2.xlsx,,B1,T1,c,"['c', 'm']","['Clue', 'Monopoly']","[-0.15, 0.5]","[0.15, 0.5]",1,1,,,,,,,,,0,1,1,1,0,2,2,0,,,,,,,,,,,,,,,,,,,,,,,,,,,,,,,,,,,,,,,,,,,,,,,,,,,,,,,1574.5586198950004,None,1574.5586198950004,None,1574.5586198950004,None,m,0,8.09476642700065,1576.0943957470008,None,1576.0943957470008,None,1576.0943957470008,None,1584.2420310340003,None,1584.2420310340003,None,1584.2420310340003,None,1584.2420310340003,None,,,,,,,,,,,,,,,,,,,,,,,,,,,,,,,,,,,,,,,,,,,,001,167,2020_Feb_25_1213,spring_faces,3.1.5,60.12744468903478,
condition files/Stage1_2.xlsx,,B2,T2,m,"['c', 'm']","['Clue', 'Monopoly']","[-0.15, 0.5]","[0.15, 0.5]",1,1,,,,,,,,,0,1,1,1,0,3,3,3,,,,,,,,,,,,,,,,,,,,,,,,,,,,,,,,,,,,,,,,,,,,,,,,,,,,,,,1586.2080766979998,None,1586.2080766979998,None,1586.2080766979998,None,c,0,4.222295400000803,1587.7588417000006,None,1587.7588417000006,None,1587.7588417000006,None,1592.044915134,None,1592.044915134,None,1592.044915134,None,1592.044915134,None,,,,,,,,,,,,,,,,,,,,,,,,,,,,,,,,,,,,,,,,,,,,001,167,2020_Feb_25_1213,spring_faces,3.1.5,60.12744468903478,
condition files/Stage1_2.xlsx,,T1,B2,m,"['c', 'm']","['Clue', 'Monopoly']","[-0.15, 0.5]","[0.15, 0.5]",1,1,,,,,,,,,0,1,1,1,0,4,4,2,,,,,,,,,,,,,,,,,,,,,,,,,,,,,,,,,,,,,,,,,,,,,,,,,,,,,,,1594.0088281749995,None,1594.0088281749995,None,1594.0088281749995,None,c,0,1.6385528390001127,1595.5586232570004,None,1595.5586232570004,None,1595.5586232570004,None,1597.257970087001,None,1597.257970087001,None,1597.257970087001,None,1597.257970087001,None,,,,,,,,,,,,,,,,,,,,,,,,,,,,,,,,,,,,,,,,,,,,001,167,2020_Feb_25_1213,spring_faces,3.1.5,60.12744468903478,
condition files/Stage1_2.xlsx,,T3,B3,c,"['c', 'm']","['Clue', 'Monopoly']","[-0.15, 0.5]","[0.15, 0.5]",1,1,,,,,,,,,0,1,1,1,0,5,5,4,,,,,,,,,,,,,,,,,,,,,,,,,,,,,,,,,,,,,,,,,,,,,,,,,,,,,,,1599.2247061609996,None,1599.2247061609996,None,1599.2247061609996,None,m,0,9.494089473999338,1600.7751173920005,None,1600.7751173920005,None,1600.7751173920005,None,1610.341351002,None,1610.341351002,None,1610.341351002,None,1610.341351002,None,,,,,,,,,,,,,,,,,,,,,,,,,,,,,,,,,,,,,,,,,,,,001,167,2020_Feb_25_1213,spring_faces,3.1.5,60.12744468903478,
condition files/Stage1_2.xlsx,,T2,B1,c,"['c', 'm']","['Clue', 'Monopoly']","[-0.15, 0.5]","[0.15, 0.5]",1,1,,,,,,,,,0,1,1,1,0,6,6,1,,,,,,,,,,,,,,,,,,,,,,,,,,,,,,,,,,,,,,,,,,,,,,,,,,,,,,,1612.2912747869996,None,1612.2912747869996,None,1612.2912747869996,None,c,1,2.3465931009995984,1613.8265650840003,None,1613.8265650840003,None,1613.8265650840003,None,1616.2256872979997,None,1616.2256872979997,None,1616.2256872979997,None,1616.2256872979997,None,,,,,,,,,,,,,,,,,,,,,,,,,,,,,,,,,,,,,,,,,,,,001,167,2020_Feb_25_1213,spring_faces,3.1.5,60.12744468903478,
condition files/Stage1_2.xlsx,,B3,T4,m,"['c', 'm']","['Clue', 'Monopoly']","[-0.15, 0.5]","[0.15, 0.5]",1,1,,,,,,,,,0,1,1,1,0,7,7,6,,,,,,,,,,,,,,,,,,,,,,,,,,,,,,,,,,,,,,,,,,,,,,,,,,,,,,,1618.1918773750003,None,1618.1918773750003,None,1618.1918773750003,None,m,1,1.2311781939988578,1619.725988256001,None,1619.725988256001,None,1619.725988256001,None,1621.008765034001,None,1621.008765034001,None,1621.008765034001,None,1621.008765034001,None,,,,,,,,,,,,,,,,,,,,,,,,,,,,,,,,,,,,,,,,,,,,001,167,2020_Feb_25_1213,spring_faces,3.1.5,60.12744468903478,
condition files/Stage1_1.xlsx,,T4,B3,m,"['c', 'm']","['Clue', 'Monopoly']","[-0.15, 0.5]","[0.15, 0.5]",1,1,,,,,,,,,0,2,2,2,0,0,0,6,,,,,,,,,,,,,,,,,,,,,,,,,,,,,,,,,,,,,,,,,,,,,,,,,,,,,,,1622.992086350001,None,1622.992086350001,None,1622.992086350001,None,c,0,1.2627823779985192,1624.5263626899996,None,1624.5263626899996,None,1624.5263626899996,None,1625.8421786689996,None,1625.8421786689996,None,1625.8421786689996,None,1625.8421786689996,None,,,,,,,,,,,,,,,,,,,,,,,,,,,,,,,,,,,,,,,,,,,,001,167,2020_Feb_25_1213,spring_faces,3.1.5,60.12744468903478,
condition files/Stage1_1.xlsx,,T3,B4,c,"['c', 'm']","['Clue', 'Monopoly']","[-0.15, 0.5]","[0.15, 0.5]",1,1,,,,,,,,,0,2,2,2,0,1,1,5,,,,,,,,,,,,,,,,,,,,,,,,,,,,,,,,,,,,,,,,,,,,,,,,,,,,,,,1627.808414655001,None,1627.808414655001,None,1627.808414655001,None,c,1,1.0545855459986342,1629.3425842729994,None,1629.3425842729994,None,1629.3425842729994,None,1630.459192485001,None,1630.459192485001,None,1630.459192485001,None,1630.459192485001,None,,,,,,,,,,,,,,,,,,,,,,,,,,,,,,,,,,,,,,,,,,,,001,167,2020_Feb_25_1213,spring_faces,3.1.5,60.12744468903478,
condition files/Stage1_1.xlsx,,B3,T3,c,"['c', 'm']","['Clue', 'Monopoly']","[-0.15, 0.5]","[0.15, 0.5]",1,1,,,,,,,,,0,2,2,2,0,2,2,4,,,,,,,,,,,,,,,,,,,,,,,,,,,,,,,,,,,,,,,,,,,,,,,,,,,,,,,1632.4251955430009,None,1632.4251955430009,None,1632.4251955430009,None,m,0,2.454523753000103,1633.9586529820008,None,1633.9586529820008,None,1633.9586529820008,None,1636.4751202419993,None,1636.4751202419993,None,1636.4751202419993,None,1636.4751202419993,None,,,,,,,,,,,,,,,,,,,,,,,,,,,,,,,,,,,,,,,,,,,,001,167,2020_Feb_25_1213,spring_faces,3.1.5,60.12744468903478,
condition files/Stage1_1.xlsx,,B2,T1,m,"['c', 'm']","['Clue', 'Monopoly']","[-0.15, 0.5]","[0.15, 0.5]",1,1,,,,,,,,,0,2,2,2,0,3,3,2,,,,,,,,,,,,,,,,,,,,,,,,,,,,,,,,,,,,,,,,,,,,,,,,,,,,,,,1638.4419057670002,None,1638.4419057670002,None,1638.4419057670002,None,m,1,1.5742341780005518,1639.974983299,None,1639.974983299,None,1639.974983299,None,1641.6249593920002,None,1641.6249593920002,None,1641.6249593920002,None,1641.6249593920002,None,,,,,,,,,,,,,,,,,,,,,,,,,,,,,,,,,,,,,,,,,,,,001,167,2020_Feb_25_1213,spring_faces,3.1.5,60.12744468903478,
condition files/Stage1_1.xlsx,,B4,T4,m,"['c', 'm']","['Clue', 'Monopoly']","[-0.15, 0.5]","[0.15, 0.5]",1,1,,,,,,,,,0,2,2,2,0,4,4,7,,,,,,,,,,,,,,,,,,,,,,,,,,,,,,,,,,,,,,,,,,,,,,,,,,,,,,,1643.5744377120009,None,1643.5744377120009,None,1643.5744377120009,None,c,0,2.135569309000857,1645.1255919409996,None,1645.1255919409996,None,1645.1255919409996,None,1647.3252764949993,None,1647.3252764949993,None,1647.3252764949993,None,1647.3252764949993,None,,,,,,,,,,,,,,,,,,,,,,,,,,,,,,,,,,,,,,,,,,,,001,167,2020_Feb_25_1213,spring_faces,3.1.5,60.12744468903478,
condition files/Stage1_1.xlsx,,B1,T2,c,"['c', 'm']","['Clue', 'Monopoly']","[-0.15, 0.5]","[0.15, 0.5]",1,1,,,,,,,,,0,2,2,2,0,5,5,1,,,,,,,,,,,,,,,,,,,,,,,,,,,,,,,,,,,,,,,,,,,,,,,,,,,,,,,1649.2919454090006,None,1649.2919454090006,None,1649.2919454090006,None,m,0,1.3471149910001259,1650.842027132001,None,1650.842027132001,None,1650.842027132001,None,1652.2589218289995,None,1652.2589218289995,None,1652.2589218289995,None,1652.2589218289995,None,,,,,,,,,,,,,,,,,,,,,,,,,,,,,,,,,,,,,,,,,,,,001,167,2020_Feb_25_1213,spring_faces,3.1.5,60.12744468903478,
condition files/Stage1_1.xlsx,,T2,B2,m,"['c', 'm']","['Clue', 'Monopoly']","[-0.15, 0.5]","[0.15, 0.5]",1,1,,,,,,,,,0,2,2,2,0,6,6,3,,,,,,,,,,,,,,,,,,,,,,,,,,,,,,,,,,,,,,,,,,,,,,,,,,,,,,,1654.2085437770002,None,1654.2085437770002,None,1654.2085437770002,None,m,1,2.2234268990014243,1655.741680938001,None,1655.741680938001,None,1655.741680938001,None,1658.027647301,None,1658.027647301,None,1658.027647301,None,1658.027647301,None,,,,,,,,,,,,,,,,,,,,,,,,,,,,,,,,,,,,,,,,,,,,001,167,2020_Feb_25_1213,spring_faces,3.1.5,60.12744468903478,
condition files/Stage1_1.xlsx,,T1,B1,c,"['c', 'm']","['Clue', 'Monopoly']","[-0.15, 0.5]","[0.15, 0.5]",1,1,,,,,,,,,0,2,2,2,0,7,7,0,,,,,,,,,,,,,,,,,,,,,,,,,,,,,,,,,,,,,,,,,,,,,,,,,,,,,,,1659.9916907890001,None,1659.9916907890001,None,1659.9916907890001,None,m,0,1.2213182420000521,1661.5278997540008,None,1661.5278997540008,None,1661.5278997540008,None,1662.810246252,None,1662.810246252,None,1662.810246252,None,1662.810246252,None,,,,,,,,,,,,,,,,,,,,,,,,,,,,,,,,,,,,,,,,,,,,001,167,2020_Feb_25_1213,spring_faces,3.1.5,60.12744468903478,
condition files/Stage1_2.xlsx,,T1,B2,m,"['c', 'm']","['Clue', 'Monopoly']","[-0.15, 0.5]","[0.15, 0.5]",1,1,,,,,,,,,0,3,3,3,0,0,0,2,,,,,,,,,,,,,,,,,,,,,,,,,,,,,,,,,,,,,,,,,,,,,,,,,,,,,,,1664.7921014570002,None,1664.7921014570002,None,1664.7921014570002,None,c,0,1.733546366000155,1666.327634749001,None,1666.327634749001,None,1666.327634749001,None,1668.1418165939995,None,1668.1418165939995,None,1668.1418165939995,None,1668.1418165939995,None,,,,,,,,,,,,,,,,,,,,,,,,,,,,,,,,,,,,,,,,,,,,001,167,2020_Feb_25_1213,spring_faces,3.1.5,60.12744468903478,
condition files/Stage1_2.xlsx,,T4,B4,m,"['c', 'm']","['Clue', 'Monopoly']","[-0.15, 0.5]","[0.15, 0.5]",1,1,,,,,,,,,0,3,3,3,0,1,1,7,,,,,,,,,,,,,,,,,,,,,,,,,,,,,,,,,,,,,,,,,,,,,,,,,,,,,,,1670.0917967540008,None,1670.0917967540008,None,1670.0917967540008,None,c,0,1.9556408600001305,1671.641516693,None,1671.641516693,None,1671.641516693,None,1673.658290812,None,1673.658290812,None,1673.658290812,None,1673.658290812,None,,,,,,,,,,,,,,,,,,,,,,,,,,,,,,,,,,,,,,,,,,,,001,167,2020_Feb_25_1213,spring_faces,3.1.5,60.12744468903478,
condition files/Stage1_2.xlsx,,B2,T2,m,"['c', 'm']","['Clue', 'Monopoly']","[-0.15, 0.5]","[0.15, 0.5]",1,1,,,,,,,,,0,3,3,3,0,2,2,3,,,,,,,,,,,,,,,,,,,,,,,,,,,,,,,,,,,,,,,,,,,,,,,,,,,,,,,1675.6251025580004,None,1675.6251025580004,None,1675.6251025580004,None,m,1,7.4612145949995465,1677.1599410449999,None,1677.1599410449999,None,1677.1599410449999,None,1684.6751161989996,None,1684.6751161989996,None,1684.6751161989996,None,1684.6751161989996,None,,,,,,,,,,,,,,,,,,,,,,,,,,,,,,,,,,,,,,,,,,,,001,167,2020_Feb_25_1213,spring_faces,3.1.5,60.12744468903478,
condition files/Stage1_2.xlsx,,B4,T3,c,"['c', 'm']","['Clue', 'Monopoly']","[-0.15, 0.5]","[0.15, 0.5]",1,1,,,,,,,,,0,3,3,3,0,3,3,5,,,,,,,,,,,,,,,,,,,,,,,,,,,,,,,,,,,,,,,,,,,,,,,,,,,,,,,1686.6419069040003,None,1686.6419069040003,None,1686.6419069040003,None,c,1,1.5330678370009991,1688.1920919830009,None,1688.1920919830009,None,1688.1920919830009,None,1689.7914628449998,None,1689.7914628449998,None,1689.7914628449998,None,1689.7914628449998,None,,,,,,,,,,,,,,,,,,,,,,,,,,,,,,,,,,,,,,,,,,,,001,167,2020_Feb_25_1213,spring_faces,3.1.5,60.12744468903478,
condition files/Stage1_2.xlsx,,T2,B1,c,"['c', 'm']","['Clue', 'Monopoly']","[-0.15, 0.5]","[0.15, 0.5]",1,1,,,,,,,,,0,3,3,3,0,4,4,1,,,,,,,,,,,,,,,,,,,,,,,,,,,,,,,,,,,,,,,,,,,,,,,,,,,,,,,1691.7413997029998,None,1691.7413997029998,None,1691.7413997029998,None,m,0,1.7130084210002678,1693.276135383001,None,1693.276135383001,None,1693.276135383001,None,1695.0417206309994,None,1695.0417206309994,None,1695.0417206309994,None,1695.0417206309994,None,,,,,,,,,,,,,,,,,,,,,,,,,,,,,,,,,,,,,,,,,,,,001,167,2020_Feb_25_1213,spring_faces,3.1.5,60.12744468903478,
condition files/Stage1_2.xlsx,,B3,T4,m,"['c', 'm']","['Clue', 'Monopoly']","[-0.15, 0.5]","[0.15, 0.5]",1,1,,,,,,,,,0,3,3,3,0,5,5,6,,,,,,,,,,,,,,,,,,,,,,,,,,,,,,,,,,,,,,,,,,,,,,,,,,,,,,,1697.0084311200008,None,1697.0084311200008,None,1697.0084311200008,None,m,1,8.382275058000232,1698.558896126,None,1698.558896126,None,1698.558896126,None,1707.0087420420004,None,1707.0087420420004,None,1707.0087420420004,None,1707.0087420420004,None,,,,,,,,,,,,,,,,,,,,,,,,,,,,,,,,,,,,,,,,,,,,001,167,2020_Feb_25_1213,spring_faces,3.1.5,60.12744468903478,
condition files/Stage1_2.xlsx,,T3,B3,c,"['c', 'm']","['Clue', 'Monopoly']","[-0.15, 0.5]","[0.15, 0.5]",1,1,,,,,,,,,0,3,3,3,0,6,6,4,,,,,,,,,,,,,,,,,,,,,,,,,,,,,,,,,,,,,,,,,,,,,,,,,,,,,,,1708.9585013939995,None,1708.9585013939995,None,1708.9585013939995,None,c,1,2.4009934480000084,1710.4921194769995,None,1710.4921194769995,None,1710.4921194769995,None,1712.9754321990004,None,1712.9754321990004,None,1712.9754321990004,None,1712.9754321990004,None,,,,,,,,,,,,,,,,,,,,,,,,,,,,,,,,,,,,,,,,,,,,001,167,2020_Feb_25_1213,spring_faces,3.1.5,60.12744468903478,
condition files/Stage1_2.xlsx,,B1,T1,c,"['c', 'm']","['Clue', 'Monopoly']","[-0.15, 0.5]","[0.15, 0.5]",1,1,,,,,,,,,0,3,3,3,0,7,7,0,,,,,,,,,,,,,,,,,,,,,,,,,,,,,,,,,,,,,,,,,,,,,,,,,,,,,,,1714.9256739400007,None,1714.9256739400007,None,1714.9256739400007,None,m,0,1.6489686910008459,1716.460157331001,None,1716.460157331001,None,1716.460157331001,None,1718.1752988980006,None,1718.1752988980006,None,1718.1752988980006,None,1718.1752988980006,None,,,,,,,,,,,,,,,,,,,,,,,,,,,,,,,,,,,,,,,,,,,,001,167,2020_Feb_25_1213,spring_faces,3.1.5,60.12744468903478,
condition files/Stage1_1.xlsx,,T1,B1,c,"['c', 'm']","['Clue', 'Monopoly']","[-0.15, 0.5]","[0.15, 0.5]",1,1,,,,,,,,,0,4,4,4,0,0,0,0,,,,,,,,,,,,,,,,,,,,,,,,,,,,,,,,,,,,,,,,,,,,,,,,,,,,,,,1720.158597908001,None,1720.158597908001,None,1720.158597908001,None,c,1,0.8167865670002357,1721.6923196850003,None,1721.6923196850003,None,1721.6923196850003,None,1722.5751234630006,None,1722.5751234630006,None,1722.5751234630006,None,1722.5751234630006,None,,,,,,,,,,,,,,,,,,,,,,,,,,,,,,,,,,,,,,,,,,,,001,167,2020_Feb_25_1213,spring_faces,3.1.5,60.12744468903478,
condition files/Stage1_1.xlsx,,T2,B2,m,"['c', 'm']","['Clue', 'Monopoly']","[-0.15, 0.5]","[0.15, 0.5]",1,1,,,,,,,,,0,4,4,4,0,1,1,3,,,,,,,,,,,,,,,,,,,,,,,,,,,,,,,,,,,,,,,,,,,,,,,,,,,,,,,1724.5409814409995,None,1724.5409814409995,None,1724.5409814409995,None,c,0,2.7214361439982895,1726.0757242830005,None,1726.0757242830005,None,1726.0757242830005,None,1728.860512325,None,1728.860512325,None,1728.860512325,None,1728.860512325,None,,,,,,,,,,,,,,,,,,,,,,,,,,,,,,,,,,,,,,,,,,,,001,167,2020_Feb_25_1213,spring_faces,3.1.5,60.12744468903478,
condition files/Stage1_1.xlsx,,B2,T1,m,"['c', 'm']","['Clue', 'Monopoly']","[-0.15, 0.5]","[0.15, 0.5]",1,1,,,,,,,,,0,4,4,4,0,2,2,2,,,,,,,,,,,,,,,,,,,,,,,,,,,,,,,,,,,,,,,,,,,,,,,,,,,,,,,1730.8255569150006,None,1730.8255569150006,None,1730.8255569150006,None,m,1,1.620776673000364,1732.3603999620009,None,1732.3603999620009,None,1732.3603999620009,None,1734.0418186490006,None,1734.0418186490006,None,1734.0418186490006,None,1734.0418186490006,None,,,,,,,,,,,,,,,,,,,,,,,,,,,,,,,,,,,,,,,,,,,,001,167,2020_Feb_25_1213,spring_faces,3.1.5,60.12744468903478,
condition files/Stage1_1.xlsx,,B4,T4,m,"['c', 'm']","['Clue', 'Monopoly']","[-0.15, 0.5]","[0.15, 0.5]",1,1,,,,,,,,,0,4,4,4,0,3,3,7,,,,,,,,,,,,,,,,,,,,,,,,,,,,,,,,,,,,,,,,,,,,,,,,,,,,,,,1736.0084863890006,None,1736.0084863890006,None,1736.0084863890006,None,m,1,2.1502092399987305,1737.558879170001,None,1737.558879170001,None,1737.558879170001,None,1739.7750073379993,None,1739.7750073379993,None,1739.7750073379993,None,1739.7750073379993,None,,,,,,,,,,,,,,,,,,,,,,,,,,,,,,,,,,,,,,,,,,,,001,167,2020_Feb_25_1213,spring_faces,3.1.5,60.12744468903478,
condition files/Stage1_1.xlsx,,T4,B3,m,"['c', 'm']","['Clue', 'Monopoly']","[-0.15, 0.5]","[0.15, 0.5]",1,1,,,,,,,,,0,4,4,4,0,4,4,6,,,,,,,,,,,,,,,,,,,,,,,,,,,,,,,,,,,,,,,,,,,,,,,,,,,,,,,1741.741916926001,None,1741.741916926001,None,1741.741916926001,None,c,0,1.8417494950008404,1743.275470132001,None,1743.275470132001,None,1743.275470132001,None,1745.1753588989995,None,1745.1753588989995,None,1745.1753588989995,None,1745.1753588989995,None,,,,,,,,,,,,,,,,,,,,,,,,,,,,,,,,,,,,,,,,,,,,001,167,2020_Feb_25_1213,spring_faces,3.1.5,60.12744468903478,
condition files/Stage1_1.xlsx,,T3,B4,c,"['c', 'm']","['Clue', 'Monopoly']","[-0.15, 0.5]","[0.15, 0.5]",1,1,,,,,,,,,0,4,4,4,0,5,5,5,,,,,,,,,,,,,,,,,,,,,,,,,,,,,,,,,,,,,,,,,,,,,,,,,,,,,,,1747.142246644,None,1747.142246644,None,1747.142246644,None,c,1,1.097435621000841,1748.6916955020006,None,1748.6916955020006,None,1748.6916955020006,None,1749.8441575790002,None,1749.8441575790002,None,1749.8441575790002,None,1749.8441575790002,None,,,,,,,,,,,,,,,,,,,,,,,,,,,,,,,,,,,,,,,,,,,,001,167,2020_Feb_25_1213,spring_faces,3.1.5,60.12744468903478,
condition files/Stage1_1.xlsx,,B1,T2,c,"['c', 'm']","['Clue', 'Monopoly']","[-0.15, 0.5]","[0.15, 0.5]",1,1,,,,,,,,,0,4,4,4,0,6,6,1,,,,,,,,,,,,,,,,,,,,,,,,,,,,,,,,,,,,,,,,,,,,,,,,,,,,,,,1751.808605780001,None,1751.808605780001,None,1751.808605780001,None,m,0,3.709957476999989,1753.3431829769997,None,1753.3431829769997,None,1753.3431829769997,None,1757.1084863430005,None,1757.1084863430005,None,1757.1084863430005,None,1757.1084863430005,None,,,,,,,,,,,,,,,,,,,,,,,,,,,,,,,,,,,,,,,,,,,,001,167,2020_Feb_25_1213,spring_faces,3.1.5,60.12744468903478,
condition files/Stage1_1.xlsx,,B3,T3,c,"['c', 'm']","['Clue', 'Monopoly']","[-0.15, 0.5]","[0.15, 0.5]",1,1,,,,,,,,,0,4,4,4,0,7,7,4,,,,,,,,,,,,,,,,,,,,,,,,,,,,,,,,,,,,,,,,,,,,,,,,,,,,,,,1759.0751076720007,None,1759.0751076720007,None,1759.0751076720007,None,m,0,2.764412034999623,1760.6088005679994,None,1760.6088005679994,None,1760.6088005679994,None,1763.425075088,None,1763.425075088,None,1763.425075088,None,1763.425075088,None,,,,,,,,,,,,,,,,,,,,,,,,,,,,,,,,,,,,,,,,,,,,001,167,2020_Feb_25_1213,spring_faces,3.1.5,60.12744468903478,
condition files/Stage1_2.xlsx,,T1,B2,m,"['c', 'm']","['Clue', 'Monopoly']","[-0.15, 0.5]","[0.15, 0.5]",1,1,,,,,,,,,0,5,5,5,0,0,0,2,,,,,,,,,,,,,,,,,,,,,,,,,,,,,,,,,,,,,,,,,,,,,,,,,,,,,,,1765.4085912650007,None,1765.4085912650007,None,1765.4085912650007,None,m,1,9.3433245239994,1766.941899122001,None,1766.941899122001,None,1766.941899122001,None,1776.3440987590002,None,1776.3440987590002,None,1776.3440987590002,None,1776.3440987590002,None,,,,,,,,,,,,,,,,,,,,,,,,,,,,,,,,,,,,,,,,,,,,001,167,2020_Feb_25_1213,spring_faces,3.1.5,60.12744468903478,
condition files/Stage1_2.xlsx,,B4,T3,c,"['c', 'm']","['Clue', 'Monopoly']","[-0.15, 0.5]","[0.15, 0.5]",1,1,,,,,,,,,0,5,5,5,0,1,1,5,,,,,,,,,,,,,,,,,,,,,,,,,,,,,,,,,,,,,,,,,,,,,,,,,,,,,,,1778.3084543879995,None,1778.3084543879995,None,1778.3084543879995,None,c,1,1.4176779959998385,1779.8434971330007,None,1779.8434971330007,None,1779.8434971330007,None,1781.3256366170008,None,1781.3256366170008,None,1781.3256366170008,None,1781.3256366170008,None,,,,,,,,,,,,,,,,,,,,,,,,,,,,,,,,,,,,,,,,,,,,001,167,2020_Feb_25_1213,spring_faces,3.1.5,60.12744468903478,
condition files/Stage1_2.xlsx,,T4,B4,m,"['c', 'm']","['Clue', 'Monopoly']","[-0.15, 0.5]","[0.15, 0.5]",1,1,,,,,,,,,0,5,5,5,0,2,2,7,,,,,,,,,,,,,,,,,,,,,,,,,,,,,,,,,,,,,,,,,,,,,,,,,,,,,,,1783.2918391940002,None,1783.2918391940002,None,1783.2918391940002,None,c,0,2.707414778000384,1784.8417938450002,None,1784.8417938450002,None,1784.8417938450002,None,1787.624676634001,None,1787.624676634001,None,1787.624676634001,None,1787.624676634001,None,,,,,,,,,,,,,,,,,,,,,,,,,,,,,,,,,,,,,,,,,,,,001,167,2020_Feb_25_1213,spring_faces,3.1.5,60.12744468903478,
condition files/Stage1_2.xlsx,,B1,T1,c,"['c', 'm']","['Clue', 'Monopoly']","[-0.15, 0.5]","[0.15, 0.5]",1,1,,,,,,,,,0,5,5,5,0,3,3,0,,,,,,,,,,,,,,,,,,,,,,,,,,,,,,,,,,,,,,,,,,,,,,,,,,,,,,,1789.5752815960004,None,1789.5752815960004,None,1789.5752815960004,None,m,0,3.3038357839996024,1791.1253303890007,None,1791.1253303890007,None,1791.1253303890007,None,1794.4919668910006,None,1794.4919668910006,None,1794.4919668910006,None,1794.4919668910006,None,,,,,,,,,,,,,,,,,,,,,,,,,,,,,,,,,,,,,,,,,,,,001,167,2020_Feb_25_1213,spring_faces,3.1.5,60.12744468903478,
condition files/Stage1_2.xlsx,,B3,T4,m,"['c', 'm']","['Clue', 'Monopoly']","[-0.15, 0.5]","[0.15, 0.5]",1,1,,,,,,,,,0,5,5,5,0,4,4,6,,,,,,,,,,,,,,,,,,,,,,,,,,,,,,,,,,,,,,,,,,,,,,,,,,,,,,,1796.4578848309993,None,1796.4578848309993,None,1796.4578848309993,None,m,1,2.3879157599985774,1797.993262248001,None,1797.993262248001,None,1797.993262248001,None,1800.4416123619994,None,1800.4416123619994,None,1800.4416123619994,None,1800.4416123619994,None,,,,,,,,,,,,,,,,,,,,,,,,,,,,,,,,,,,,,,,,,,,,001,167,2020_Feb_25_1213,spring_faces,3.1.5,60.12744468903478,
condition files/Stage1_2.xlsx,,B2,T2,m,"['c', 'm']","['Clue', 'Monopoly']","[-0.15, 0.5]","[0.15, 0.5]",1,1,,,,,,,,,0,5,5,5,0,5,5,3,,,,,,,,,,,,,,,,,,,,,,,,,,,,,,,,,,,,,,,,,,,,,,,,,,,,,,,1802.4085493090006,None,1802.4085493090006,None,1802.4085493090006,None,m,1,2.3413297119986964,1803.9438354930007,None,1803.9438354930007,None,1803.9438354930007,None,1806.342070615001,None,1806.342070615001,None,1806.342070615001,None,1806.342070615001,None,,,,,,,,,,,,,,,,,,,,,,,,,,,,,,,,,,,,,,,,,,,,001,167,2020_Feb_25_1213,spring_faces,3.1.5,60.12744468903478,
condition files/Stage1_2.xlsx,,T3,B3,c,"['c', 'm']","['Clue', 'Monopoly']","[-0.15, 0.5]","[0.15, 0.5]",1,1,,,,,,,,,0,5,5,5,0,6,6,4,,,,,,,,,,,,,,,,,,,,,,,,,,,,,,,,,,,,,,,,,,,,,,,,,,,,,,,1808.3079489829997,None,1808.3079489829997,None,1808.3079489829997,None,c,1,1.4024552740011131,1809.858712845,None,1809.858712845,None,1809.858712845,None,1811.3420207910003,None,1811.3420207910003,None,1811.3420207910003,None,1811.3420207910003,None,,,,,,,,,,,,,,,,,,,,,,,,,,,,,,,,,,,,,,,,,,,,001,167,2020_Feb_25_1213,spring_faces,3.1.5,60.12744468903478,
condition files/Stage1_2.xlsx,,T2,B1,c,"['c', 'm']","['Clue', 'Monopoly']","[-0.15, 0.5]","[0.15, 0.5]",1,1,,,,,,,,,0,5,5,5,0,7,7,1,,,,,,,,,,,,,,,,,,,,,,,,,,,,,,,,,,,,,,,,,,,,,,,,,,,,,,,1813.291914892001,None,1813.291914892001,None,1813.291914892001,None,c,1,2.227912758999082,1814.825246065,None,1814.825246065,None,1814.825246065,None,1817.1085364030005,None,1817.1085364030005,None,1817.1085364030005,None,1817.1085364030005,None,,,,,,,,,,,,,,,,,,,,,,,,,,,,,,,,,,,,,,,,,,,,001,167,2020_Feb_25_1213,spring_faces,3.1.5,60.12744468903478,
condition files/Stage1_1.xlsx,,B4,T4,m,"['c', 'm']","['Clue', 'Monopoly']","[-0.15, 0.5]","[0.15, 0.5]",1,1,,,,,,,,,0,6,6,6,0,0,0,7,,,,,,,,,,,,,,,,,,,,,,,,,,,,,,,,,,,,,,,,,,,,,,,,,,,,,,,1819.091385400001,None,1819.091385400001,None,1819.091385400001,None,m,1,2.5386190070003067,1820.62654861,None,1820.62654861,None,1820.62654861,None,1823.2420788809995,None,1823.2420788809995,None,1823.2420788809995,None,1823.2420788809995,None,,,,,,,,,,,,,,,,,,,,,,,,,,,,,,,,,,,,,,,,,,,,001,167,2020_Feb_25_1213,spring_faces,3.1.5,60.12744468903478,
condition files/Stage1_1.xlsx,,T3,B4,c,"['c', 'm']","['Clue', 'Monopoly']","[-0.15, 0.5]","[0.15, 0.5]",1,1,,,,,,,,,0,6,6,6,0,1,1,5,,,,,,,,,,,,,,,,,,,,,,,,,,,,,,,,,,,,,,,,,,,,,,,,,,,,,,,1825.191909557001,None,1825.191909557001,None,1825.191909557001,None,c,1,0.9675761179987603,1826.741517382001,None,1826.741517382001,None,1826.741517382001,None,1827.775469352,None,1827.775469352,None,1827.775469352,None,1827.775469352,None,,,,,,,,,,,,,,,,,,,,,,,,,,,,,,,,,,,,,,,,,,,,001,167,2020_Feb_25_1213,spring_faces,3.1.5,60.12744468903478,
condition files/Stage1_1.xlsx,,B1,T2,c,"['c', 'm']","['Clue', 'Monopoly']","[-0.15, 0.5]","[0.15, 0.5]",1,1,,,,,,,,,0,6,6,6,0,2,2,1,,,,,,,,,,,,,,,,,,,,,,,,,,,,,,,,,,,,,,,,,,,,,,,,,,,,,,,1829.7417906240007,None,1829.7417906240007,None,1829.7417906240007,None,c,1,1.6651448289994732,1831.2920198030006,None,1831.2920198030006,None,1831.2920198030006,None,1833.0089856369996,None,1833.0089856369996,None,1833.0089856369996,None,1833.0089856369996,None,,,,,,,,,,,,,,,,,,,,,,,,,,,,,,,,,,,,,,,,,,,,001,167,2020_Feb_25_1213,spring_faces,3.1.5,60.12744468903478,
condition files/Stage1_1.xlsx,,B3,T3,c,"['c', 'm']","['Clue', 'Monopoly']","[-0.15, 0.5]","[0.15, 0.5]",1,1,,,,,,,,,0,6,6,6,0,3,3,4,,,,,,,,,,,,,,,,,,,,,,,,,,,,,,,,,,,,,,,,,,,,,,,,,,,,,,,1834.9751347319998,None,1834.9751347319998,None,1834.9751347319998,None,c,1,0.9918778090013802,1836.5093367179998,None,1836.5093367179998,None,1836.5093367179998,None,1837.558725975001,None,1837.558725975001,None,1837.558725975001,None,1837.558725975001,None,,,,,,,,,,,,,,,,,,,,,,,,,,,,,,,,,,,,,,,,,,,,001,167,2020_Feb_25_1213,spring_faces,3.1.5,60.12744468903478,
condition files/Stage1_1.xlsx,,T1,B1,c,"['c', 'm']","['Clue', 'Monopoly']","[-0.15, 0.5]","[0.15, 0.5]",1,1,,,,,,,,,0,6,6,6,0,4,4,0,,,,,,,,,,,,,,,,,,,,,,,,,,,,,,,,,,,,,,,,,,,,,,,,,,,,,,,1839.5247932809998,None,1839.5247932809998,None,1839.5247932809998,None,c,1,1.2561569699992106,1841.0610603589994,None,1841.0610603589994,None,1841.0610603589994,None,1842.374926933,None,1842.374926933,None,1842.374926933,None,1842.374926933,None,,,,,,,,,,,,,,,,,,,,,,,,,,,,,,,,,,,,,,,,,,,,001,167,2020_Feb_25_1213,spring_faces,3.1.5,60.12744468903478,
condition files/Stage1_1.xlsx,,T4,B3,m,"['c', 'm']","['Clue', 'Monopoly']","[-0.15, 0.5]","[0.15, 0.5]",1,1,,,,,,,,,0,6,6,6,0,5,5,6,,,,,,,,,,,,,,,,,,,,,,,,,,,,,,,,,,,,,,,,,,,,,,,,,,,,,,,1844.341351434001,None,1844.341351434001,None,1844.341351434001,None,m,1,1.37031998600105,1845.8748491299993,None,1845.8748491299993,None,1845.8748491299993,None,1847.310988534,None,1847.310988534,None,1847.310988534,None,1847.310988534,None,,,,,,,,,,,,,,,,,,,,,,,,,,,,,,,,,,,,,,,,,,,,001,167,2020_Feb_25_1213,spring_faces,3.1.5,60.12744468903478,
condition files/Stage1_1.xlsx,,B2,T1,m,"['c', 'm']","['Clue', 'Monopoly']","[-0.15, 0.5]","[0.15, 0.5]",1,1,,,,,,,,,0,6,6,6,0,6,6,2,,,,,,,,,,,,,,,,,,,,,,,,,,,,,,,,,,,,,,,,,,,,,,,,,,,,,,,1849.2754748999996,None,1849.2754748999996,None,1849.2754748999996,None,m,1,3.3803290730011213,1850.8248260149994,None,1850.8248260149994,None,1850.8248260149994,None,1854.2587580170002,None,1854.2587580170002,None,1854.2587580170002,None,1854.2587580170002,None,,,,,,,,,,,,,,,,,,,,,,,,,,,,,,,,,,,,,,,,,,,,001,167,2020_Feb_25_1213,spring_faces,3.1.5,60.12744468903478,
condition files/Stage1_1.xlsx,,T2,B2,m,"['c', 'm']","['Clue', 'Monopoly']","[-0.15, 0.5]","[0.15, 0.5]",1,1,,,,,,,,,0,6,6,6,0,7,7,3,,,,,,,,,,,,,,,,,,,,,,,,,,,,,,,,,,,,,,,,,,,,,,,,,,,,,,,1856.2253043370001,None,1856.2253043370001,None,1856.2253043370001,None,m,1,3.006384372998582,1857.758800265001,None,1857.758800265001,None,1857.758800265001,None,1860.825635098001,None,1860.825635098001,None,1860.825635098001,None,1860.825635098001,None,,,,,,,,,,,,,,,,,,,,,,,,,,,,,,,,,,,,,,,,,,,,001,167,2020_Feb_25_1213,spring_faces,3.1.5,60.12744468903478,
condition files/Stage1_2.xlsx,,B3,T4,m,"['c', 'm']","['Clue', 'Monopoly']","[-0.15, 0.5]","[0.15, 0.5]",1,1,,,,,,,,,0,7,7,7,0,0,0,6,,,,,,,,,,,,,,,,,,,,,,,,,,,,,,,,,,,,,,,,,,,,,,,,,,,,,,,1862.8087452250002,None,1862.8087452250002,None,1862.8087452250002,None,m,1,2.4718038339997292,1864.3413877759995,None,1864.3413877759995,None,1864.3413877759995,None,1866.875186106001,None,1866.875186106001,None,1866.875186106001,None,1866.875186106001,None,,,,,,,,,,,,,,,,,,,,,,,,,,,,,,,,,,,,,,,,,,,,001,167,2020_Feb_25_1213,spring_faces,3.1.5,60.12744468903478,
condition files/Stage1_2.xlsx,,B2,T2,m,"['c', 'm']","['Clue', 'Monopoly']","[-0.15, 0.5]","[0.15, 0.5]",1,1,,,,,,,,,0,7,7,7,0,1,1,3,,,,,,,,,,,,,,,,,,,,,,,,,,,,,,,,,,,,,,,,,,,,,,,,,,,,,,,1868.8419290559996,None,1868.8419290559996,None,1868.8419290559996,None,m,1,1.2382510420011386,1870.374973418,None,1870.374973418,None,1870.374973418,None,1871.6753220339997,None,1871.6753220339997,None,1871.6753220339997,None,1871.6753220339997,None,,,,,,,,,,,,,,,,,,,,,,,,,,,,,,,,,,,,,,,,,,,,001,167,2020_Feb_25_1213,spring_faces,3.1.5,60.12744468903478,
condition files/Stage1_2.xlsx,,B4,T3,c,"['c', 'm']","['Clue', 'Monopoly']","[-0.15, 0.5]","[0.15, 0.5]",1,1,,,,,,,,,0,7,7,7,0,2,2,5,,,,,,,,,,,,,,,,,,,,,,,,,,,,,,,,,,,,,,,,,,,,,,,,,,,,,,,1873.6418745289993,None,1873.6418745289993,None,1873.6418745289993,None,c,1,1.0122770769994531,1875.176872053,None,1875.176872053,None,1875.176872053,None,1876.2580778499996,None,1876.2580778499996,None,1876.2580778499996,None,1876.2580778499996,None,,,,,,,,,,,,,,,,,,,,,,,,,,,,,,,,,,,,,,,,,,,,001,167,2020_Feb_25_1213,spring_faces,3.1.5,60.12744468903478,
condition files/Stage1_2.xlsx,,B1,T1,c,"['c', 'm']","['Clue', 'Monopoly']","[-0.15, 0.5]","[0.15, 0.5]",1,1,,,,,,,,,0,7,7,7,0,3,3,0,,,,,,,,,,,,,,,,,,,,,,,,,,,,,,,,,,,,,,,,,,,,,,,,,,,,,,,1878.2084240799995,None,1878.2084240799995,None,1878.2084240799995,None,c,1,1.5488607010011037,1879.7442440289997,None,1879.7442440289997,None,1879.7442440289997,None,1881.3587012999997,None,1881.3587012999997,None,1881.3587012999997,None,1881.3587012999997,None,,,,,,,,,,,,,,,,,,,,,,,,,,,,,,,,,,,,,,,,,,,,001,167,2020_Feb_25_1213,spring_faces,3.1.5,60.12744468903478,
condition files/Stage1_2.xlsx,,T3,B3,c,"['c', 'm']","['Clue', 'Monopoly']","[-0.15, 0.5]","[0.15, 0.5]",1,1,,,,,,,,,0,7,7,7,0,4,4,4,,,,,,,,,,,,,,,,,,,,,,,,,,,,,,,,,,,,,,,,,,,,,,,,,,,,,,,1883.3252524149993,None,1883.3252524149993,None,1883.3252524149993,None,c,1,0.9940987040008622,1884.8751155570008,None,1884.8751155570008,None,1884.8751155570008,None,1885.9248678210006,None,1885.9248678210006,None,1885.9248678210006,None,1885.9248678210006,None,,,,,,,,,,,,,,,,,,,,,,,,,,,,,,,,,,,,,,,,,,,,001,167,2020_Feb_25_1213,spring_faces,3.1.5,60.12744468903478,
condition files/Stage1_2.xlsx,,T4,B4,m,"['c', 'm']","['Clue', 'Monopoly']","[-0.15, 0.5]","[0.15, 0.5]",1,1,,,,,,,,,0,7,7,7,0,5,5,7,,,,,,,,,,,,,,,,,,,,,,,,,,,,,,,,,,,,,,,,,,,,,,,,,,,,,,,1887.8917715240004,None,1887.8917715240004,None,1887.8917715240004,None,m,1,2.7639840289994027,1889.4251008230003,None,1889.4251008230003,None,1889.4251008230003,None,1892.2441478719993,None,1892.2441478719993,None,1892.2441478719993,None,1892.2441478719993,None,,,,,,,,,,,,,,,,,,,,,,,,,,,,,,,,,,,,,,,,,,,,001,167,2020_Feb_25_1213,spring_faces,3.1.5,60.12744468903478,
condition files/Stage1_2.xlsx,,T2,B1,c,"['c', 'm']","['Clue', 'Monopoly']","[-0.15, 0.5]","[0.15, 0.5]",1,1,,,,,,,,,0,7,7,7,0,6,6,1,,,,,,,,,,,,,,,,,,,,,,,,,,,,,,,,,,,,,,,,,,,,,,,,,,,,,,,1894.2085368730004,None,1894.2085368730004,None,1894.2085368730004,None,c,1,1.325839614999495,1895.7433832349998,None,1895.7433832349998,None,1895.7433832349998,None,1897.1276740539997,None,1897.1276740539997,None,1897.1276740539997,None,1897.1276740539997,None,,,,,,,,,,,,,,,,,,,,,,,,,,,,,,,,,,,,,,,,,,,,001,167,2020_Feb_25_1213,spring_faces,3.1.5,60.12744468903478,
condition files/Stage1_2.xlsx,,T1,B2,m,"['c', 'm']","['Clue', 'Monopoly']","[-0.15, 0.5]","[0.15, 0.5]",1,1,,,,,,,,,0,7,7,7,0,7,7,2,,,,,,,,,,,,,,,,,,,,,,,,,,,,,,,,,,,,,,,,,,,,,,,,,,,,,,,1899.0915041480002,None,1899.0915041480002,None,1899.0915041480002,None,m,1,1.5309047829996416,1900.6262663680009,None,1900.6262663680009,None,1900.6262663680009,None,1902.2102823879995,None,1902.2102823879995,None,1902.2102823879995,None,1902.2102823879995,None,,,,,,,,,,,,,,,,,,,,,,,,,,,,,,,,,,,,,,,,,,,,001,167,2020_Feb_25_1213,spring_faces,3.1.5,60.12744468903478,
condition files/Stage1_1.xlsx,,T2,B2,m,"['c', 'm']","['Clue', 'Monopoly']","[-0.15, 0.5]","[0.15, 0.5]",1,1,,,,,,,,,0,8,8,8,0,0,0,3,,,,,,,,,,,,,,,,,,,,,,,,,,,,,,,,,,,,,,,,,,,,,,,,,,,,,,,1904.1920249619998,None,1904.1920249619998,None,1904.1920249619998,None,m,1,1.4717314859990438,1905.7254522860003,None,1905.7254522860003,None,1905.7254522860003,None,1907.2584500249995,None,1907.2584500249995,None,1907.2584500249995,None,1907.2584500249995,None,,,,,,,,,,,,,,,,,,,,,,,,,,,,,,,,,,,,,,,,,,,,001,167,2020_Feb_25_1213,spring_faces,3.1.5,60.12744468903478,
condition files/Stage1_1.xlsx,,B3,T3,c,"['c', 'm']","['Clue', 'Monopoly']","[-0.15, 0.5]","[0.15, 0.5]",1,1,,,,,,,,,0,8,8,8,0,1,1,4,,,,,,,,,,,,,,,,,,,,,,,,,,,,,,,,,,,,,,,,,,,,,,,,,,,,,,,1909.225126028001,None,1909.225126028001,None,1909.225126028001,None,c,1,1.045238798000355,1910.7599552829997,None,1910.7599552829997,None,1910.7599552829997,None,1911.8608587559993,None,1911.8608587559993,None,1911.8608587559993,None,1911.8608587559993,None,,,,,,,,,,,,,,,,,,,,,,,,,,,,,,,,,,,,,,,,,,,,001,167,2020_Feb_25_1213,spring_faces,3.1.5,60.12744468903478,
condition files/Stage1_1.xlsx,,T4,B3,m,"['c', 'm']","['Clue', 'Monopoly']","[-0.15, 0.5]","[0.15, 0.5]",1,1,,,,,,,,,0,8,8,8,0,2,2,6,,,,,,,,,,,,,,,,,,,,,,,,,,,,,,,,,,,,,,,,,,,,,,,,,,,,,,,1913.8252820340003,None,1913.8252820340003,None,1913.8252820340003,None,m,1,2.4951837370008434,1915.3579773370002,None,1915.3579773370002,None,1915.3579773370002,None,1917.9251961850005,None,1917.9251961850005,None,1917.9251961850005,None,1917.9251961850005,None,,,,,,,,,,,,,,,,,,,,,,,,,,,,,,,,,,,,,,,,,,,,001,167,2020_Feb_25_1213,spring_faces,3.1.5,60.12744468903478,
condition files/Stage1_1.xlsx,,T3,B4,c,"['c', 'm']","['Clue', 'Monopoly']","[-0.15, 0.5]","[0.15, 0.5]",1,1,,,,,,,,,0,8,8,8,0,3,3,5,,,,,,,,,,,,,,,,,,,,,,,,,,,,,,,,,,,,,,,,,,,,,,,,,,,,,,,1919.8751868519994,None,1919.8751868519994,None,1919.8751868519994,None,c,1,0.6994180969995796,1921.4096899329998,None,1921.4096899329998,None,1921.4096899329998,None,1922.1916468010004,None,1922.1916468010004,None,1922.1916468010004,None,1922.1916468010004,None,,,,,,,,,,,,,,,,,,,,,,,,,,,,,,,,,,,,,,,,,,,,001,167,2020_Feb_25_1213,spring_faces,3.1.5,60.12744468903478,
condition files/Stage1_1.xlsx,,B1,T2,c,"['c', 'm']","['Clue', 'Monopoly']","[-0.15, 0.5]","[0.15, 0.5]",1,1,,,,,,,,,0,8,8,8,0,4,4,1,,,,,,,,,,,,,,,,,,,,,,,,,,,,,,,,,,,,,,,,,,,,,,,,,,,,,,,1924.1423082750007,None,1924.1423082750007,None,1924.1423082750007,None,c,1,1.2011279899998044,1925.6919869840003,None,1925.6919869840003,None,1925.6919869840003,None,1926.9591790110007,None,1926.9591790110007,None,1926.9591790110007,None,1926.9591790110007,None,,,,,,,,,,,,,,,,,,,,,,,,,,,,,,,,,,,,,,,,,,,,001,167,2020_Feb_25_1213,spring_faces,3.1.5,60.12744468903478,
condition files/Stage1_1.xlsx,,B2,T1,m,"['c', 'm']","['Clue', 'Monopoly']","[-0.15, 0.5]","[0.15, 0.5]",1,1,,,,,,,,,0,8,8,8,0,5,5,2,,,,,,,,,,,,,,,,,,,,,,,,,,,,,,,,,,,,,,,,,,,,,,,,,,,,,,,1928.9250837670006,None,1928.9250837670006,None,1928.9250837670006,None,m,1,0.8490434100003768,1930.4600870970007,None,1930.4600870970007,None,1930.4600870970007,None,1931.3758000239995,None,1931.3758000239995,None,1931.3758000239995,None,1931.3758000239995,None,,,,,,,,,,,,,,,,,,,,,,,,,,,,,,,,,,,,,,,,,,,,001,167,2020_Feb_25_1213,spring_faces,3.1.5,60.12744468903478,
condition files/Stage1_1.xlsx,,T1,B1,c,"['c', 'm']","['Clue', 'Monopoly']","[-0.15, 0.5]","[0.15, 0.5]",1,1,,,,,,,,,0,8,8,8,0,6,6,0,,,,,,,,,,,,,,,,,,,,,,,,,,,,,,,,,,,,,,,,,,,,,,,,,,,,,,,1933.3421773310001,None,1933.3421773310001,None,1933.3421773310001,None,c,1,4.034040955999444,1934.8750687520005,None,1934.8750687520005,None,1934.8750687520005,None,1938.9748704049998,None,1938.9748704049998,None,1938.9748704049998,None,1938.9748704049998,None,,,,,,,,,,,,,,,,,,,,,,,,,,,,,,,,,,,,,,,,,,,,001,167,2020_Feb_25_1213,spring_faces,3.1.5,60.12744468903478,
condition files/Stage1_1.xlsx,,B4,T4,m,"['c', 'm']","['Clue', 'Monopoly']","[-0.15, 0.5]","[0.15, 0.5]",1,1,,,,,,,,,0,8,8,8,0,7,7,7,,,,,,,,,,,,,,,,,,,,,,,,,,,,,,,,,,,,,,,,,,,,,,,,,,,,,,,1940.941701885,None,1940.941701885,None,1940.941701885,None,m,1,1.2662179420003667,1942.474964686,None,1942.474964686,None,1942.474964686,None,1943.792957732001,None,1943.792957732001,None,1943.792957732001,None,1943.792957732001,None,,,,,,,,,,,,,,,,,,,,,,,,,,,,,,,,,,,,,,,,,,,,001,167,2020_Feb_25_1213,spring_faces,3.1.5,60.12744468903478,
condition files/Stage1_2.xlsx,,B3,T4,m,"['c', 'm']","['Clue', 'Monopoly']","[-0.15, 0.5]","[0.15, 0.5]",1,1,,,,,,,,,0,9,9,9,0,0,0,6,,,,,,,,,,,,,,,,,,,,,,,,,,,,,,,,,,,,,,,,,,,,,,,,,,,,,,,1945.7756195220009,None,1945.7756195220009,None,1945.7756195220009,None,m,1,3.599445320000086,1947.3257372419994,None,1947.3257372419994,None,1947.3257372419994,None,1950.9748066840002,None,1950.9748066840002,None,1950.9748066840002,None,1950.9748066840002,None,,,,,,,,,,,,,,,,,,,,,,,,,,,,,,,,,,,,,,,,,,,,001,167,2020_Feb_25_1213,spring_faces,3.1.5,60.12744468903478,
condition files/Stage1_2.xlsx,,T2,B1,c,"['c', 'm']","['Clue', 'Monopoly']","[-0.15, 0.5]","[0.15, 0.5]",1,1,,,,,,,,,0,9,9,9,0,1,1,1,,,,,,,,,,,,,,,,,,,,,,,,,,,,,,,,,,,,,,,,,,,,,,,,,,,,,,,1952.9415660649993,None,1952.9415660649993,None,1952.9415660649993,None,c,1,1.0893045439988782,1954.475911087,None,1954.475911087,None,1954.475911087,None,1955.627658538,None,1955.627658538,None,1955.627658538,None,1955.627658538,None,,,,,,,,,,,,,,,,,,,,,,,,,,,,,,,,,,,,,,,,,,,,001,167,2020_Feb_25_1213,spring_faces,3.1.5,60.12744468903478,
condition files/Stage1_2.xlsx,,T4,B4,m,"['c', 'm']","['Clue', 'Monopoly']","[-0.15, 0.5]","[0.15, 0.5]",1,1,,,,,,,,,0,9,9,9,0,2,2,7,,,,,,,,,,,,,,,,,,,,,,,,,,,,,,,,,,,,,,,,,,,,,,,,,,,,,,,1957.5910780230006,None,1957.5910780230006,None,1957.5910780230006,None,m,1,1.464113053998517,1959.1250467440004,None,1959.1250467440004,None,1959.1250467440004,None,1960.6582895030006,None,1960.6582895030006,None,1960.6582895030006,None,1960.6582895030006,None,,,,,,,,,,,,,,,,,,,,,,,,,,,,,,,,,,,,,,,,,,,,001,167,2020_Feb_25_1213,spring_faces,3.1.5,60.12744468903478,
condition files/Stage1_2.xlsx,,B1,T1,c,"['c', 'm']","['Clue', 'Monopoly']","[-0.15, 0.5]","[0.15, 0.5]",1,1,,,,,,,,,0,9,9,9,0,3,3,0,,,,,,,,,,,,,,,,,,,,,,,,,,,,,,,,,,,,,,,,,,,,,,,,,,,,,,,1962.6081821940006,None,1962.6081821940006,None,1962.6081821940006,None,c,1,2.0624552060016867,1964.1428708469994,None,1964.1428708469994,None,1964.1428708469994,None,1966.274805555,None,1966.274805555,None,1966.274805555,None,1966.274805555,None,,,,,,,,,,,,,,,,,,,,,,,,,,,,,,,,,,,,,,,,,,,,001,167,2020_Feb_25_1213,spring_faces,3.1.5,60.12744468903478,
condition files/Stage1_2.xlsx,,B2,T2,m,"['c', 'm']","['Clue', 'Monopoly']","[-0.15, 0.5]","[0.15, 0.5]",1,1,,,,,,,,,0,9,9,9,0,4,4,3,,,,,,,,,,,,,,,,,,,,,,,,,,,,,,,,,,,,,,,,,,,,,,,,,,,,,,,1968.2252704679995,None,1968.2252704679995,None,1968.2252704679995,None,m,1,3.4055309550003585,1969.775663458,None,1969.775663458,None,1969.775663458,None,1973.243670920001,None,1973.243670920001,None,1973.243670920001,None,1973.243670920001,None,,,,,,,,,,,,,,,,,,,,,,,,,,,,,,,,,,,,,,,,,,,,001,167,2020_Feb_25_1213,spring_faces,3.1.5,60.12744468903478,
condition files/Stage1_2.xlsx,,T1,B2,m,"['c', 'm']","['Clue', 'Monopoly']","[-0.15, 0.5]","[0.15, 0.5]",1,1,,,,,,,,,0,9,9,9,0,5,5,2,,,,,,,,,,,,,,,,,,,,,,,,,,,,,,,,,,,,,,,,,,,,,,,,,,,,,,,1975.208460107,None,1975.208460107,None,1975.208460107,None,m,1,2.327475787000367,1976.7417537140009,None,1976.7417537140009,None,1976.7417537140009,None,1979.1253611060001,None,1979.1253611060001,None,1979.1253611060001,None,1979.1253611060001,None,,,,,,,,,,,,,,,,,,,,,,,,,,,,,,,,,,,,,,,,,,,,001,167,2020_Feb_25_1213,spring_faces,3.1.5,60.12744468903478,
condition files/Stage1_2.xlsx,,B4,T3,c,"['c', 'm']","['Clue', 'Monopoly']","[-0.15, 0.5]","[0.15, 0.5]",1,1,,,,,,,,,0,9,9,9,0,6,6,5,,,,,,,,,,,,,,,,,,,,,,,,,,,,,,,,,,,,,,,,,,,,,,,,,,,,,,,1981.0911843049998,None,1981.0911843049998,None,1981.0911843049998,None,c,1,2.588508455999545,1982.6246450550007,None,1982.6246450550007,None,1982.6246450550007,None,1985.278132816,None,1985.278132816,None,1985.278132816,None,1985.278132816,None,,,,,,,,,,,,,,,,,,,,,,,,,,,,,,,,,,,,,,,,,,,,001,167,2020_Feb_25_1213,spring_faces,3.1.5,60.12744468903478,
condition files/Stage1_2.xlsx,,T3,B3,c,"['c', 'm']","['Clue', 'Monopoly']","[-0.15, 0.5]","[0.15, 0.5]",1,1,,,,,,,,,0,9,9,9,0,7,7,4,,,,,,,,,,,,,,,,,,,,,,,,,,,,,,,,,,,,,,,,,,,,,,,,,,,,,,,1987.241935004,None,1987.241935004,None,1987.241935004,None,c,1,1.6850175430008676,1988.7921201810004,None,1988.7921201810004,None,1988.7921201810004,None,1990.541728309001,None,1990.541728309001,None,1990.541728309001,None,1990.541728309001,None,,,,,,,,,,,,,,,,,,,,,,,,,,,,,,,,,,,,,,,,,,,,001,167,2020_Feb_25_1213,spring_faces,3.1.5,60.12744468903478,
condition files/Stage1_1.xlsx,,B3,T3,c,"['c', 'm']","['Clue', 'Monopoly']","[-0.15, 0.5]","[0.15, 0.5]",1,1,,,,,,,,,0,10,10,10,0,0,0,4,,,,,,,,,,,,,,,,,,,,,,,,,,,,,,,,,,,,,,,,,,,,,,,,,,,,,,,1992.5253159540007,None,1992.5253159540007,None,1992.5253159540007,None,c,1,1.6657530980010051,1994.059403954001,None,1994.059403954001,None,1994.059403954001,None,1995.7753790940005,None,1995.7753790940005,None,1995.7753790940005,None,1995.7753790940005,None,,,,,,,,,,,,,,,,,,,,,,,,,,,,,,,,,,,,,,,,,,,,001,167,2020_Feb_25_1213,spring_faces,3.1.5,60.12744468903478,
condition files/Stage1_1.xlsx,,T1,B1,c,"['c', 'm']","['Clue', 'Monopoly']","[-0.15, 0.5]","[0.15, 0.5]",1,1,,,,,,,,,0,10,10,10,0,1,1,0,,,,,,,,,,,,,,,,,,,,,,,,,,,,,,,,,,,,,,,,,,,,,,,,,,,,,,,1997.7412051770007,None,1997.7412051770007,None,1997.7412051770007,None,c,1,1.8566074819991627,1999.276619694001,None,1999.276619694001,None,1999.276619694001,None,2001.191888849,None,2001.191888849,None,2001.191888849,None,2001.191888849,None,,,,,,,,,,,,,,,,,,,,,,,,,,,,,,,,,,,,,,,,,,,,001,167,2020_Feb_25_1213,spring_faces,3.1.5,60.12744468903478,
condition files/Stage1_1.xlsx,,B1,T2,c,"['c', 'm']","['Clue', 'Monopoly']","[-0.15, 0.5]","[0.15, 0.5]",1,1,,,,,,,,,0,10,10,10,0,2,2,1,,,,,,,,,,,,,,,,,,,,,,,,,,,,,,,,,,,,,,,,,,,,,,,,,,,,,,,2003.1578325749997,None,2003.1578325749997,None,2003.1578325749997,None,c,1,1.5756509230013762,2004.693582764001,None,2004.693582764001,None,2004.693582764001,None,2006.3258045189996,None,2006.3258045189996,None,2006.3258045189996,None,2006.3258045189996,None,,,,,,,,,,,,,,,,,,,,,,,,,,,,,,,,,,,,,,,,,,,,001,167,2020_Feb_25_1213,spring_faces,3.1.5,60.12744468903478,
condition files/Stage1_1.xlsx,,B2,T1,m,"['c', 'm']","['Clue', 'Monopoly']","[-0.15, 0.5]","[0.15, 0.5]",1,1,,,,,,,,,0,10,10,10,0,3,3,2,,,,,,,,,,,,,,,,,,,,,,,,,,,,,,,,,,,,,,,,,,,,,,,,,,,,,,,2008.2918393340005,None,2008.2918393340005,None,2008.2918393340005,None,m,1,2.1543061889988167,2009.826891390001,None,2009.826891390001,None,2009.826891390001,None,2012.0441128300008,None,2012.0441128300008,None,2012.0441128300008,None,2012.0441128300008,None,,,,,,,,,,,,,,,,,,,,,,,,,,,,,,,,,,,,,,,,,,,,001,167,2020_Feb_25_1213,spring_faces,3.1.5,60.12744468903478,
condition files/Stage1_1.xlsx,,T4,B3,m,"['c', 'm']","['Clue', 'Monopoly']","[-0.15, 0.5]","[0.15, 0.5]",1,1,,,,,,,,,0,10,10,10,0,4,4,6,,,,,,,,,,,,,,,,,,,,,,,,,,,,,,,,,,,,,,,,,,,,,,,,,,,,,,,2014.0081948210009,None,2014.0081948210009,None,2014.0081948210009,None,m,1,1.6080266429999028,2015.541186542001,None,2015.541186542001,None,2015.541186542001,None,2017.2083163629995,None,2017.2083163629995,None,2017.2083163629995,None,2017.2083163629995,None,,,,,,,,,,,,,,,,,,,,,,,,,,,,,,,,,,,,,,,,,,,,001,167,2020_Feb_25_1213,spring_faces,3.1.5,60.12744468903478,
condition files/Stage1_1.xlsx,,T3,B4,c,"['c', 'm']","['Clue', 'Monopoly']","[-0.15, 0.5]","[0.15, 0.5]",1,1,,,,,,,,,0,10,10,10,0,5,5,5,,,,,,,,,,,,,,,,,,,,,,,,,,,,,,,,,,,,,,,,,,,,,,,,,,,,,,,2019.1748089680004,None,2019.1748089680004,None,2019.1748089680004,None,c,1,1.479152483998405,2020.7100050810004,None,2020.7100050810004,None,2020.7100050810004,None,2022.2441356149993,None,2022.2441356149993,None,2022.2441356149993,None,2022.2441356149993,None,,,,,,,,,,,,,,,,,,,,,,,,,,,,,,,,,,,,,,,,,,,,001,167,2020_Feb_25_1213,spring_faces,3.1.5,60.12744468903478,
condition files/Stage1_1.xlsx,,B4,T4,m,"['c', 'm']","['Clue', 'Monopoly']","[-0.15, 0.5]","[0.15, 0.5]",1,1,,,,,,,,,0,10,10,10,0,6,6,7,,,,,,,,,,,,,,,,,,,,,,,,,,,,,,,,,,,,,,,,,,,,,,,,,,,,,,,2024.2085447789996,None,2024.2085447789996,None,2024.2085447789996,None,m,1,1.6136648880001303,2025.7435137800003,None,2025.7435137800003,None,2025.7435137800003,None,2027.4104844390004,None,2027.4104844390004,None,2027.4104844390004,None,2027.4104844390004,None,,,,,,,,,,,,,,,,,,,,,,,,,,,,,,,,,,,,,,,,,,,,001,167,2020_Feb_25_1213,spring_faces,3.1.5,60.12744468903478,
condition files/Stage1_1.xlsx,,T2,B2,m,"['c', 'm']","['Clue', 'Monopoly']","[-0.15, 0.5]","[0.15, 0.5]",1,1,,,,,,,,,0,10,10,10,0,7,7,3,,,,,,,,,,,,,,,,,,,,,,,,,,,,,,,,,,,,,,,,,,,,,,,,,,,,,,,2029.3752063739994,None,2029.3752063739994,None,2029.3752063739994,None,m,1,1.8235434020007233,2030.9256683969998,None,2030.9256683969998,None,2030.9256683969998,None,2032.8091030430005,None,2032.8091030430005,None,2032.8091030430005,None,2032.8091030430005,None,,,,,,,,,,,,,,,,,,,,,,,,,,,,,,,,,,,,,,,,,,,,001,167,2020_Feb_25_1213,spring_faces,3.1.5,60.12744468903478,
condition files/Stage1_2.xlsx,,B2,T2,m,"['c', 'm']","['Clue', 'Monopoly']","[-0.15, 0.5]","[0.15, 0.5]",1,1,,,,,,,,,0,11,11,11,0,0,0,3,,,,,,,,,,,,,,,,,,,,,,,,,,,,,,,,,,,,,,,,,,,,,,,,,,,,,,,2034.791998443001,None,2034.791998443001,None,2034.791998443001,None,m,1,2.4380578660002357,2036.327170724,None,2036.327170724,None,2036.327170724,None,2038.825217040001,None,2038.825217040001,None,2038.825217040001,None,2038.825217040001,None,,,,,,,,,,,,,,,,,,,,,,,,,,,,,,,,,,,,,,,,,,,,001,167,2020_Feb_25_1213,spring_faces,3.1.5,60.12744468903478,
condition files/Stage1_2.xlsx,,B4,T3,c,"['c', 'm']","['Clue', 'Monopoly']","[-0.15, 0.5]","[0.15, 0.5]",1,1,,,,,,,,,0,11,11,11,0,1,1,5,,,,,,,,,,,,,,,,,,,,,,,,,,,,,,,,,,,,,,,,,,,,,,,,,,,,,,,2040.792255489001,None,2040.792255489001,None,2040.792255489001,None,c,1,2.791329163001137,2042.3418881760008,None,2042.3418881760008,None,2042.3418881760008,None,2045.2088668630004,None,2045.2088668630004,None,2045.2088668630004,None,2045.2088668630004,None,,,,,,,,,,,,,,,,,,,,,,,,,,,,,,,,,,,,,,,,,,,,001,167,2020_Feb_25_1213,spring_faces,3.1.5,60.12744468903478,
condition files/Stage1_2.xlsx,,T4,B4,m,"['c', 'm']","['Clue', 'Monopoly']","[-0.15, 0.5]","[0.15, 0.5]",1,1,,,,,,,,,0,11,11,11,0,2,2,7,,,,,,,,,,,,,,,,,,,,,,,,,,,,,,,,,,,,,,,,,,,,,,,,,,,,,,,2047.1585198720004,None,2047.1585198720004,None,2047.1585198720004,None,m,1,1.2391232420013694,2048.694088671,None,2048.694088671,None,2048.694088671,None,2050.0089006569997,None,2050.0089006569997,None,2050.0089006569997,None,2050.0089006569997,None,,,,,,,,,,,,,,,,,,,,,,,,,,,,,,,,,,,,,,,,,,,,001,167,2020_Feb_25_1213,spring_faces,3.1.5,60.12744468903478,
condition files/Stage1_2.xlsx,,B3,T4,m,"['c', 'm']","['Clue', 'Monopoly']","[-0.15, 0.5]","[0.15, 0.5]",1,1,,,,,,,,,0,11,11,11,0,3,3,6,,,,,,,,,,,,,,,,,,,,,,,,,,,,,,,,,,,,,,,,,,,,,,,,,,,,,,,2051.958483730001,None,2051.958483730001,None,2051.958483730001,None,m,1,0.9047120510003879,2053.492474148001,None,2053.492474148001,None,2053.492474148001,None,2054.4580625420003,None,2054.4580625420003,None,2054.4580625420003,None,2054.4580625420003,None,,,,,,,,,,,,,,,,,,,,,,,,,,,,,,,,,,,,,,,,,,,,001,167,2020_Feb_25_1213,spring_faces,3.1.5,60.12744468903478,
condition files/Stage1_2.xlsx,,T3,B3,c,"['c', 'm']","['Clue', 'Monopoly']","[-0.15, 0.5]","[0.15, 0.5]",1,1,,,,,,,,,0,11,11,11,0,4,4,4,,,,,,,,,,,,,,,,,,,,,,,,,,,,,,,,,,,,,,,,,,,,,,,,,,,,,,,2056.42515302,None,2056.42515302,None,2056.42515302,None,c,1,2.0690845859990077,2057.9601031090006,None,2057.9601031090006,None,2057.9601031090006,None,2060.094517787,None,2060.094517787,None,2060.094517787,None,2060.094517787,None,,,,,,,,,,,,,,,,,,,,,,,,,,,,,,,,,,,,,,,,,,,,001,167,2020_Feb_25_1213,spring_faces,3.1.5,60.12744468903478,
condition files/Stage1_2.xlsx,,B1,T1,c,"['c', 'm']","['Clue', 'Monopoly']","[-0.15, 0.5]","[0.15, 0.5]",1,1,,,,,,,,,0,11,11,11,0,5,5,0,,,,,,,,,,,,,,,,,,,,,,,,,,,,,,,,,,,,,,,,,,,,,,,,,,,,,,,2062.058076106001,None,2062.058076106001,None,2062.058076106001,None,c,1,2.3095473850007693,2063.5916798649996,None,2063.5916798649996,None,2063.5916798649996,None,2065.9580736610005,None,2065.9580736610005,None,2065.9580736610005,None,2065.9580736610005,None,,,,,,,,,,,,,,,,,,,,,,,,,,,,,,,,,,,,,,,,,,,,001,167,2020_Feb_25_1213,spring_faces,3.1.5,60.12744468903478,
condition files/Stage1_2.xlsx,,T2,B1,c,"['c', 'm']","['Clue', 'Monopoly']","[-0.15, 0.5]","[0.15, 0.5]",1,1,,,,,,,,,0,11,11,11,0,6,6,1,,,,,,,,,,,,,,,,,,,,,,,,,,,,,,,,,,,,,,,,,,,,,,,,,,,,,,,2067.9251726519997,None,2067.9251726519997,None,2067.9251726519997,None,c,1,1.3548473779992491,2069.4583333320006,None,2069.4583333320006,None,2069.4583333320006,None,2070.8750468769995,None,2070.8750468769995,None,2070.8750468769995,None,2070.8750468769995,None,,,,,,,,,,,,,,,,,,,,,,,,,,,,,,,,,,,,,,,,,,,,001,167,2020_Feb_25_1213,spring_faces,3.1.5,60.12744468903478,
condition files/Stage1_2.xlsx,,T1,B2,m,"['c', 'm']","['Clue', 'Monopoly']","[-0.15, 0.5]","[0.15, 0.5]",1,1,,,,,,,,,0,11,11,11,0,7,7,2,,,,,,,,,,,,,,,,,,,,,,,,,,,,,,,,,,,,,,,,,,,,,,,,,,,,,,,2072.841919562001,None,2072.841919562001,None,2072.841919562001,None,m,1,1.1727171710008406,2074.3765039150003,None,2074.3765039150003,None,2074.3765039150003,None,2075.6106512469996,None,2075.6106512469996,None,2075.6106512469996,None,2075.6106512469996,None,,,,,,,,,,,,,,,,,,,,,,,,,,,,,,,,,,,,,,,,,,,,001,167,2020_Feb_25_1213,spring_faces,3.1.5,60.12744468903478,
,,,,,,,,,,,,,,,,,,,,,,,,,,,,,,,,,,,,,,,,,,,,,,,,,,,,,,,,,,,,,,,,,,,,,,,,,,,,,,,,,,,,,,,,,,,,,,,,,,,,,,,,,,,,,,,,2077.5918285730004,None,space,6.109407727000871,2082.591824645,None,,,,,,,,,,,,,,,,,,,,,,,,,,,,,,001,167,2020_Feb_25_1213,spring_faces,3.1.5,60.12744468903478,
condition files/Stage2_1.xlsx,,B4,T4,r,"['s', 'r']","['Stratego', 'Risk']","[-0.15, 0.5]","[0.15, 0.5]",1,1,,,,,,,,,,,,,,,,,0,0,0,0,0,0,0,5,,,,,,,,,,,,,,,,,,,,,,,,,,,,,,,,,,,,,,,,,,,,,,,2088.7581841789997,None,2088.7581841789997,None,2088.7581841789997,None,s,0,3.370110872998339,2090.275083808001,None,2090.275083808001,None,2090.275083808001,None,2093.709313538,None,2093.709313538,None,2093.709313538,None,2093.709313538,None,,,,,,,,,,,,,,,2082.591824645,None,,,,,,,,,,,,,,,,,,,,,,,,,,,,001,167,2020_Feb_25_1213,spring_faces,3.1.5,60.12744468903478,
condition files/Stage2_1.xlsx,,B6,T6,r,"['s', 'r']","['Stratego', 'Risk']","[-0.15, 0.5]","[0.15, 0.5]",1,1,,,,,,,,,,,,,,,,,0,0,0,0,0,1,1,1,,,,,,,,,,,,,,,,,,,,,,,,,,,,,,,,,,,,,,,,,,,,,,,2095.6748605760004,None,2095.6748605760004,None,2095.6748605760004,None,s,0,3.429010109999581,2097.2080992150004,None,2097.2080992150004,None,2097.2080992150004,None,2100.692055087,None,2100.692055087,None,2100.692055087,None,2100.692055087,None,,,,,,,,,,,,,,,,,,,,,,,,,,,,,,,,,,,,,,,,,,,,001,167,2020_Feb_25_1213,spring_faces,3.1.5,60.12744468903478,
condition files/Stage2_1.xlsx,,T5,B5,s,"['s', 'r']","['Stratego', 'Risk']","[-0.15, 0.5]","[0.15, 0.5]",1,1,,,,,,,,,,,,,,,,,0,0,0,0,0,2,2,0,,,,,,,,,,,,,,,,,,,,,,,,,,,,,,,,,,,,,,,,,,,,,,,2102.658308477001,None,2102.658308477001,None,2102.658308477001,None,s,1,2.3949537219996273,2104.242181218,None,2104.242181218,None,2104.242181218,None,2106.6939155500004,None,2106.6939155500004,None,2106.6939155500004,None,2106.6939155500004,None,,,,,,,,,,,,,,,,,,,,,,,,,,,,,,,,,,,,,,,,,,,,001,167,2020_Feb_25_1213,spring_faces,3.1.5,60.12744468903478,
condition files/Stage2_1.xlsx,,T3,B3,s,"['s', 'r']","['Stratego', 'Risk']","[-0.15, 0.5]","[0.15, 0.5]",1,1,,,,,,,,,,,,,,,,,0,0,0,0,0,3,3,4,,,,,,,,,,,,,,,,,,,,,,,,,,,,,,,,,,,,,,,,,,,,,,,2108.6585591250005,None,2108.6585591250005,None,2108.6585591250005,None,r,0,1.8510850820002815,2110.1940965800004,None,2110.1940965800004,None,2110.1940965800004,None,2112.108310425001,None,2112.108310425001,None,2112.108310425001,None,2112.108310425001,None,,,,,,,,,,,,,,,,,,,,,,,,,,,,,,,,,,,,,,,,,,,,001,167,2020_Feb_25_1213,spring_faces,3.1.5,60.12744468903478,
condition files/Stage2_1.xlsx,,T1,B1,s,"['s', 'r']","['Stratego', 'Risk']","[-0.15, 0.5]","[0.15, 0.5]",1,1,,,,,,,,,,,,,,,,,0,0,0,0,0,4,4,2,,,,,,,,,,,,,,,,,,,,,,,,,,,,,,,,,,,,,,,,,,,,,,,2114.075057012,None,2114.075057012,None,2114.075057012,None,s,1,1.6045110479990399,2115.6086770759994,None,2115.6086770759994,None,2115.6086770759994,None,2117.275457033,None,2117.275457033,None,2117.275457033,None,2117.275457033,None,,,,,,,,,,,,,,,,,,,,,,,,,,,,,,,,,,,,,,,,,,,,001,167,2020_Feb_25_1213,spring_faces,3.1.5,60.12744468903478,
condition files/Stage2_1.xlsx,,B2,T2,r,"['s', 'r']","['Stratego', 'Risk']","[-0.15, 0.5]","[0.15, 0.5]",1,1,,,,,,,,,,,,,,,,,0,0,0,0,0,5,5,3,,,,,,,,,,,,,,,,,,,,,,,,,,,,,,,,,,,,,,,,,,,,,,,2119.2418245030003,None,2119.2418245030003,None,2119.2418245030003,None,r,1,3.6702405070009263,2120.774952324,None,2120.774952324,None,2120.774952324,None,2124.510894848001,None,2124.510894848001,None,2124.510894848001,None,2124.510894848001,None,,,,,,,,,,,,,,,,,,,,,,,,,,,,,,,,,,,,,,,,,,,,001,167,2020_Feb_25_1213,spring_faces,3.1.5,60.12744468903478,
condition files/Stage2_2.xlsx,,T6,B6,r,"['s', 'r']","['Stratego', 'Risk']","[-0.15, 0.5]","[0.15, 0.5]",1,1,,,,,,,,,,,,,,,,,0,1,1,1,0,0,0,1,,,,,,,,,,,,,,,,,,,,,,,,,,,,,,,,,,,,,,,,,,,,,,,2126.492076742001,None,2126.492076742001,None,2126.492076742001,None,r,1,3.8277279300000373,2128.025417101,None,2128.025417101,None,2128.025417101,None,2131.9087823669997,None,2131.9087823669997,None,2131.9087823669997,None,2131.9087823669997,None,,,,,,,,,,,,,,,,,,,,,,,,,,,,,,,,,,,,,,,,,,,,001,167,2020_Feb_25_1213,spring_faces,3.1.5,60.12744468903478,
condition files/Stage2_2.xlsx,,T4,B4,r,"['s', 'r']","['Stratego', 'Risk']","[-0.15, 0.5]","[0.15, 0.5]",1,1,,,,,,,,,,,,,,,,,0,1,1,1,0,1,1,5,,,,,,,,,,,,,,,,,,,,,,,,,,,,,,,,,,,,,,,,,,,,,,,2133.8751322669996,None,2133.8751322669996,None,2133.8751322669996,None,r,1,1.7883109939994029,2135.4088997380004,None,2135.4088997380004,None,2135.4088997380004,None,2137.258549319,None,2137.258549319,None,2137.258549319,None,2137.258549319,None,,,,,,,,,,,,,,,,,,,,,,,,,,,,,,,,,,,,,,,,,,,,001,167,2020_Feb_25_1213,spring_faces,3.1.5,60.12744468903478,
condition files/Stage2_2.xlsx,,B3,T3,s,"['s', 'r']","['Stratego', 'Risk']","[-0.15, 0.5]","[0.15, 0.5]",1,1,,,,,,,,,,,,,,,,,0,1,1,1,0,2,2,4,,,,,,,,,,,,,,,,,,,,,,,,,,,,,,,,,,,,,,,,,,,,,,,2139.2250322990003,None,2139.2250322990003,None,2139.2250322990003,None,s,1,0.9814626349998434,2140.759727318,None,2140.759727318,None,2140.759727318,None,2141.8084644009996,None,2141.8084644009996,None,2141.8084644009996,None,2141.8084644009996,None,,,,,,,,,,,,,,,,,,,,,,,,,,,,,,,,,,,,,,,,,,,,001,167,2020_Feb_25_1213,spring_faces,3.1.5,60.12744468903478,
condition files/Stage2_2.xlsx,,T2,B2,r,"['s', 'r']","['Stratego', 'Risk']","[-0.15, 0.5]","[0.15, 0.5]",1,1,,,,,,,,,,,,,,,,,0,1,1,1,0,3,3,3,,,,,,,,,,,,,,,,,,,,,,,,,,,,,,,,,,,,,,,,,,,,,,,2143.758414119,None,2143.758414119,None,2143.758414119,None,r,1,1.856780306001383,2145.2924447740006,None,2145.2924447740006,None,2145.2924447740006,None,2147.224822874001,None,2147.224822874001,None,2147.224822874001,None,2147.224822874001,None,,,,,,,,,,,,,,,,,,,,,,,,,,,,,,,,,,,,,,,,,,,,001,167,2020_Feb_25_1213,spring_faces,3.1.5,60.12744468903478,
condition files/Stage2_2.xlsx,,B5,T5,s,"['s', 'r']","['Stratego', 'Risk']","[-0.15, 0.5]","[0.15, 0.5]",1,1,,,,,,,,,,,,,,,,,0,1,1,1,0,4,4,0,,,,,,,,,,,,,,,,,,,,,,,,,,,,,,,,,,,,,,,,,,,,,,,2149.1751398020006,None,2149.1751398020006,None,2149.1751398020006,None,r,0,2.472153291999348,2150.7250177290007,None,2150.7250177290007,None,2150.7250177290007,None,2153.259329744,None,2153.259329744,None,2153.259329744,None,2153.259329744,None,,,,,,,,,,,,,,,,,,,,,,,,,,,,,,,,,,,,,,,,,,,,001,167,2020_Feb_25_1213,spring_faces,3.1.5,60.12744468903478,
condition files/Stage2_2.xlsx,,B1,T1,s,"['s', 'r']","['Stratego', 'Risk']","[-0.15, 0.5]","[0.15, 0.5]",1,1,,,,,,,,,,,,,,,,,0,1,1,1,0,5,5,2,,,,,,,,,,,,,,,,,,,,,,,,,,,,,,,,,,,,,,,,,,,,,,,2155.2248866770005,None,2155.2248866770005,None,2155.2248866770005,None,s,1,1.0616463120004482,2156.775506328,None,2156.775506328,None,2156.775506328,None,2157.891524556,None,2157.891524556,None,2157.891524556,None,2157.891524556,None,,,,,,,,,,,,,,,,,,,,,,,,,,,,,,,,,,,,,,,,,,,,001,167,2020_Feb_25_1213,spring_faces,3.1.5,60.12744468903478,
condition files/Stage2_1.xlsx,,T3,B3,s,"['s', 'r']","['Stratego', 'Risk']","[-0.15, 0.5]","[0.15, 0.5]",1,1,,,,,,,,,,,,,,,,,0,2,2,2,0,0,0,4,,,,,,,,,,,,,,,,,,,,,,,,,,,,,,,,,,,,,,,,,,,,,,,2159.875340742001,None,2159.875340742001,None,2159.875340742001,None,s,1,1.4671379200008232,2161.4100358649994,None,2161.4100358649994,None,2161.4100358649994,None,2162.942102115001,None,2162.942102115001,None,2162.942102115001,None,2162.942102115001,None,,,,,,,,,,,,,,,,,,,,,,,,,,,,,,,,,,,,,,,,,,,,001,167,2020_Feb_25_1213,spring_faces,3.1.5,60.12744468903478,
condition files/Stage2_1.xlsx,,B4,T4,r,"['s', 'r']","['Stratego', 'Risk']","[-0.15, 0.5]","[0.15, 0.5]",1,1,,,,,,,,,,,,,,,,,0,2,2,2,0,1,1,5,,,,,,,,,,,,,,,,,,,,,,,,,,,,,,,,,,,,,,,,,,,,,,,2164.9084683029996,None,2164.9084683029996,None,2164.9084683029996,None,r,1,1.1231573059994844,2166.442064572,None,2166.442064572,None,2166.442064572,None,2167.628146989,None,2167.628146989,None,2167.628146989,None,2167.628146989,None,,,,,,,,,,,,,,,,,,,,,,,,,,,,,,,,,,,,,,,,,,,,001,167,2020_Feb_25_1213,spring_faces,3.1.5,60.12744468903478,
condition files/Stage2_1.xlsx,,T1,B1,s,"['s', 'r']","['Stratego', 'Risk']","[-0.15, 0.5]","[0.15, 0.5]",1,1,,,,,,,,,,,,,,,,,0,2,2,2,0,2,2,2,,,,,,,,,,,,,,,,,,,,,,,,,,,,,,,,,,,,,,,,,,,,,,,2169.5917799849994,None,2169.5917799849994,None,2169.5917799849994,None,s,1,1.1907642209989717,2171.1264641649996,None,2171.1264641649996,None,2171.1264641649996,None,2172.378098270001,None,2172.378098270001,None,2172.378098270001,None,2172.378098270001,None,,,,,,,,,,,,,,,,,,,,,,,,,,,,,,,,,,,,,,,,,,,,001,167,2020_Feb_25_1213,spring_faces,3.1.5,60.12744468903478,
condition files/Stage2_1.xlsx,,T5,B5,s,"['s', 'r']","['Stratego', 'Risk']","[-0.15, 0.5]","[0.15, 0.5]",1,1,,,,,,,,,,,,,,,,,0,2,2,2,0,3,3,0,,,,,,,,,,,,,,,,,,,,,,,,,,,,,,,,,,,,,,,,,,,,,,,2174.3417451620007,None,2174.3417451620007,None,2174.3417451620007,None,s,1,1.5931876389986428,2175.8760417129997,None,2175.8760417129997,None,2175.8760417129997,None,2177.525255253,None,2177.525255253,None,2177.525255253,None,2177.525255253,None,,,,,,,,,,,,,,,,,,,,,,,,,,,,,,,,,,,,,,,,,,,,001,167,2020_Feb_25_1213,spring_faces,3.1.5,60.12744468903478,
condition files/Stage2_1.xlsx,,B6,T6,r,"['s', 'r']","['Stratego', 'Risk']","[-0.15, 0.5]","[0.15, 0.5]",1,1,,,,,,,,,,,,,,,,,0,2,2,2,0,4,4,1,,,,,,,,,,,,,,,,,,,,,,,,,,,,,,,,,,,,,,,,,,,,,,,2179.491922804,None,2179.491922804,None,2179.491922804,None,r,1,1.1620919609995326,2181.0270628609996,None,2181.0270628609996,None,2181.0270628609996,None,2182.2434385100005,None,2182.2434385100005,None,2182.2434385100005,None,2182.2434385100005,None,,,,,,,,,,,,,,,,,,,,,,,,,,,,,,,,,,,,,,,,,,,,001,167,2020_Feb_25_1213,spring_faces,3.1.5,60.12744468903478,
condition files/Stage2_1.xlsx,,B2,T2,r,"['s', 'r']","['Stratego', 'Risk']","[-0.15, 0.5]","[0.15, 0.5]",1,1,,,,,,,,,,,,,,,,,0,2,2,2,0,5,5,3,,,,,,,,,,,,,,,,,,,,,,,,,,,,,,,,,,,,,,,,,,,,,,,2184.208491652,None,2184.208491652,None,2184.208491652,None,r,1,1.2303340190010204,2185.742841161,None,2185.742841161,None,2185.742841161,None,2187.025392613001,None,2187.025392613001,None,2187.025392613001,None,2187.025392613001,None,,,,,,,,,,,,,,,,,,,,,,,,,,,,,,,,,,,,,,,,,,,,001,167,2020_Feb_25_1213,spring_faces,3.1.5,60.12744468903478,
condition files/Stage2_2.xlsx,,T6,B6,r,"['s', 'r']","['Stratego', 'Risk']","[-0.15, 0.5]","[0.15, 0.5]",1,1,,,,,,,,,,,,,,,,,0,3,3,3,0,0,0,1,,,,,,,,,,,,,,,,,,,,,,,,,,,,,,,,,,,,,,,,,,,,,,,2189.0086734239994,None,2189.0086734239994,None,2189.0086734239994,None,r,1,1.4395139630014455,2190.5416790790005,None,2190.5416790790005,None,2190.5416790790005,None,2192.041677469,None,2192.041677469,None,2192.041677469,None,2192.041677469,None,,,,,,,,,,,,,,,,,,,,,,,,,,,,,,,,,,,,,,,,,,,,001,167,2020_Feb_25_1213,spring_faces,3.1.5,60.12744468903478,
condition files/Stage2_2.xlsx,,B3,T3,s,"['s', 'r']","['Stratego', 'Risk']","[-0.15, 0.5]","[0.15, 0.5]",1,1,,,,,,,,,,,,,,,,,0,3,3,3,0,1,1,4,,,,,,,,,,,,,,,,,,,,,,,,,,,,,,,,,,,,,,,,,,,,,,,2194.008118412001,None,2194.008118412001,None,2194.008118412001,None,s,1,1.0934732869991421,2195.5437110469993,None,2195.5437110469993,None,2195.5437110469993,None,2196.708684952,None,2196.708684952,None,2196.708684952,None,2196.708684952,None,,,,,,,,,,,,,,,,,,,,,,,,,,,,,,,,,,,,,,,,,,,,001,167,2020_Feb_25_1213,spring_faces,3.1.5,60.12744468903478,
condition files/Stage2_2.xlsx,,T2,B2,r,"['s', 'r']","['Stratego', 'Risk']","[-0.15, 0.5]","[0.15, 0.5]",1,1,,,,,,,,,,,,,,,,,0,3,3,3,0,2,2,3,,,,,,,,,,,,,,,,,,,,,,,,,,,,,,,,,,,,,,,,,,,,,,,2198.6578326979998,None,2198.6578326979998,None,2198.6578326979998,None,r,1,1.147680598000079,2200.193488942001,None,2200.193488942001,None,2200.193488942001,None,2201.4086283630004,None,2201.4086283630004,None,2201.4086283630004,None,2201.4086283630004,None,,,,,,,,,,,,,,,,,,,,,,,,,,,,,,,,,,,,,,,,,,,,001,167,2020_Feb_25_1213,spring_faces,3.1.5,60.12744468903478,
condition files/Stage2_2.xlsx,,T4,B4,r,"['s', 'r']","['Stratego', 'Risk']","[-0.15, 0.5]","[0.15, 0.5]",1,1,,,,,,,,,,,,,,,,,0,3,3,3,0,3,3,5,,,,,,,,,,,,,,,,,,,,,,,,,,,,,,,,,,,,,,,,,,,,,,,2203.35816163,None,2203.35816163,None,2203.35816163,None,r,1,3.887031621999995,2204.894157838,None,2204.894157838,None,2204.894157838,None,2208.8421939180007,None,2208.8421939180007,None,2208.8421939180007,None,2208.8421939180007,None,,,,,,,,,,,,,,,,,,,,,,,,,,,,,,,,,,,,,,,,,,,,001,167,2020_Feb_25_1213,spring_faces,3.1.5,60.12744468903478,
condition files/Stage2_2.xlsx,,B1,T1,s,"['s', 'r']","['Stratego', 'Risk']","[-0.15, 0.5]","[0.15, 0.5]",1,1,,,,,,,,,,,,,,,,,0,3,3,3,0,4,4,2,,,,,,,,,,,,,,,,,,,,,,,,,,,,,,,,,,,,,,,,,,,,,,,2210.808328203,None,2210.808328203,None,2210.808328203,None,s,1,0.8864043800003856,2212.3427878990005,None,2212.3427878990005,None,2212.3427878990005,None,2213.2937254900007,None,2213.2937254900007,None,2213.2937254900007,None,2213.2937254900007,None,,,,,,,,,,,,,,,,,,,,,,,,,,,,,,,,,,,,,,,,,,,,001,167,2020_Feb_25_1213,spring_faces,3.1.5,60.12744468903478,
condition files/Stage2_2.xlsx,,B5,T5,s,"['s', 'r']","['Stratego', 'Risk']","[-0.15, 0.5]","[0.15, 0.5]",1,1,,,,,,,,,,,,,,,,,0,3,3,3,0,5,5,0,,,,,,,,,,,,,,,,,,,,,,,,,,,,,,,,,,,,,,,,,,,,,,,2215.2583459920006,None,2215.2583459920006,None,2215.2583459920006,None,s,1,1.380399629000749,2216.808740243001,None,2216.808740243001,None,2216.808740243001,None,2218.2421249929994,None,2218.2421249929994,None,2218.2421249929994,None,2218.2421249929994,None,,,,,,,,,,,,,,,,,,,,,,,,,,,,,,,,,,,,,,,,,,,,001,167,2020_Feb_25_1213,spring_faces,3.1.5,60.12744468903478,
condition files/Stage2_1.xlsx,,B2,T2,r,"['s', 'r']","['Stratego', 'Risk']","[-0.15, 0.5]","[0.15, 0.5]",1,1,,,,,,,,,,,,,,,,,0,4,4,4,0,0,0,3,,,,,,,,,,,,,,,,,,,,,,,,,,,,,,,,,,,,,,,,,,,,,,,2220.2254152820005,None,2220.2254152820005,None,2220.2254152820005,None,r,1,2.71768344100019,2221.7754412369995,None,2221.7754412369995,None,2221.7754412369995,None,2224.57470422,None,2224.57470422,None,2224.57470422,None,2224.57470422,None,,,,,,,,,,,,,,,,,,,,,,,,,,,,,,,,,,,,,,,,,,,,001,167,2020_Feb_25_1213,spring_faces,3.1.5,60.12744468903478,
condition files/Stage2_1.xlsx,,B6,T6,r,"['s', 'r']","['Stratego', 'Risk']","[-0.15, 0.5]","[0.15, 0.5]",1,1,,,,,,,,,,,,,,,,,0,4,4,4,0,1,1,1,,,,,,,,,,,,,,,,,,,,,,,,,,,,,,,,,,,,,,,,,,,,,,,2226.524886239,None,2226.524886239,None,2226.524886239,None,r,1,1.4731095589995675,2228.060107964,None,2228.060107964,None,2228.060107964,None,2229.591849998,None,2229.591849998,None,2229.591849998,None,2229.591849998,None,,,,,,,,,,,,,,,,,,,,,,,,,,,,,,,,,,,,,,,,,,,,001,167,2020_Feb_25_1213,spring_faces,3.1.5,60.12744468903478,
condition files/Stage2_1.xlsx,,B4,T4,r,"['s', 'r']","['Stratego', 'Risk']","[-0.15, 0.5]","[0.15, 0.5]",1,1,,,,,,,,,,,,,,,,,0,4,4,4,0,2,2,5,,,,,,,,,,,,,,,,,,,,,,,,,,,,,,,,,,,,,,,,,,,,,,,2231.558436149,None,2231.558436149,None,2231.558436149,None,r,1,2.887178491000668,2233.0940274250006,None,2233.0940274250006,None,2233.0940274250006,None,2236.0419331329995,None,2236.0419331329995,None,2236.0419331329995,None,2236.0419331329995,None,,,,,,,,,,,,,,,,,,,,,,,,,,,,,,,,,,,,,,,,,,,,001,167,2020_Feb_25_1213,spring_faces,3.1.5,60.12744468903478,
