condsFile,subStage,cue1,cue2,correct,responseKeys,responseNames,cue1Position,cue2Position,cue1Opacity,cue2Opacity,stageLoop0.thisRepN,stageLoop0.thisTrialN,stageLoop0.thisN,stageLoop0.thisIndex,blockLoop0.thisRepN,blockLoop0.thisTrialN,blockLoop0.thisN,blockLoop0.thisIndex,stage1Loop.thisRepN,stage1Loop.thisTrialN,stage1Loop.thisN,stage1Loop.thisIndex,blockLoop1.thisRepN,blockLoop1.thisTrialN,blockLoop1.thisN,blockLoop1.thisIndex,stage2Loop.thisRepN,stage2Loop.thisTrialN,stage2Loop.thisN,stage2Loop.thisIndex,blockLoop2.thisRepN,blockLoop2.thisTrialN,blockLoop2.thisN,blockLoop2.thisIndex,testLoop.thisRepN,testLoop.thisTrialN,testLoop.thisN,testLoop.thisIndex,blockLoopTest.thisRepN,blockLoopTest.thisTrialN,blockLoopTest.thisN,blockLoopTest.thisIndex,cuePics,id_instr_text.started,id_instr_text.stopped,space_to_continue_2.started,space_to_continue_2.stopped,end_instructions_resp_3.keys,end_instructions_resp_3.rt,end_instructions_resp_3.started,end_instructions_resp_3.stopped,id_input_instr.started,id_input_instr.stopped,id_input_rect.started,id_input_rect.stopped,id_input_resp.keys,id_input_resp.rt,id_input_resp.started,id_input_resp.stopped,sonaID,id_input_text.started,id_input_text.stopped,final_text.started,final_text.stopped,instructions.started,instructions.stopped,end_instructions_resp.keys,end_instructions_resp.rt,end_instructions_resp.started,end_instructions_resp.stopped,space_to_continue.started,space_to_continue.stopped,instructions_stage0.started,instructions_stage0.stopped,end_instructions_resp_stage0.keys,end_instructions_resp_stage0.rt,end_instructions_resp_stage0.started,end_instructions_resp_stage0.stopped,space_to_continue_stage0.started,space_to_continue_stage0.stopped,text.started,text.stopped,resp_text1.started,resp_text1.stopped,resp_text2.started,resp_text2.stopped,trial_resp.keys,trial_resp.corr,trial_resp.rt,trial_resp.started,trial_resp.stopped,cue1Image.started,cue1Image.stopped,cue2Image.started,cue2Image.stopped,cue1Image_fb.started,cue1Image_fb.stopped,cue2Image_fb.started,cue2Image_fb.stopped,fb_text_answer.started,fb_text_answer.stopped,feedback_image.started,feedback_image.stopped,instructions_stage1.started,instructions_stage1.stopped,end_instructions_resp_stage1.keys,end_instructions_resp_stage1.rt,end_instructions_resp_stage1.started,end_instructions_resp_stage1.stopped,space_to_continue_stage1.started,space_to_continue_stage1.stopped,instructions_2.started,instructions_2.stopped,end_instructions_resp_2.keys,end_instructions_resp_2.rt,end_instructions_resp_2.started,end_instructions_resp_2.stopped,press_space_to_continue_stage2.started,press_space_to_continue_stage2.stopped,instructions_testStage1.started,instructions_testStage1.stopped,end_instructions_resp_test1.keys,end_instructions_resp_test1.rt,end_instructions_resp_test1.started,end_instructions_resp_test1.stopped,press_space_to_continue_test1.started,press_space_to_continue_test1.stopped,cue1Image_testChoice.started,cue1Image_testChoice.stopped,cue2Image_testChoice.started,cue2Image_testChoice.stopped,test_resp.keys,test_resp.corr,test_resp.rt,test_resp.started,test_resp.stopped,cue1Image_testConf.started,cue1Image_testConf.stopped,cue2Image_testConf.started,cue2Image_testConf.stopped,conf_reminder.started,conf_reminder.stopped,conf_rating.response,conf_rating.rt,conf_rating.started,conf_rating.stopped,session,participant,date,expName,psychopyVersion,frameRate,
,,,,,,,,,,,,,,,,,,,,,,,,,,,,,,,,,,,,,,,,,,,"{'none': 'pictures/20M_AN_C.png', 'alpha': 'pictures/SHINEd_pear.png', 'beta': 'pictures/SHINEd_melon.png', 'theta': 'pictures/SHINEd_pepper.png', 'phi': 'pictures/SHINEd_apple.png', 'T1': 'pictures/31M_AN_C.png', 'T2': 'pictures/36M_AN_C.png', 'T3': 'pictures/33M_AN_C.png', 'T4': 'pictures/20M_AN_C.png', 'T5': 'pictures/32M_AN_C.png', 'T6': 'pictures/34M_AN_C.png', 'B1': 'pictures/37M_NE_C.png', 'B2': 'pictures/25M_NE_C.png', 'B3': 'pictures/22M_NE_C.png', 'B4': 'pictures/23M_NE_C.png', 'B5': 'pictures/26M_NE_C.png', 'B6': 'pictures/38M_NE_C.png'}",437.14523067499795,None,442.12868117200014,None,space,5.440997049001453,442.12868117200014,None,,,,,,,,,,,,,,,,,,,,,,,,,,,,,,,,,,,,,,,,,,,,,,,,,,,,,,,,,,,,,,,,,,,,,,,,,,,,,,,,,,,,,,,,,,,,,,,,001,169,2020_Feb_25_1358,spring_faces,3.1.5,59.96284426373629,
,,,,,,,,,,,,,,,,,,,,,,,,,,,,,,,,,,,,,,,,,,,,,,,,,,,,447.96204522800144,None,447.96204522800144,None,"['0', '8', '3', '0', 'd', 'e', 'h', 'a', 'd']","[21.175595779001014, 21.7195068300025, 22.535498656001437, 22.82358098899931, 30.983565766000538, 31.319552883000142, 35.81557580500157, 36.00757309000255, 36.27952312799971]",447.96204522800144,None,,,,,,,,,,,,,,,,,,,,,,,,,,,,,,,,,,,,,,,,,,,,,,,,,,,,,,,,,,,,,,,,,,,,,,,,,,,,,,,,,,,,,,,,001,169,2020_Feb_25_1358,spring_faces,3.1.5,59.96284426373629,
,,,,,,,,,,,,,,,,,,,,,,,,,,,,,,,,,,,,,,,,,,,,,,,,,,,,,,,,,,,,0830dehad,447.96204522800144,None,447.96204522800144,None,489.31253935300083,None,space,1.097312702997442,494.31229721399905,None,,,,,,,,,,,,,,,,,,,,,,,,,,,,,,,,,,,,,,,,,,,,,,,,,,,,,,,,,,,,,,,,,,,,,,,,,,,,,001,169,2020_Feb_25_1358,spring_faces,3.1.5,59.96284426373629,
,,,,,,,,,,,,,,,,,,,,,,,,,,,,,,,,,,,,,,,,,,,,,,,,,,,,,,,,,,,,,,,,,,,,,,,494.31229721399905,None,495.44598643099926,None,space,1.619795056001749,500.4458291690007,None,,,,,,,,,,,,,,,,,,,,,,,,,,,,,,,,,,,,,,,,,,,,,,,,,,,,,,,,,,,,,,,,,,,,,001,169,2020_Feb_25_1358,spring_faces,3.1.5,59.96284426373629,
condition files/Stage0a.xlsx,0a,beta,none,g,"['h', 'g']","['Chess', 'Go']","[0, 0.5]","[0, 0]",1,0,0,0,0,0,0,0,0,1,,,,,,,,,,,,,,,,,,,,,,,,,,,,,,,,,,,,,,,,,,,,,,,,,,,,,,,,,,,,,500.4458291690007,None,502.12918141999944,None,502.12918141999944,None,502.12918141999944,None,h,0,5.281353381997178,503.7122404140009,None,503.7122404140009,None,503.7122404140009,None,509.06184617000144,None,509.06184617000144,None,509.06184617000144,None,509.06184617000144,None,,,,,,,,,,,,,,,,,,,,,,,,,,,,,,,,,,,,,,,,,,,,001,169,2020_Feb_25_1358,spring_faces,3.1.5,59.96284426373629,
condition files/Stage0a.xlsx,0a,alpha,none,h,"['h', 'g']","['Chess', 'Go']","[0, 0.5]","[0, 0]",1,0,0,0,0,0,0,1,1,0,,,,,,,,,,,,,,,,,,,,,,,,,,,,,,,,,,,,,,,,,,,,,,,,,,,,,,,,,,,,,,,511.01155880199985,None,511.01155880199985,None,511.01155880199985,None,h,1,2.142256131999602,512.5634051680008,None,512.5634051680008,None,512.5634051680008,None,514.7626099419995,None,514.7626099419995,None,514.7626099419995,None,514.7626099419995,None,,,,,,,,,,,,,,,,,,,,,,,,,,,,,,,,,,,,,,,,,,,,001,169,2020_Feb_25_1358,spring_faces,3.1.5,59.96284426373629,
condition files/Stage0a.xlsx,0a,alpha,none,h,"['h', 'g']","['Chess', 'Go']","[0, 0.5]","[0, 0]",1,0,0,1,1,1,0,0,0,0,,,,,,,,,,,,,,,,,,,,,,,,,,,,,,,,,,,,,,,,,,,,,,,,,,,,,,,,,,,,,,,516.74575611,None,516.74575611,None,516.74575611,None,h,1,1.9302457269986917,518.2793565570009,None,518.2793565570009,None,518.2793565570009,None,520.2625665719988,None,520.2625665719988,None,520.2625665719988,None,520.2625665719988,None,,,,,,,,,,,,,,,,,,,,,,,,,,,,,,,,,,,,,,,,,,,,001,169,2020_Feb_25_1358,spring_faces,3.1.5,59.96284426373629,
condition files/Stage0a.xlsx,0a,beta,none,g,"['h', 'g']","['Chess', 'Go']","[0, 0.5]","[0, 0]",1,0,0,1,1,1,0,1,1,1,,,,,,,,,,,,,,,,,,,,,,,,,,,,,,,,,,,,,,,,,,,,,,,,,,,,,,,,,,,,,,,522.2307372650012,None,522.2307372650012,None,522.2307372650012,None,g,1,1.4393853010005841,523.7622252269994,None,523.7622252269994,None,523.7622252269994,None,525.262274106999,None,525.262274106999,None,525.262274106999,None,525.262274106999,None,,,,,,,,,,,,,,,,,,,,,,,,,,,,,,,,,,,,,,,,,,,,001,169,2020_Feb_25_1358,spring_faces,3.1.5,59.96284426373629,
condition files/Stage0a.xlsx,0a,beta,none,g,"['h', 'g']","['Chess', 'Go']","[0, 0.5]","[0, 0]",1,0,0,2,2,2,0,0,0,1,,,,,,,,,,,,,,,,,,,,,,,,,,,,,,,,,,,,,,,,,,,,,,,,,,,,,,,,,,,,,,,527.245719288001,None,527.245719288001,None,527.245719288001,None,g,1,1.0309162869998545,528.7786911179992,None,528.7786911179992,None,528.7786911179992,None,529.8622871579992,None,529.8622871579992,None,529.8622871579992,None,529.8622871579992,None,,,,,,,,,,,,,,,,,,,,,,,,,,,,,,,,,,,,,,,,,,,,001,169,2020_Feb_25_1358,spring_faces,3.1.5,59.96284426373629,
condition files/Stage0a.xlsx,0a,alpha,none,h,"['h', 'g']","['Chess', 'Go']","[0, 0.5]","[0, 0]",1,0,0,2,2,2,0,1,1,0,,,,,,,,,,,,,,,,,,,,,,,,,,,,,,,,,,,,,,,,,,,,,,,,,,,,,,,,,,,,,,,531.8282788779998,None,531.8282788779998,None,531.8282788779998,None,h,1,1.454943420998461,533.3786670940008,None,533.3786670940008,None,533.3786670940008,None,534.8952512209999,None,534.8952512209999,None,534.8952512209999,None,534.8952512209999,None,,,,,,,,,,,,,,,,,,,,,,,,,,,,,,,,,,,,,,,,,,,,001,169,2020_Feb_25_1358,spring_faces,3.1.5,59.96284426373629,
condition files/Stage0a.xlsx,0a,alpha,none,h,"['h', 'g']","['Chess', 'Go']","[0, 0.5]","[0, 0]",1,0,0,3,3,3,0,0,0,0,,,,,,,,,,,,,,,,,,,,,,,,,,,,,,,,,,,,,,,,,,,,,,,,,,,,,,,,,,,,,,,536.8791065700007,None,536.8791065700007,None,536.8791065700007,None,g,0,1.077564197999891,538.4120242139998,None,538.4120242139998,None,538.4120242139998,None,539.5461254210004,None,539.5461254210004,None,539.5461254210004,None,539.5461254210004,None,,,,,,,,,,,,,,,,,,,,,,,,,,,,,,,,,,,,,,,,,,,,001,169,2020_Feb_25_1358,spring_faces,3.1.5,59.96284426373629,
condition files/Stage0a.xlsx,0a,beta,none,g,"['h', 'g']","['Chess', 'Go']","[0, 0.5]","[0, 0]",1,0,0,3,3,3,0,1,1,1,,,,,,,,,,,,,,,,,,,,,,,,,,,,,,,,,,,,,,,,,,,,,,,,,,,,,,,,,,,,,,,541.5124219029985,None,541.5124219029985,None,541.5124219029985,None,h,0,0.7962800480017904,543.0453128050012,None,543.0453128050012,None,543.0453128050012,None,543.8952513409986,None,543.8952513409986,None,543.8952513409986,None,543.8952513409986,None,,,,,,,,,,,,,,,,,,,,,,,,,,,,,,,,,,,,,,,,,,,,001,169,2020_Feb_25_1358,spring_faces,3.1.5,59.96284426373629,
condition files/Stage0a.xlsx,0a,alpha,none,h,"['h', 'g']","['Chess', 'Go']","[0, 0.5]","[0, 0]",1,0,0,4,4,4,0,0,0,0,,,,,,,,,,,,,,,,,,,,,,,,,,,,,,,,,,,,,,,,,,,,,,,,,,,,,,,,,,,,,,,545.8787194980014,None,545.8787194980014,None,545.8787194980014,None,g,0,1.6617064380006923,547.4118979139985,None,547.4118979139985,None,547.4118979139985,None,549.1280553929992,None,549.1280553929992,None,549.1280553929992,None,549.1280553929992,None,,,,,,,,,,,,,,,,,,,,,,,,,,,,,,,,,,,,,,,,,,,,001,169,2020_Feb_25_1358,spring_faces,3.1.5,59.96284426373629,
condition files/Stage0a.xlsx,0a,beta,none,g,"['h', 'g']","['Chess', 'Go']","[0, 0.5]","[0, 0]",1,0,0,4,4,4,0,1,1,1,,,,,,,,,,,,,,,,,,,,,,,,,,,,,,,,,,,,,,,,,,,,,,,,,,,,,,,,,,,,,,,551.0954360339983,None,551.0954360339983,None,551.0954360339983,None,h,0,1.3885197859999607,552.6290982709997,None,552.6290982709997,None,552.6290982709997,None,554.0787232029998,None,554.0787232029998,None,554.0787232029998,None,554.0787232029998,None,,,,,,,,,,,,,,,,,,,,,,,,,,,,,,,,,,,,,,,,,,,,001,169,2020_Feb_25_1358,spring_faces,3.1.5,59.96284426373629,
condition files/Stage0a.xlsx,0a,alpha,none,h,"['h', 'g']","['Chess', 'Go']","[0, 0.5]","[0, 0]",1,0,0,5,5,5,0,0,0,0,,,,,,,,,,,,,,,,,,,,,,,,,,,,,,,,,,,,,,,,,,,,,,,,,,,,,,,,,,,,,,,556.0623253879985,None,556.0623253879985,None,556.0623253879985,None,g,0,0.8693700240000908,557.5962724529982,None,557.5962724529982,None,557.5962724529982,None,558.5292406370008,None,558.5292406370008,None,558.5292406370008,None,558.5292406370008,None,,,,,,,,,,,,,,,,,,,,,,,,,,,,,,,,,,,,,,,,,,,,001,169,2020_Feb_25_1358,spring_faces,3.1.5,59.96284426373629,
condition files/Stage0a.xlsx,0a,beta,none,g,"['h', 'g']","['Chess', 'Go']","[0, 0.5]","[0, 0]",1,0,0,5,5,5,0,1,1,1,,,,,,,,,,,,,,,,,,,,,,,,,,,,,,,,,,,,,,,,,,,,,,,,,,,,,,,,,,,,,,,560.4951688919991,None,560.4951688919991,None,560.4951688919991,None,g,1,1.0284203910014185,562.0291777410002,None,562.0291777410002,None,562.0291777410002,None,563.1118926449981,None,563.1118926449981,None,563.1118926449981,None,563.1118926449981,None,,,,,,,,,,,,,,,,,,,,,,,,,,,,,,,,,,,,,,,,,,,,001,169,2020_Feb_25_1358,spring_faces,3.1.5,59.96284426373629,
condition files/Stage0b_1.xlsx,0b,alpha,none,h,"['h', 'g']","['Chess', 'Go']","[-0.15, 0.5]","[0.15, 0.5]",1,0,0,6,6,6,0,0,0,0,,,,,,,,,,,,,,,,,,,,,,,,,,,,,,,,,,,,,,,,,,,,,,,,,,,,,,,,,,,,,,,565.0958084879985,None,565.0958084879985,None,565.0958084879985,None,g,0,1.1161544989990944,566.6294812649994,None,566.6294812649994,None,566.6294812649994,None,567.7949609170009,None,567.7949609170009,None,567.7949609170009,None,567.7949609170009,None,,,,,,,,,,,,,,,,,,,,,,,,,,,,,,,,,,,,,,,,,,,,001,169,2020_Feb_25_1358,spring_faces,3.1.5,59.96284426373629,
condition files/Stage0b_1.xlsx,0b,none,beta,g,"['h', 'g']","['Chess', 'Go']","[-0.15, 0.5]","[0.15, 0.5]",0,1,0,6,6,6,0,1,1,1,,,,,,,,,,,,,,,,,,,,,,,,,,,,,,,,,,,,,,,,,,,,,,,,,,,,,,,,,,,,,,,569.7618296579985,None,569.7618296579985,None,569.7618296579985,None,g,1,1.7771550580000621,571.3124865539994,None,571.3124865539994,None,571.3124865539994,None,573.1622855959995,None,573.1622855959995,None,573.1622855959995,None,573.1622855959995,None,,,,,,,,,,,,,,,,,,,,,,,,,,,,,,,,,,,,,,,,,,,,001,169,2020_Feb_25_1358,spring_faces,3.1.5,59.96284426373629,
condition files/Stage0b_2.xlsx,0b,beta,none,g,"['h', 'g']","['Chess', 'Go']","[-0.15, 0.5]","[0.15, 0.5]",1,0,0,7,7,7,0,0,0,1,,,,,,,,,,,,,,,,,,,,,,,,,,,,,,,,,,,,,,,,,,,,,,,,,,,,,,,,,,,,,,,575.1292325209997,None,575.1292325209997,None,575.1292325209997,None,g,1,0.7264729039998201,576.6671247319991,None,576.6671247319991,None,576.6671247319991,None,577.4455894539988,None,577.4455894539988,None,577.4455894539988,None,577.4455894539988,None,,,,,,,,,,,,,,,,,,,,,,,,,,,,,,,,,,,,,,,,,,,,001,169,2020_Feb_25_1358,spring_faces,3.1.5,59.96284426373629,
condition files/Stage0b_2.xlsx,0b,none,alpha,h,"['h', 'g']","['Chess', 'Go']","[-0.15, 0.5]","[0.15, 0.5]",0,1,0,7,7,7,0,1,1,0,,,,,,,,,,,,,,,,,,,,,,,,,,,,,,,,,,,,,,,,,,,,,,,,,,,,,,,,,,,,,,,579.4115219729993,None,579.4115219729993,None,579.4115219729993,None,h,1,0.827826496999478,580.9497861389991,None,580.9497861389991,None,580.9497861389991,None,581.8332113980014,None,581.8332113980014,None,581.8332113980014,None,581.8332113980014,None,,,,,,,,,,,,,,,,,,,,,,,,,,,,,,,,,,,,,,,,,,,,001,169,2020_Feb_25_1358,spring_faces,3.1.5,59.96284426373629,
condition files/Stage0b_1.xlsx,0b,none,beta,g,"['h', 'g']","['Chess', 'Go']","[-0.15, 0.5]","[0.15, 0.5]",0,1,0,8,8,8,0,0,0,1,,,,,,,,,,,,,,,,,,,,,,,,,,,,,,,,,,,,,,,,,,,,,,,,,,,,,,,,,,,,,,,583.8124958280005,None,583.8124958280005,None,583.8124958280005,None,g,1,0.9764796989984461,585.3451381699979,None,585.3451381699979,None,585.3451381699979,None,586.3787790020015,None,586.3787790020015,None,586.3787790020015,None,586.3787790020015,None,,,,,,,,,,,,,,,,,,,,,,,,,,,,,,,,,,,,,,,,,,,,001,169,2020_Feb_25_1358,spring_faces,3.1.5,59.96284426373629,
condition files/Stage0b_1.xlsx,0b,alpha,none,h,"['h', 'g']","['Chess', 'Go']","[-0.15, 0.5]","[0.15, 0.5]",1,0,0,8,8,8,0,1,1,0,,,,,,,,,,,,,,,,,,,,,,,,,,,,,,,,,,,,,,,,,,,,,,,,,,,,,,,,,,,,,,,588.3446662869992,None,588.3446662869992,None,588.3446662869992,None,h,1,1.7220266080003057,589.8955890550005,None,589.8955890550005,None,589.8955890550005,None,591.6819345409986,None,591.6819345409986,None,591.6819345409986,None,591.6819345409986,None,,,,,,,,,,,,,,,,,,,,,,,,,,,,,,,,,,,,,,,,,,,,001,169,2020_Feb_25_1358,spring_faces,3.1.5,59.96284426373629,
condition files/Stage0b_2.xlsx,0b,none,alpha,h,"['h', 'g']","['Chess', 'Go']","[-0.15, 0.5]","[0.15, 0.5]",0,1,0,9,9,9,0,0,0,0,,,,,,,,,,,,,,,,,,,,,,,,,,,,,,,,,,,,,,,,,,,,,,,,,,,,,,,,,,,,,,,593.662408066999,None,593.662408066999,None,593.662408066999,None,h,1,0.9453233419990283,595.2003469139981,None,595.2003469139981,None,595.2003469139981,None,596.1958529269996,None,596.1958529269996,None,596.1958529269996,None,596.1958529269996,None,,,,,,,,,,,,,,,,,,,,,,,,,,,,,,,,,,,,,,,,,,,,001,169,2020_Feb_25_1358,spring_faces,3.1.5,59.96284426373629,
condition files/Stage0b_2.xlsx,0b,beta,none,g,"['h', 'g']","['Chess', 'Go']","[-0.15, 0.5]","[0.15, 0.5]",1,0,0,9,9,9,0,1,1,1,,,,,,,,,,,,,,,,,,,,,,,,,,,,,,,,,,,,,,,,,,,,,,,,,,,,,,,,,,,,,,,598.1622351390015,None,598.1622351390015,None,598.1622351390015,None,g,1,0.7809649219998391,599.7006409730002,None,599.7006409730002,None,599.7006409730002,None,600.5451760749984,None,600.5451760749984,None,600.5451760749984,None,600.5451760749984,None,,,,,,,,,,,,,,,,,,,,,,,,,,,,,,,,,,,,,,,,,,,,001,169,2020_Feb_25_1358,spring_faces,3.1.5,59.96284426373629,
condition files/Stage0b_1.xlsx,0b,none,beta,g,"['h', 'g']","['Chess', 'Go']","[-0.15, 0.5]","[0.15, 0.5]",0,1,0,10,10,10,0,0,0,1,,,,,,,,,,,,,,,,,,,,,,,,,,,,,,,,,,,,,,,,,,,,,,,,,,,,,,,,,,,,,,,602.5292281979982,None,602.5292281979982,None,602.5292281979982,None,g,1,0.8025674570017145,604.0790405079988,None,604.0790405079988,None,604.0790405079988,None,604.9460548279985,None,604.9460548279985,None,604.9460548279985,None,604.9460548279985,None,,,,,,,,,,,,,,,,,,,,,,,,,,,,,,,,,,,,,,,,,,,,001,169,2020_Feb_25_1358,spring_faces,3.1.5,59.96284426373629,
condition files/Stage0b_1.xlsx,0b,alpha,none,h,"['h', 'g']","['Chess', 'Go']","[-0.15, 0.5]","[0.15, 0.5]",1,0,0,10,10,10,0,1,1,0,,,,,,,,,,,,,,,,,,,,,,,,,,,,,,,,,,,,,,,,,,,,,,,,,,,,,,,,,,,,,,,606.9122907969995,None,606.9122907969995,None,606.9122907969995,None,h,1,0.6395853540016105,608.4500010139982,None,608.4500010139982,None,608.4500010139982,None,609.1472578080011,None,609.1472578080011,None,609.1472578080011,None,609.1472578080011,None,,,,,,,,,,,,,,,,,,,,,,,,,,,,,,,,,,,,,,,,,,,,001,169,2020_Feb_25_1358,spring_faces,3.1.5,59.96284426373629,
condition files/Stage0b_2.xlsx,0b,beta,none,g,"['h', 'g']","['Chess', 'Go']","[-0.15, 0.5]","[0.15, 0.5]",1,0,0,11,11,11,0,0,0,1,,,,,,,,,,,,,,,,,,,,,,,,,,,,,,,,,,,,,,,,,,,,,,,,,,,,,,,,,,,,,,,611.12923452,None,611.12923452,None,611.12923452,None,g,1,2.312895799997932,612.6647356119993,None,612.6647356119993,None,612.6647356119993,None,615.0286636010005,None,615.0286636010005,None,615.0286636010005,None,615.0286636010005,None,,,,,,,,,,,,,,,,,,,,,,,,,,,,,,,,,,,,,,,,,,,,001,169,2020_Feb_25_1358,spring_faces,3.1.5,59.96284426373629,
condition files/Stage0b_2.xlsx,0b,none,alpha,h,"['h', 'g']","['Chess', 'Go']","[-0.15, 0.5]","[0.15, 0.5]",0,1,0,11,11,11,0,1,1,0,,,,,,,,,,,,,,,,,,,,,,,,,,,,,,,,,,,,,,,,,,,,,,,,,,,,,,,,,,,,,,,616.9955217949991,None,616.9955217949991,None,616.9955217949991,None,h,1,0.4756641310013947,618.5339160849999,None,618.5339160849999,None,618.5339160849999,None,619.0656552519995,None,619.0656552519995,None,619.0656552519995,None,619.0656552519995,None,,,,,,,,,,,,,,,,,,,,,,,,,,,,,,,,,,,,,,,,,,,,001,169,2020_Feb_25_1358,spring_faces,3.1.5,59.96284426373629,
condition files/Stage0c_1.xlsx,0c,phi,beta,g,"['h', 'g']","['Chess', 'Go']","[-0.15, 0.5]","[0.15, 0.5]",1,1,0,12,12,12,0,0,0,3,,,,,,,,,,,,,,,,,,,,,,,,,,,,,,,,,,,,,,,,,,,,,,,,,,,,,,,,,,,,,,,621.0452908409989,None,621.0452908409989,None,621.0452908409989,None,h,0,1.3421538709990273,622.5794531500014,None,622.5794531500014,None,622.5794531500014,None,623.9787485539982,None,623.9787485539982,None,623.9787485539982,None,623.9787485539982,None,,,,,,,,,,,,,,,,,,,,,,,,,,,,,,,,,,,,,,,,,,,,001,169,2020_Feb_25_1358,spring_faces,3.1.5,59.96284426373629,
condition files/Stage0c_1.xlsx,0c,alpha,phi,h,"['h', 'g']","['Chess', 'Go']","[-0.15, 0.5]","[0.15, 0.5]",1,1,0,12,12,12,0,1,1,1,,,,,,,,,,,,,,,,,,,,,,,,,,,,,,,,,,,,,,,,,,,,,,,,,,,,,,,,,,,,,,,625.9453635459995,None,625.9453635459995,None,625.9453635459995,None,h,1,1.5143113570011337,627.479285899999,None,627.479285899999,None,627.479285899999,None,629.0454698749982,None,629.0454698749982,None,629.0454698749982,None,629.0454698749982,None,,,,,,,,,,,,,,,,,,,,,,,,,,,,,,,,,,,,,,,,,,,,001,169,2020_Feb_25_1358,spring_faces,3.1.5,59.96284426373629,
condition files/Stage0c_1.xlsx,0c,theta,alpha,h,"['h', 'g']","['Chess', 'Go']","[-0.15, 0.5]","[0.15, 0.5]",1,1,0,12,12,12,0,2,2,0,,,,,,,,,,,,,,,,,,,,,,,,,,,,,,,,,,,,,,,,,,,,,,,,,,,,,,,,,,,,,,,631.0119755190008,None,631.0119755190008,None,631.0119755190008,None,h,1,1.6002578760017059,632.5453477089995,None,632.5453477089995,None,632.5453477089995,None,634.1956847040001,None,634.1956847040001,None,634.1956847040001,None,634.1956847040001,None,,,,,,,,,,,,,,,,,,,,,,,,,,,,,,,,,,,,,,,,,,,,001,169,2020_Feb_25_1358,spring_faces,3.1.5,59.96284426373629,
condition files/Stage0c_1.xlsx,0c,beta,theta,g,"['h', 'g']","['Chess', 'Go']","[-0.15, 0.5]","[0.15, 0.5]",1,1,0,12,12,12,0,3,3,2,,,,,,,,,,,,,,,,,,,,,,,,,,,,,,,,,,,,,,,,,,,,,,,,,,,,,,,,,,,,,,,636.1622622339983,None,636.1622622339983,None,636.1622622339983,None,g,1,1.2978844450008182,637.6957188129982,None,637.6957188129982,None,637.6957188129982,None,639.0458710830007,None,639.0458710830007,None,639.0458710830007,None,639.0458710830007,None,,,,,,,,,,,,,,,,,,,,,,,,,,,,,,,,,,,,,,,,,,,,001,169,2020_Feb_25_1358,spring_faces,3.1.5,59.96284426373629,
condition files/Stage0c_2.xlsx,0c,theta,beta,g,"['h', 'g']","['Chess', 'Go']","[-0.15, 0.5]","[0.15, 0.5]",1,1,0,13,13,13,0,0,0,2,,,,,,,,,,,,,,,,,,,,,,,,,,,,,,,,,,,,,,,,,,,,,,,,,,,,,,,,,,,,,,,641.0290919939998,None,641.0290919939998,None,641.0290919939998,None,g,1,1.7911879530001897,642.5624805339994,None,642.5624805339994,None,642.5624805339994,None,644.412227846,None,644.412227846,None,644.412227846,None,644.412227846,None,,,,,,,,,,,,,,,,,,,,,,,,,,,,,,,,,,,,,,,,,,,,001,169,2020_Feb_25_1358,spring_faces,3.1.5,59.96284426373629,
condition files/Stage0c_2.xlsx,0c,alpha,theta,h,"['h', 'g']","['Chess', 'Go']","[-0.15, 0.5]","[0.15, 0.5]",1,1,0,13,13,13,0,1,1,0,,,,,,,,,,,,,,,,,,,,,,,,,,,,,,,,,,,,,,,,,,,,,,,,,,,,,,,,,,,,,,,646.3786827029999,None,646.3786827029999,None,646.3786827029999,None,h,1,1.2896230970000033,647.9119929610006,None,647.9119929610006,None,647.9119929610006,None,649.2622869229981,None,649.2622869229981,None,649.2622869229981,None,649.2622869229981,None,,,,,,,,,,,,,,,,,,,,,,,,,,,,,,,,,,,,,,,,,,,,001,169,2020_Feb_25_1358,spring_faces,3.1.5,59.96284426373629,
condition files/Stage0c_2.xlsx,0c,phi,alpha,h,"['h', 'g']","['Chess', 'Go']","[-0.15, 0.5]","[0.15, 0.5]",1,1,0,13,13,13,0,2,2,1,,,,,,,,,,,,,,,,,,,,,,,,,,,,,,,,,,,,,,,,,,,,,,,,,,,,,,,,,,,,,,,651.228625280999,None,651.228625280999,None,651.228625280999,None,h,1,1.0151719239984232,652.7624351920003,None,652.7624351920003,None,652.7624351920003,None,653.8139531309989,None,653.8139531309989,None,653.8139531309989,None,653.8139531309989,None,,,,,,,,,,,,,,,,,,,,,,,,,,,,,,,,,,,,,,,,,,,,001,169,2020_Feb_25_1358,spring_faces,3.1.5,59.96284426373629,
condition files/Stage0c_2.xlsx,0c,beta,phi,g,"['h', 'g']","['Chess', 'Go']","[-0.15, 0.5]","[0.15, 0.5]",1,1,0,13,13,13,0,3,3,3,,,,,,,,,,,,,,,,,,,,,,,,,,,,,,,,,,,,,,,,,,,,,,,,,,,,,,,,,,,,,,,655.7952534070009,None,655.7952534070009,None,655.7952534070009,None,g,1,1.1689214700018056,657.3286716429993,None,657.3286716429993,None,657.3286716429993,None,658.5621340810012,None,658.5621340810012,None,658.5621340810012,None,658.5621340810012,None,,,,,,,,,,,,,,,,,,,,,,,,,,,,,,,,,,,,,,,,,,,,001,169,2020_Feb_25_1358,spring_faces,3.1.5,59.96284426373629,
condition files/Stage0c_1.xlsx,0c,alpha,phi,h,"['h', 'g']","['Chess', 'Go']","[-0.15, 0.5]","[0.15, 0.5]",1,1,0,14,14,14,0,0,0,1,,,,,,,,,,,,,,,,,,,,,,,,,,,,,,,,,,,,,,,,,,,,,,,,,,,,,,,,,,,,,,,660.5450565480005,None,660.5450565480005,None,660.5450565480005,None,h,1,0.8987216230016202,662.0788919399984,None,662.0788919399984,None,662.0788919399984,None,663.0287486159996,None,663.0287486159996,None,663.0287486159996,None,663.0287486159996,None,,,,,,,,,,,,,,,,,,,,,,,,,,,,,,,,,,,,,,,,,,,,001,169,2020_Feb_25_1358,spring_faces,3.1.5,59.96284426373629,
condition files/Stage0c_1.xlsx,0c,beta,theta,g,"['h', 'g']","['Chess', 'Go']","[-0.15, 0.5]","[0.15, 0.5]",1,1,0,14,14,14,0,1,1,2,,,,,,,,,,,,,,,,,,,,,,,,,,,,,,,,,,,,,,,,,,,,,,,,,,,,,,,,,,,,,,,664.9953394679997,None,664.9953394679997,None,664.9953394679997,None,h,0,0.9610163739998825,666.5286375989981,None,666.5286375989981,None,666.5286375989981,None,667.5457137949979,None,667.5457137949979,None,667.5457137949979,None,667.5457137949979,None,,,,,,,,,,,,,,,,,,,,,,,,,,,,,,,,,,,,,,,,,,,,001,169,2020_Feb_25_1358,spring_faces,3.1.5,59.96284426373629,
condition files/Stage0c_1.xlsx,0c,theta,alpha,h,"['h', 'g']","['Chess', 'Go']","[-0.15, 0.5]","[0.15, 0.5]",1,1,0,14,14,14,0,2,2,0,,,,,,,,,,,,,,,,,,,,,,,,,,,,,,,,,,,,,,,,,,,,,,,,,,,,,,,,,,,,,,,669.5119234260001,None,669.5119234260001,None,669.5119234260001,None,h,1,0.9877039509992755,671.0459232089979,None,671.0459232089979,None,671.0459232089979,None,672.0954410169998,None,672.0954410169998,None,672.0954410169998,None,672.0954410169998,None,,,,,,,,,,,,,,,,,,,,,,,,,,,,,,,,,,,,,,,,,,,,001,169,2020_Feb_25_1358,spring_faces,3.1.5,59.96284426373629,
condition files/Stage0c_1.xlsx,0c,phi,beta,g,"['h', 'g']","['Chess', 'Go']","[-0.15, 0.5]","[0.15, 0.5]",1,1,0,14,14,14,0,3,3,3,,,,,,,,,,,,,,,,,,,,,,,,,,,,,,,,,,,,,,,,,,,,,,,,,,,,,,,,,,,,,,,674.0621813640009,None,674.0621813640009,None,674.0621813640009,None,h,0,0.950085646003572,675.5955392859996,None,675.5955392859996,None,675.5955392859996,None,676.595350444999,None,676.595350444999,None,676.595350444999,None,676.595350444999,None,,,,,,,,,,,,,,,,,,,,,,,,,,,,,,,,,,,,,,,,,,,,001,169,2020_Feb_25_1358,spring_faces,3.1.5,59.96284426373629,
condition files/Stage0c_2.xlsx,0c,alpha,theta,h,"['h', 'g']","['Chess', 'Go']","[-0.15, 0.5]","[0.15, 0.5]",1,1,0,15,15,15,0,0,0,0,,,,,,,,,,,,,,,,,,,,,,,,,,,,,,,,,,,,,,,,,,,,,,,,,,,,,,,,,,,,,,,678.5792017250005,None,678.5792017250005,None,678.5792017250005,None,h,1,0.865804590001062,680.111818790001,None,680.111818790001,None,680.111818790001,None,681.0291338709994,None,681.0291338709994,None,681.0291338709994,None,681.0291338709994,None,,,,,,,,,,,,,,,,,,,,,,,,,,,,,,,,,,,,,,,,,,,,001,169,2020_Feb_25_1358,spring_faces,3.1.5,59.96284426373629,
condition files/Stage0c_2.xlsx,0c,phi,alpha,h,"['h', 'g']","['Chess', 'Go']","[-0.15, 0.5]","[0.15, 0.5]",1,1,0,15,15,15,0,1,1,1,,,,,,,,,,,,,,,,,,,,,,,,,,,,,,,,,,,,,,,,,,,,,,,,,,,,,,,,,,,,,,,682.9948630589988,None,682.9948630589988,None,682.9948630589988,None,h,1,0.833048857999529,684.528566439998,None,684.528566439998,None,684.528566439998,None,685.3975041549984,None,685.3975041549984,None,685.3975041549984,None,685.3975041549984,None,,,,,,,,,,,,,,,,,,,,,,,,,,,,,,,,,,,,,,,,,,,,001,169,2020_Feb_25_1358,spring_faces,3.1.5,59.96284426373629,
condition files/Stage0c_2.xlsx,0c,beta,phi,g,"['h', 'g']","['Chess', 'Go']","[-0.15, 0.5]","[0.15, 0.5]",1,1,0,15,15,15,0,2,2,3,,,,,,,,,,,,,,,,,,,,,,,,,,,,,,,,,,,,,,,,,,,,,,,,,,,,,,,,,,,,,,,687.3784620069982,None,687.3784620069982,None,687.3784620069982,None,g,1,0.6411340689992358,688.9125259179982,None,688.9125259179982,None,688.9125259179982,None,689.6119475530013,None,689.6119475530013,None,689.6119475530013,None,689.6119475530013,None,,,,,,,,,,,,,,,,,,,,,,,,,,,,,,,,,,,,,,,,,,,,001,169,2020_Feb_25_1358,spring_faces,3.1.5,59.96284426373629,
condition files/Stage0c_2.xlsx,0c,theta,beta,g,"['h', 'g']","['Chess', 'Go']","[-0.15, 0.5]","[0.15, 0.5]",1,1,0,15,15,15,0,3,3,2,,,,,,,,,,,,,,,,,,,,,,,,,,,,,,,,,,,,,,,,,,,,,,,,,,,,,,,,,,,,,,,691.5784703129993,None,691.5784703129993,None,691.5784703129993,None,g,1,0.825867643001402,693.1117846569996,None,693.1117846569996,None,693.1117846569996,None,693.9794546940011,None,693.9794546940011,None,693.9794546940011,None,693.9794546940011,None,,,,,,,,,,,,,,,,,,,,,,,,,,,,,,,,,,,,,,,,,,,,001,169,2020_Feb_25_1358,spring_faces,3.1.5,59.96284426373629,
condition files/Stage0c_1.xlsx,0c,beta,theta,g,"['h', 'g']","['Chess', 'Go']","[-0.15, 0.5]","[0.15, 0.5]",1,1,0,16,16,16,0,0,0,2,,,,,,,,,,,,,,,,,,,,,,,,,,,,,,,,,,,,,,,,,,,,,,,,,,,,,,,,,,,,,,,695.9793262889998,None,695.9793262889998,None,695.9793262889998,None,g,1,1.593978467000852,697.5116904980005,None,697.5116904980005,None,697.5116904980005,None,699.1625641619994,None,699.1625641619994,None,699.1625641619994,None,699.1625641619994,None,,,,,,,,,,,,,,,,,,,,,,,,,,,,,,,,,,,,,,,,,,,,001,169,2020_Feb_25_1358,spring_faces,3.1.5,59.96284426373629,
condition files/Stage0c_1.xlsx,0c,alpha,phi,h,"['h', 'g']","['Chess', 'Go']","[-0.15, 0.5]","[0.15, 0.5]",1,1,0,16,16,16,0,1,1,1,,,,,,,,,,,,,,,,,,,,,,,,,,,,,,,,,,,,,,,,,,,,,,,,,,,,,,,,,,,,,,,701.1285689419983,None,701.1285689419983,None,701.1285689419983,None,h,1,0.7633126900000207,702.6622195879991,None,702.6622195879991,None,702.6622195879991,None,703.4791994409989,None,703.4791994409989,None,703.4791994409989,None,703.4791994409989,None,,,,,,,,,,,,,,,,,,,,,,,,,,,,,,,,,,,,,,,,,,,,001,169,2020_Feb_25_1358,spring_faces,3.1.5,59.96284426373629,
condition files/Stage0c_1.xlsx,0c,phi,beta,g,"['h', 'g']","['Chess', 'Go']","[-0.15, 0.5]","[0.15, 0.5]",1,1,0,16,16,16,0,2,2,3,,,,,,,,,,,,,,,,,,,,,,,,,,,,,,,,,,,,,,,,,,,,,,,,,,,,,,,,,,,,,,,705.4454340690008,None,705.4454340690008,None,705.4454340690008,None,g,1,1.1183496949997789,706.979193582998,None,706.979193582998,None,706.979193582998,None,708.1623933169994,None,708.1623933169994,None,708.1623933169994,None,708.1623933169994,None,,,,,,,,,,,,,,,,,,,,,,,,,,,,,,,,,,,,,,,,,,,,001,169,2020_Feb_25_1358,spring_faces,3.1.5,59.96284426373629,
condition files/Stage0c_1.xlsx,0c,theta,alpha,h,"['h', 'g']","['Chess', 'Go']","[-0.15, 0.5]","[0.15, 0.5]",1,1,0,16,16,16,0,3,3,0,,,,,,,,,,,,,,,,,,,,,,,,,,,,,,,,,,,,,,,,,,,,,,,,,,,,,,,,,,,,,,,710.1287259859982,None,710.1287259859982,None,710.1287259859982,None,h,1,0.8994159239991859,711.6622009910006,None,711.6622009910006,None,711.6622009910006,None,712.6124088819979,None,712.6124088819979,None,712.6124088819979,None,712.6124088819979,None,,,,,,,,,,,,,,,,,,,,,,,,,,,,,,,,,,,,,,,,,,,,001,169,2020_Feb_25_1358,spring_faces,3.1.5,59.96284426373629,
condition files/Stage0c_2.xlsx,0c,phi,alpha,h,"['h', 'g']","['Chess', 'Go']","[-0.15, 0.5]","[0.15, 0.5]",1,1,0,17,17,17,0,0,0,1,,,,,,,,,,,,,,,,,,,,,,,,,,,,,,,,,,,,,,,,,,,,,,,,,,,,,,,,,,,,,,,714.5954530369982,None,714.5954530369982,None,714.5954530369982,None,h,1,0.816214250997291,716.1293432760012,None,716.1293432760012,None,716.1293432760012,None,716.9799784660008,None,716.9799784660008,None,716.9799784660008,None,716.9799784660008,None,,,,,,,,,,,,,,,,,,,,,,,,,,,,,,,,,,,,,,,,,,,,001,169,2020_Feb_25_1358,spring_faces,3.1.5,59.96284426373629,
condition files/Stage0c_2.xlsx,0c,beta,phi,g,"['h', 'g']","['Chess', 'Go']","[-0.15, 0.5]","[0.15, 0.5]",1,1,0,17,17,17,0,1,1,3,,,,,,,,,,,,,,,,,,,,,,,,,,,,,,,,,,,,,,,,,,,,,,,,,,,,,,,,,,,,,,,718.9621885190008,None,718.9621885190008,None,718.9621885190008,None,g,1,1.3301685400001588,720.4955827299982,None,720.4955827299982,None,720.4955827299982,None,721.8789616529994,None,721.8789616529994,None,721.8789616529994,None,721.8789616529994,None,,,,,,,,,,,,,,,,,,,,,,,,,,,,,,,,,,,,,,,,,,,,001,169,2020_Feb_25_1358,spring_faces,3.1.5,59.96284426373629,
condition files/Stage0c_2.xlsx,0c,theta,beta,g,"['h', 'g']","['Chess', 'Go']","[-0.15, 0.5]","[0.15, 0.5]",1,1,0,17,17,17,0,2,2,2,,,,,,,,,,,,,,,,,,,,,,,,,,,,,,,,,,,,,,,,,,,,,,,,,,,,,,,,,,,,,,,723.8455932870002,None,723.8455932870002,None,723.8455932870002,None,g,1,0.8312535469995055,725.3783188859979,None,725.3783188859979,None,725.3783188859979,None,726.247292768001,None,726.247292768001,None,726.247292768001,None,726.247292768001,None,,,,,,,,,,,,,,,,,,,,,,,,,,,,,,,,,,,,,,,,,,,,001,169,2020_Feb_25_1358,spring_faces,3.1.5,59.96284426373629,
condition files/Stage0c_2.xlsx,0c,alpha,theta,h,"['h', 'g']","['Chess', 'Go']","[-0.15, 0.5]","[0.15, 0.5]",1,1,0,17,17,17,0,3,3,0,,,,,,,,,,,,,,,,,,,,,,,,,,,,,,,,,,,,,,,,,,,,,,,,,,,,,,,,,,,,,,,728.2288291360001,None,728.2288291360001,None,728.2288291360001,None,h,1,0.8473500990003231,729.7622434540008,None,729.7622434540008,None,729.7622434540008,None,730.6618936100003,None,730.6618936100003,None,730.6618936100003,None,730.6618936100003,None,,,,,,,,,,,,,,,,,,,,,,,,,,,,,,,,,,,,,,,,,,,,001,169,2020_Feb_25_1358,spring_faces,3.1.5,59.96284426373629,
,,,,,,,,,,,,,,,,,,,,,,,,,,,,,,,,,,,,,,,,,,,,,,,,,,,,,,,,,,,,,,,,,,,,,,,,,,,,,,,,,,,,,,,,,,,,,,,,,,,,,,,,732.6451798459984,None,space,0.8675853960012319,737.6459682029981,None,,,,,,,,,,,,,,,,,,,,,,,,,,,,,,,,,,,,,,001,169,2020_Feb_25_1358,spring_faces,3.1.5,59.96284426373629,
condition files/Stage1_1.xlsx,,T1,B1,c,"['c', 'm']","['Clue', 'Monopoly']","[-0.15, 0.5]","[0.15, 0.5]",1,1,,,,,,,,,0,0,0,0,0,0,0,0,,,,,,,,,,,,,,,,,,,,,,,,,,,,,,,,,,,,,,,,,,,,,,,,,,,,,,,738.5789148380009,None,738.5789148380009,None,738.5789148380009,None,m,0,1.1671757650001382,740.1624021590014,None,740.1624021590014,None,740.1624021590014,None,741.411921560999,None,741.411921560999,None,741.411921560999,None,741.411921560999,None,,,,,,,737.6459682029981,None,,,,,,,,,,,,,,,,,,,,,,,,,,,,,,,,,,,,001,169,2020_Feb_25_1358,spring_faces,3.1.5,59.96284426373629,
condition files/Stage1_1.xlsx,,B3,T3,c,"['c', 'm']","['Clue', 'Monopoly']","[-0.15, 0.5]","[0.15, 0.5]",1,1,,,,,,,,,0,0,0,0,0,1,1,4,,,,,,,,,,,,,,,,,,,,,,,,,,,,,,,,,,,,,,,,,,,,,,,,,,,,,,,743.3618045999992,None,743.3618045999992,None,743.3618045999992,None,m,0,1.9837041690007027,744.9458473089999,None,744.9458473089999,None,744.9458473089999,None,746.9954433549992,None,746.9954433549992,None,746.9954433549992,None,746.9954433549992,None,,,,,,,,,,,,,,,,,,,,,,,,,,,,,,,,,,,,,,,,,,,,001,169,2020_Feb_25_1358,spring_faces,3.1.5,59.96284426373629,
condition files/Stage1_1.xlsx,,B2,T1,m,"['c', 'm']","['Clue', 'Monopoly']","[-0.15, 0.5]","[0.15, 0.5]",1,1,,,,,,,,,0,0,0,0,0,2,2,2,,,,,,,,,,,,,,,,,,,,,,,,,,,,,,,,,,,,,,,,,,,,,,,,,,,,,,,748.9619093040001,None,748.9619093040001,None,748.9619093040001,None,c,0,1.4894889679999324,750.5121291749983,None,750.5121291749983,None,750.5121291749983,None,752.0784834700007,None,752.0784834700007,None,752.0784834700007,None,752.0784834700007,None,,,,,,,,,,,,,,,,,,,,,,,,,,,,,,,,,,,,,,,,,,,,001,169,2020_Feb_25_1358,spring_faces,3.1.5,59.96284426373629,
condition files/Stage1_1.xlsx,,T4,B3,m,"['c', 'm']","['Clue', 'Monopoly']","[-0.15, 0.5]","[0.15, 0.5]",1,1,,,,,,,,,0,0,0,0,0,3,3,6,,,,,,,,,,,,,,,,,,,,,,,,,,,,,,,,,,,,,,,,,,,,,,,,,,,,,,,754.0290031120003,None,754.0290031120003,None,754.0290031120003,None,c,0,1.62257434699859,755.5790675509979,None,755.5790675509979,None,755.5790675509979,None,757.2622101120014,None,757.2622101120014,None,757.2622101120014,None,757.2622101120014,None,,,,,,,,,,,,,,,,,,,,,,,,,,,,,,,,,,,,,,,,,,,,001,169,2020_Feb_25_1358,spring_faces,3.1.5,59.96284426373629,
condition files/Stage1_1.xlsx,,T3,B4,c,"['c', 'm']","['Clue', 'Monopoly']","[-0.15, 0.5]","[0.15, 0.5]",1,1,,,,,,,,,0,0,0,0,0,4,4,5,,,,,,,,,,,,,,,,,,,,,,,,,,,,,,,,,,,,,,,,,,,,,,,,,,,,,,,759.2288323800003,None,759.2288323800003,None,759.2288323800003,None,c,1,1.1748332149982161,760.7788286039995,None,760.7788286039995,None,760.7788286039995,None,762.0147668289992,None,762.0147668289992,None,762.0147668289992,None,762.0147668289992,None,,,,,,,,,,,,,,,,,,,,,,,,,,,,,,,,,,,,,,,,,,,,001,169,2020_Feb_25_1358,spring_faces,3.1.5,59.96284426373629,
condition files/Stage1_1.xlsx,,B4,T4,m,"['c', 'm']","['Clue', 'Monopoly']","[-0.15, 0.5]","[0.15, 0.5]",1,1,,,,,,,,,0,0,0,0,0,5,5,7,,,,,,,,,,,,,,,,,,,,,,,,,,,,,,,,,,,,,,,,,,,,,,,,,,,,,,,763.9788301989993,None,763.9788301989993,None,763.9788301989993,None,c,0,0.9361342459997104,765.5135047390013,None,765.5135047390013,None,765.5135047390013,None,766.5295491659981,None,766.5295491659981,None,766.5295491659981,None,766.5295491659981,None,,,,,,,,,,,,,,,,,,,,,,,,,,,,,,,,,,,,,,,,,,,,001,169,2020_Feb_25_1358,spring_faces,3.1.5,59.96284426373629,
condition files/Stage1_1.xlsx,,T2,B2,m,"['c', 'm']","['Clue', 'Monopoly']","[-0.15, 0.5]","[0.15, 0.5]",1,1,,,,,,,,,0,0,0,0,0,6,6,3,,,,,,,,,,,,,,,,,,,,,,,,,,,,,,,,,,,,,,,,,,,,,,,,,,,,,,,768.4788341350013,None,768.4788341350013,None,768.4788341350013,None,c,0,0.9486598570001661,770.0289871920013,None,770.0289871920013,None,770.0289871920013,None,771.0292535540011,None,771.0292535540011,None,771.0292535540011,None,771.0292535540011,None,,,,,,,,,,,,,,,,,,,,,,,,,,,,,,,,,,,,,,,,,,,,001,169,2020_Feb_25_1358,spring_faces,3.1.5,59.96284426373629,
condition files/Stage1_1.xlsx,,B1,T2,c,"['c', 'm']","['Clue', 'Monopoly']","[-0.15, 0.5]","[0.15, 0.5]",1,1,,,,,,,,,0,0,0,0,0,7,7,1,,,,,,,,,,,,,,,,,,,,,,,,,,,,,,,,,,,,,,,,,,,,,,,,,,,,,,,772.9953972230014,None,772.9953972230014,None,772.9953972230014,None,m,0,1.072943878996739,774.5287058900012,None,774.5287058900012,None,774.5287058900012,None,775.6625860820004,None,775.6625860820004,None,775.6625860820004,None,775.6625860820004,None,,,,,,,,,,,,,,,,,,,,,,,,,,,,,,,,,,,,,,,,,,,,001,169,2020_Feb_25_1358,spring_faces,3.1.5,59.96284426373629,
condition files/Stage1_2.xlsx,,B4,T3,c,"['c', 'm']","['Clue', 'Monopoly']","[-0.15, 0.5]","[0.15, 0.5]",1,1,,,,,,,,,0,1,1,1,0,0,0,5,,,,,,,,,,,,,,,,,,,,,,,,,,,,,,,,,,,,,,,,,,,,,,,,,,,,,,,777.6455888440014,None,777.6455888440014,None,777.6455888440014,None,m,0,1.1104796969993913,779.1951857209988,None,779.1951857209988,None,779.1951857209988,None,780.3625507870001,None,780.3625507870001,None,780.3625507870001,None,780.3625507870001,None,,,,,,,,,,,,,,,,,,,,,,,,,,,,,,,,,,,,,,,,,,,,001,169,2020_Feb_25_1358,spring_faces,3.1.5,59.96284426373629,
condition files/Stage1_2.xlsx,,B2,T2,m,"['c', 'm']","['Clue', 'Monopoly']","[-0.15, 0.5]","[0.15, 0.5]",1,1,,,,,,,,,0,1,1,1,0,1,1,3,,,,,,,,,,,,,,,,,,,,,,,,,,,,,,,,,,,,,,,,,,,,,,,,,,,,,,,782.328143779001,None,782.328143779001,None,782.328143779001,None,m,1,0.8415667280023627,783.864113433001,None,783.864113433001,None,783.864113433001,None,784.7647715609983,None,784.7647715609983,None,784.7647715609983,None,784.7647715609983,None,,,,,,,,,,,,,,,,,,,,,,,,,,,,,,,,,,,,,,,,,,,,001,169,2020_Feb_25_1358,spring_faces,3.1.5,59.96284426373629,
condition files/Stage1_2.xlsx,,T2,B1,c,"['c', 'm']","['Clue', 'Monopoly']","[-0.15, 0.5]","[0.15, 0.5]",1,1,,,,,,,,,0,1,1,1,0,2,2,1,,,,,,,,,,,,,,,,,,,,,,,,,,,,,,,,,,,,,,,,,,,,,,,,,,,,,,,786.7289390909991,None,786.7289390909991,None,786.7289390909991,None,c,1,1.3388595090000308,788.2787648159992,None,788.2787648159992,None,788.2787648159992,None,789.6958182559993,None,789.6958182559993,None,789.6958182559993,None,789.6958182559993,None,,,,,,,,,,,,,,,,,,,,,,,,,,,,,,,,,,,,,,,,,,,,001,169,2020_Feb_25_1358,spring_faces,3.1.5,59.96284426373629,
condition files/Stage1_2.xlsx,,T1,B2,m,"['c', 'm']","['Clue', 'Monopoly']","[-0.15, 0.5]","[0.15, 0.5]",1,1,,,,,,,,,0,1,1,1,0,3,3,2,,,,,,,,,,,,,,,,,,,,,,,,,,,,,,,,,,,,,,,,,,,,,,,,,,,,,,,791.646026204,None,791.646026204,None,791.646026204,None,m,1,1.6701250660007645,793.1954892220001,None,793.1954892220001,None,793.1954892220001,None,794.9308018329994,None,794.9308018329994,None,794.9308018329994,None,794.9308018329994,None,,,,,,,,,,,,,,,,,,,,,,,,,,,,,,,,,,,,,,,,,,,,001,169,2020_Feb_25_1358,spring_faces,3.1.5,59.96284426373629,
condition files/Stage1_2.xlsx,,T3,B3,c,"['c', 'm']","['Clue', 'Monopoly']","[-0.15, 0.5]","[0.15, 0.5]",1,1,,,,,,,,,0,1,1,1,0,4,4,4,,,,,,,,,,,,,,,,,,,,,,,,,,,,,,,,,,,,,,,,,,,,,,,,,,,,,,,796.8954632740006,None,796.8954632740006,None,796.8954632740006,None,m,0,0.9477449289988726,798.4458635850006,None,798.4458635850006,None,798.4458635850006,None,799.4476779609995,None,799.4476779609995,None,799.4476779609995,None,799.4476779609995,None,,,,,,,,,,,,,,,,,,,,,,,,,,,,,,,,,,,,,,,,,,,,001,169,2020_Feb_25_1358,spring_faces,3.1.5,59.96284426373629,
condition files/Stage1_2.xlsx,,T4,B4,m,"['c', 'm']","['Clue', 'Monopoly']","[-0.15, 0.5]","[0.15, 0.5]",1,1,,,,,,,,,0,1,1,1,0,5,5,7,,,,,,,,,,,,,,,,,,,,,,,,,,,,,,,,,,,,,,,,,,,,,,,,,,,,,,,801.4120414869994,None,801.4120414869994,None,801.4120414869994,None,m,1,0.9272752969991416,802.9463062630002,None,802.9463062630002,None,802.9463062630002,None,803.9301278359981,None,803.9301278359981,None,803.9301278359981,None,803.9301278359981,None,,,,,,,,,,,,,,,,,,,,,,,,,,,,,,,,,,,,,,,,,,,,001,169,2020_Feb_25_1358,spring_faces,3.1.5,59.96284426373629,
condition files/Stage1_2.xlsx,,B3,T4,m,"['c', 'm']","['Clue', 'Monopoly']","[-0.15, 0.5]","[0.15, 0.5]",1,1,,,,,,,,,0,1,1,1,0,6,6,6,,,,,,,,,,,,,,,,,,,,,,,,,,,,,,,,,,,,,,,,,,,,,,,,,,,,,,,805.8957860040009,None,805.8957860040009,None,805.8957860040009,None,c,0,0.7802244129998144,807.4293867819997,None,807.4293867819997,None,807.4293867819997,None,808.2626669719994,None,808.2626669719994,None,808.2626669719994,None,808.2626669719994,None,,,,,,,,,,,,,,,,,,,,,,,,,,,,,,,,,,,,,,,,,,,,001,169,2020_Feb_25_1358,spring_faces,3.1.5,59.96284426373629,
condition files/Stage1_2.xlsx,,B1,T1,c,"['c', 'm']","['Clue', 'Monopoly']","[-0.15, 0.5]","[0.15, 0.5]",1,1,,,,,,,,,0,1,1,1,0,7,7,0,,,,,,,,,,,,,,,,,,,,,,,,,,,,,,,,,,,,,,,,,,,,,,,,,,,,,,,810.2282073119986,None,810.2282073119986,None,810.2282073119986,None,m,0,0.6384800679988984,811.7791408539979,None,811.7791408539979,None,811.7791408539979,None,812.4808556330008,None,812.4808556330008,None,812.4808556330008,None,812.4808556330008,None,,,,,,,,,,,,,,,,,,,,,,,,,,,,,,,,,,,,,,,,,,,,001,169,2020_Feb_25_1358,spring_faces,3.1.5,59.96284426373629,
condition files/Stage1_1.xlsx,,B2,T1,m,"['c', 'm']","['Clue', 'Monopoly']","[-0.15, 0.5]","[0.15, 0.5]",1,1,,,,,,,,,0,2,2,2,0,0,0,2,,,,,,,,,,,,,,,,,,,,,,,,,,,,,,,,,,,,,,,,,,,,,,,,,,,,,,,814.4621938510008,None,814.4621938510008,None,814.4621938510008,None,c,0,0.5972701539976697,816.012328513998,None,816.012328513998,None,816.012328513998,None,816.6784353790008,None,816.6784353790008,None,816.6784353790008,None,816.6784353790008,None,,,,,,,,,,,,,,,,,,,,,,,,,,,,,,,,,,,,,,,,,,,,001,169,2020_Feb_25_1358,spring_faces,3.1.5,59.96284426373629,
condition files/Stage1_1.xlsx,,B3,T3,c,"['c', 'm']","['Clue', 'Monopoly']","[-0.15, 0.5]","[0.15, 0.5]",1,1,,,,,,,,,0,2,2,2,0,1,1,4,,,,,,,,,,,,,,,,,,,,,,,,,,,,,,,,,,,,,,,,,,,,,,,,,,,,,,,818.6289608639981,None,818.6289608639981,None,818.6289608639981,None,m,0,0.3509503389977908,820.1626016130012,None,820.1626016130012,None,820.1626016130012,None,820.5789116389988,None,820.5789116389988,None,820.5789116389988,None,820.5789116389988,None,,,,,,,,,,,,,,,,,,,,,,,,,,,,,,,,,,,,,,,,,,,,001,169,2020_Feb_25_1358,spring_faces,3.1.5,59.96284426373629,
condition files/Stage1_1.xlsx,,B1,T2,c,"['c', 'm']","['Clue', 'Monopoly']","[-0.15, 0.5]","[0.15, 0.5]",1,1,,,,,,,,,0,2,2,2,0,2,2,1,,,,,,,,,,,,,,,,,,,,,,,,,,,,,,,,,,,,,,,,,,,,,,,,,,,,,,,822.5449684809992,None,822.5449684809992,None,822.5449684809992,None,m,0,0.8178571839998767,824.0956713040014,None,824.0956713040014,None,824.0956713040014,None,824.9784347849982,None,824.9784347849982,None,824.9784347849982,None,824.9784347849982,None,,,,,,,,,,,,,,,,,,,,,,,,,,,,,,,,,,,,,,,,,,,,001,169,2020_Feb_25_1358,spring_faces,3.1.5,59.96284426373629,
condition files/Stage1_1.xlsx,,T3,B4,c,"['c', 'm']","['Clue', 'Monopoly']","[-0.15, 0.5]","[0.15, 0.5]",1,1,,,,,,,,,0,2,2,2,0,3,3,5,,,,,,,,,,,,,,,,,,,,,,,,,,,,,,,,,,,,,,,,,,,,,,,,,,,,,,,826.9452611770012,None,826.9452611770012,None,826.9452611770012,None,c,1,0.33816562600259203,828.4794512600001,None,828.4794512600001,None,828.4794512600001,None,828.878769443998,None,828.878769443998,None,828.878769443998,None,828.878769443998,None,,,,,,,,,,,,,,,,,,,,,,,,,,,,,,,,,,,,,,,,,,,,001,169,2020_Feb_25_1358,spring_faces,3.1.5,59.96284426373629,
condition files/Stage1_1.xlsx,,T4,B3,m,"['c', 'm']","['Clue', 'Monopoly']","[-0.15, 0.5]","[0.15, 0.5]",1,1,,,,,,,,,0,2,2,2,0,4,4,6,,,,,,,,,,,,,,,,,,,,,,,,,,,,,,,,,,,,,,,,,,,,,,,,,,,,,,,830.8452628389987,None,830.8452628389987,None,830.8452628389987,None,c,0,0.5017890050003189,832.3958041079986,None,832.3958041079986,None,832.3958041079986,None,832.9792716579996,None,832.9792716579996,None,832.9792716579996,None,832.9792716579996,None,,,,,,,,,,,,,,,,,,,,,,,,,,,,,,,,,,,,,,,,,,,,001,169,2020_Feb_25_1358,spring_faces,3.1.5,59.96284426373629,
condition files/Stage1_1.xlsx,,T2,B2,m,"['c', 'm']","['Clue', 'Monopoly']","[-0.15, 0.5]","[0.15, 0.5]",1,1,,,,,,,,,0,2,2,2,0,5,5,3,,,,,,,,,,,,,,,,,,,,,,,,,,,,,,,,,,,,,,,,,,,,,,,,,,,,,,,834.928835976998,None,834.928835976998,None,834.928835976998,None,m,1,0.7211035520012956,836.4644865329992,None,836.4644865329992,None,836.4644865329992,None,837.246066398,None,837.246066398,None,837.246066398,None,837.246066398,None,,,,,,,,,,,,,,,,,,,,,,,,,,,,,,,,,,,,,,,,,,,,001,169,2020_Feb_25_1358,spring_faces,3.1.5,59.96284426373629,
condition files/Stage1_1.xlsx,,T1,B1,c,"['c', 'm']","['Clue', 'Monopoly']","[-0.15, 0.5]","[0.15, 0.5]",1,1,,,,,,,,,0,2,2,2,0,6,6,0,,,,,,,,,,,,,,,,,,,,,,,,,,,,,,,,,,,,,,,,,,,,,,,,,,,,,,,839.2121510310008,None,839.2121510310008,None,839.2121510310008,None,c,1,1.2710982479984523,840.7625511399983,None,840.7625511399983,None,840.7625511399983,None,842.1123516919997,None,842.1123516919997,None,842.1123516919997,None,842.1123516919997,None,,,,,,,,,,,,,,,,,,,,,,,,,,,,,,,,,,,,,,,,,,,,001,169,2020_Feb_25_1358,spring_faces,3.1.5,59.96284426373629,
condition files/Stage1_1.xlsx,,B4,T4,m,"['c', 'm']","['Clue', 'Monopoly']","[-0.15, 0.5]","[0.15, 0.5]",1,1,,,,,,,,,0,2,2,2,0,7,7,7,,,,,,,,,,,,,,,,,,,,,,,,,,,,,,,,,,,,,,,,,,,,,,,,,,,,,,,844.0625189680013,None,844.0625189680013,None,844.0625189680013,None,c,0,1.2049082720004662,845.6127149779986,None,845.6127149779986,None,845.6127149779986,None,846.8812887279983,None,846.8812887279983,None,846.8812887279983,None,846.8812887279983,None,,,,,,,,,,,,,,,,,,,,,,,,,,,,,,,,,,,,,,,,,,,,001,169,2020_Feb_25_1358,spring_faces,3.1.5,59.96284426373629,
condition files/Stage1_2.xlsx,,T3,B3,c,"['c', 'm']","['Clue', 'Monopoly']","[-0.15, 0.5]","[0.15, 0.5]",1,1,,,,,,,,,0,3,3,3,0,0,0,4,,,,,,,,,,,,,,,,,,,,,,,,,,,,,,,,,,,,,,,,,,,,,,,,,,,,,,,848.8626594739999,None,848.8626594739999,None,848.8626594739999,None,m,0,0.45335626599990064,850.4122862940003,None,850.4122862940003,None,850.4122862940003,None,850.945760143999,None,850.945760143999,None,850.945760143999,None,850.945760143999,None,,,,,,,,,,,,,,,,,,,,,,,,,,,,,,,,,,,,,,,,,,,,001,169,2020_Feb_25_1358,spring_faces,3.1.5,59.96284426373629,
condition files/Stage1_2.xlsx,,T4,B4,m,"['c', 'm']","['Clue', 'Monopoly']","[-0.15, 0.5]","[0.15, 0.5]",1,1,,,,,,,,,0,3,3,3,0,1,1,7,,,,,,,,,,,,,,,,,,,,,,,,,,,,,,,,,,,,,,,,,,,,,,,,,,,,,,,852.895526448001,None,852.895526448001,None,852.895526448001,None,c,0,1.0594463259985787,854.4301794190014,None,854.4301794190014,None,854.4301794190014,None,855.547810307,None,855.547810307,None,855.547810307,None,855.547810307,None,,,,,,,,,,,,,,,,,,,,,,,,,,,,,,,,,,,,,,,,,,,,001,169,2020_Feb_25_1358,spring_faces,3.1.5,59.96284426373629,
condition files/Stage1_2.xlsx,,T1,B2,m,"['c', 'm']","['Clue', 'Monopoly']","[-0.15, 0.5]","[0.15, 0.5]",1,1,,,,,,,,,0,3,3,3,0,2,2,2,,,,,,,,,,,,,,,,,,,,,,,,,,,,,,,,,,,,,,,,,,,,,,,,,,,,,,,857.5126145160011,None,857.5126145160011,None,857.5126145160011,None,m,1,0.23490347099868814,859.0626995929979,None,859.0626995929979,None,859.0626995929979,None,859.3623647779987,None,859.3623647779987,None,859.3623647779987,None,859.3623647779987,None,,,,,,,,,,,,,,,,,,,,,,,,,,,,,,,,,,,,,,,,,,,,001,169,2020_Feb_25_1358,spring_faces,3.1.5,59.96284426373629,
condition files/Stage1_2.xlsx,,B4,T3,c,"['c', 'm']","['Clue', 'Monopoly']","[-0.15, 0.5]","[0.15, 0.5]",1,1,,,,,,,,,0,3,3,3,0,3,3,5,,,,,,,,,,,,,,,,,,,,,,,,,,,,,,,,,,,,,,,,,,,,,,,,,,,,,,,861.3285904540007,None,861.3285904540007,None,861.3285904540007,None,c,1,0.35456632299974444,862.8790763919988,None,862.8790763919988,None,862.8790763919988,None,863.2974814169993,None,863.2974814169993,None,863.2974814169993,None,863.2974814169993,None,,,,,,,,,,,,,,,,,,,,,,,,,,,,,,,,,,,,,,,,,,,,001,169,2020_Feb_25_1358,spring_faces,3.1.5,59.96284426373629,
condition files/Stage1_2.xlsx,,B2,T2,m,"['c', 'm']","['Clue', 'Monopoly']","[-0.15, 0.5]","[0.15, 0.5]",1,1,,,,,,,,,0,3,3,3,0,4,4,3,,,,,,,,,,,,,,,,,,,,,,,,,,,,,,,,,,,,,,,,,,,,,,,,,,,,,,,865.2619517219991,None,865.2619517219991,None,865.2619517219991,None,m,1,0.3732085840019863,866.8124463309996,None,866.8124463309996,None,866.8124463309996,None,867.2465205950011,None,867.2465205950011,None,867.2465205950011,None,867.2465205950011,None,,,,,,,,,,,,,,,,,,,,,,,,,,,,,,,,,,,,,,,,,,,,001,169,2020_Feb_25_1358,spring_faces,3.1.5,59.96284426373629,
condition files/Stage1_2.xlsx,,B3,T4,m,"['c', 'm']","['Clue', 'Monopoly']","[-0.15, 0.5]","[0.15, 0.5]",1,1,,,,,,,,,0,3,3,3,0,5,5,6,,,,,,,,,,,,,,,,,,,,,,,,,,,,,,,,,,,,,,,,,,,,,,,,,,,,,,,869.2120110589985,None,869.2120110589985,None,869.2120110589985,None,c,0,0.5202980790018046,870.7453384700002,None,870.7453384700002,None,870.7453384700002,None,871.3288299190008,None,871.3288299190008,None,871.3288299190008,None,871.3288299190008,None,,,,,,,,,,,,,,,,,,,,,,,,,,,,,,,,,,,,,,,,,,,,001,169,2020_Feb_25_1358,spring_faces,3.1.5,59.96284426373629,
condition files/Stage1_2.xlsx,,T2,B1,c,"['c', 'm']","['Clue', 'Monopoly']","[-0.15, 0.5]","[0.15, 0.5]",1,1,,,,,,,,,0,3,3,3,0,6,6,1,,,,,,,,,,,,,,,,,,,,,,,,,,,,,,,,,,,,,,,,,,,,,,,,,,,,,,,873.2955394569999,None,873.2955394569999,None,873.2955394569999,None,m,0,0.45188656200116384,874.8456925240007,None,874.8456925240007,None,874.8456925240007,None,875.3647854559986,None,875.3647854559986,None,875.3647854559986,None,875.3647854559986,None,,,,,,,,,,,,,,,,,,,,,,,,,,,,,,,,,,,,,,,,,,,,001,169,2020_Feb_25_1358,spring_faces,3.1.5,59.96284426373629,
condition files/Stage1_2.xlsx,,B1,T1,c,"['c', 'm']","['Clue', 'Monopoly']","[-0.15, 0.5]","[0.15, 0.5]",1,1,,,,,,,,,0,3,3,3,0,7,7,0,,,,,,,,,,,,,,,,,,,,,,,,,,,,,,,,,,,,,,,,,,,,,,,,,,,,,,,877.3288119240005,None,877.3288119240005,None,877.3288119240005,None,m,0,0.4351466279986198,878.8784166770001,None,878.8784166770001,None,878.8784166770001,None,879.3790974060012,None,879.3790974060012,None,879.3790974060012,None,879.3790974060012,None,,,,,,,,,,,,,,,,,,,,,,,,,,,,,,,,,,,,,,,,,,,,001,169,2020_Feb_25_1358,spring_faces,3.1.5,59.96284426373629,
condition files/Stage1_1.xlsx,,T4,B3,m,"['c', 'm']","['Clue', 'Monopoly']","[-0.15, 0.5]","[0.15, 0.5]",1,1,,,,,,,,,0,4,4,4,0,0,0,6,,,,,,,,,,,,,,,,,,,,,,,,,,,,,,,,,,,,,,,,,,,,,,,,,,,,,,,881.3621776060008,None,881.3621776060008,None,881.3621776060008,None,c,0,0.3212834789992485,882.9123489079993,None,882.9123489079993,None,882.9123489079993,None,883.3123952570004,None,883.3123952570004,None,883.3123952570004,None,883.3123952570004,None,,,,,,,,,,,,,,,,,,,,,,,,,,,,,,,,,,,,,,,,,,,,001,169,2020_Feb_25_1358,spring_faces,3.1.5,59.96284426373629,
condition files/Stage1_1.xlsx,,T3,B4,c,"['c', 'm']","['Clue', 'Monopoly']","[-0.15, 0.5]","[0.15, 0.5]",1,1,,,,,,,,,0,4,4,4,0,1,1,5,,,,,,,,,,,,,,,,,,,,,,,,,,,,,,,,,,,,,,,,,,,,,,,,,,,,,,,885.2620950170003,None,885.2620950170003,None,885.2620950170003,None,m,0,0.5171109559996694,886.812461219999,None,886.812461219999,None,886.812461219999,None,887.3954605950003,None,887.3954605950003,None,887.3954605950003,None,887.3954605950003,None,,,,,,,,,,,,,,,,,,,,,,,,,,,,,,,,,,,,,,,,,,,,001,169,2020_Feb_25_1358,spring_faces,3.1.5,59.96284426373629,
condition files/Stage1_1.xlsx,,B3,T3,c,"['c', 'm']","['Clue', 'Monopoly']","[-0.15, 0.5]","[0.15, 0.5]",1,1,,,,,,,,,0,4,4,4,0,2,2,4,,,,,,,,,,,,,,,,,,,,,,,,,,,,,,,,,,,,,,,,,,,,,,,,,,,,,,,889.362141536998,None,889.362141536998,None,889.362141536998,None,c,1,0.5454330039974593,890.8961659020006,None,890.8961659020006,None,890.8961659020006,None,891.4956131039999,None,891.4956131039999,None,891.4956131039999,None,891.4956131039999,None,,,,,,,,,,,,,,,,,,,,,,,,,,,,,,,,,,,,,,,,,,,,001,169,2020_Feb_25_1358,spring_faces,3.1.5,59.96284426373629,
condition files/Stage1_1.xlsx,,T2,B2,m,"['c', 'm']","['Clue', 'Monopoly']","[-0.15, 0.5]","[0.15, 0.5]",1,1,,,,,,,,,0,4,4,4,0,3,3,3,,,,,,,,,,,,,,,,,,,,,,,,,,,,,,,,,,,,,,,,,,,,,,,,,,,,,,,893.4623636289998,None,893.4623636289998,None,893.4623636289998,None,m,1,0.8616578829969512,895.011899182,None,895.011899182,None,895.011899182,None,895.930826965001,None,895.930826965001,None,895.930826965001,None,895.930826965001,None,,,,,,,,,,,,,,,,,,,,,,,,,,,,,,,,,,,,,,,,,,,,001,169,2020_Feb_25_1358,spring_faces,3.1.5,59.96284426373629,
condition files/Stage1_1.xlsx,,B4,T4,m,"['c', 'm']","['Clue', 'Monopoly']","[-0.15, 0.5]","[0.15, 0.5]",1,1,,,,,,,,,0,4,4,4,0,4,4,7,,,,,,,,,,,,,,,,,,,,,,,,,,,,,,,,,,,,,,,,,,,,,,,,,,,,,,,897.8955416420013,None,897.8955416420013,None,897.8955416420013,None,m,1,0.4756584919996385,899.4459350310008,None,899.4459350310008,None,899.4459350310008,None,899.9788846809988,None,899.9788846809988,None,899.9788846809988,None,899.9788846809988,None,,,,,,,,,,,,,,,,,,,,,,,,,,,,,,,,,,,,,,,,,,,,001,169,2020_Feb_25_1358,spring_faces,3.1.5,59.96284426373629,
condition files/Stage1_1.xlsx,,T1,B1,c,"['c', 'm']","['Clue', 'Monopoly']","[-0.15, 0.5]","[0.15, 0.5]",1,1,,,,,,,,,0,4,4,4,0,5,5,0,,,,,,,,,,,,,,,,,,,,,,,,,,,,,,,,,,,,,,,,,,,,,,,,,,,,,,,901.9458789100008,None,901.9458789100008,None,901.9458789100008,None,m,0,0.34643115300059435,903.4793785509992,None,903.4793785509992,None,903.4793785509992,None,903.8809805100009,None,903.8809805100009,None,903.8809805100009,None,903.8809805100009,None,,,,,,,,,,,,,,,,,,,,,,,,,,,,,,,,,,,,,,,,,,,,001,169,2020_Feb_25_1358,spring_faces,3.1.5,59.96284426373629,
condition files/Stage1_1.xlsx,,B1,T2,c,"['c', 'm']","['Clue', 'Monopoly']","[-0.15, 0.5]","[0.15, 0.5]",1,1,,,,,,,,,0,4,4,4,0,6,6,1,,,,,,,,,,,,,,,,,,,,,,,,,,,,,,,,,,,,,,,,,,,,,,,,,,,,,,,905.8452159710014,None,905.8452159710014,None,905.8452159710014,None,c,1,0.3336254050009302,907.3959208719989,None,907.3959208719989,None,907.3959208719989,None,907.7959630659989,None,907.7959630659989,None,907.7959630659989,None,907.7959630659989,None,,,,,,,,,,,,,,,,,,,,,,,,,,,,,,,,,,,,,,,,,,,,001,169,2020_Feb_25_1358,spring_faces,3.1.5,59.96284426373629,
condition files/Stage1_1.xlsx,,B2,T1,m,"['c', 'm']","['Clue', 'Monopoly']","[-0.15, 0.5]","[0.15, 0.5]",1,1,,,,,,,,,0,4,4,4,0,7,7,2,,,,,,,,,,,,,,,,,,,,,,,,,,,,,,,,,,,,,,,,,,,,,,,,,,,,,,,909.762394217998,None,909.762394217998,None,909.762394217998,None,m,1,0.4662543939994066,911.2953623669982,None,911.2953623669982,None,911.2953623669982,None,911.8291725010004,None,911.8291725010004,None,911.8291725010004,None,911.8291725010004,None,,,,,,,,,,,,,,,,,,,,,,,,,,,,,,,,,,,,,,,,,,,,001,169,2020_Feb_25_1358,spring_faces,3.1.5,59.96284426373629,
condition files/Stage1_2.xlsx,,T4,B4,m,"['c', 'm']","['Clue', 'Monopoly']","[-0.15, 0.5]","[0.15, 0.5]",1,1,,,,,,,,,0,5,5,5,0,0,0,7,,,,,,,,,,,,,,,,,,,,,,,,,,,,,,,,,,,,,,,,,,,,,,,,,,,,,,,913.795815866999,None,913.795815866999,None,913.795815866999,None,c,0,0.33578674100135686,915.3458185079999,None,915.3458185079999,None,915.3458185079999,None,915.7455988849997,None,915.7455988849997,None,915.7455988849997,None,915.7455988849997,None,,,,,,,,,,,,,,,,,,,,,,,,,,,,,,,,,,,,,,,,,,,,001,169,2020_Feb_25_1358,spring_faces,3.1.5,59.96284426373629,
condition files/Stage1_2.xlsx,,B2,T2,m,"['c', 'm']","['Clue', 'Monopoly']","[-0.15, 0.5]","[0.15, 0.5]",1,1,,,,,,,,,0,5,5,5,0,1,1,3,,,,,,,,,,,,,,,,,,,,,,,,,,,,,,,,,,,,,,,,,,,,,,,,,,,,,,,917.711675419001,None,917.711675419001,None,917.711675419001,None,m,1,0.4031937870022375,919.2624459560011,None,919.2624459560011,None,919.2624459560011,None,919.7286261589998,None,919.7286261589998,None,919.7286261589998,None,919.7286261589998,None,,,,,,,,,,,,,,,,,,,,,,,,,,,,,,,,,,,,,,,,,,,,001,169,2020_Feb_25_1358,spring_faces,3.1.5,59.96284426373629,
condition files/Stage1_2.xlsx,,T1,B2,m,"['c', 'm']","['Clue', 'Monopoly']","[-0.15, 0.5]","[0.15, 0.5]",1,1,,,,,,,,,0,5,5,5,0,2,2,2,,,,,,,,,,,,,,,,,,,,,,,,,,,,,,,,,,,,,,,,,,,,,,,,,,,,,,,921.69601917,None,921.69601917,None,921.69601917,None,c,0,0.38760701100181905,923.2460101880006,None,923.2460101880006,None,923.2460101880006,None,923.6955840959981,None,923.6955840959981,None,923.6955840959981,None,923.6955840959981,None,,,,,,,,,,,,,,,,,,,,,,,,,,,,,,,,,,,,,,,,,,,,001,169,2020_Feb_25_1358,spring_faces,3.1.5,59.96284426373629,
condition files/Stage1_2.xlsx,,B4,T3,c,"['c', 'm']","['Clue', 'Monopoly']","[-0.15, 0.5]","[0.15, 0.5]",1,1,,,,,,,,,0,5,5,5,0,3,3,5,,,,,,,,,,,,,,,,,,,,,,,,,,,,,,,,,,,,,,,,,,,,,,,,,,,,,,,925.6622208139979,None,925.6622208139979,None,925.6622208139979,None,m,0,0.37217868200241355,927.1974694410001,None,927.1974694410001,None,927.1974694410001,None,927.6460079410008,None,927.6460079410008,None,927.6460079410008,None,927.6460079410008,None,,,,,,,,,,,,,,,,,,,,,,,,,,,,,,,,,,,,,,,,,,,,001,169,2020_Feb_25_1358,spring_faces,3.1.5,59.96284426373629,
condition files/Stage1_2.xlsx,,T3,B3,c,"['c', 'm']","['Clue', 'Monopoly']","[-0.15, 0.5]","[0.15, 0.5]",1,1,,,,,,,,,0,5,5,5,0,4,4,4,,,,,,,,,,,,,,,,,,,,,,,,,,,,,,,,,,,,,,,,,,,,,,,,,,,,,,,929.5955587039989,None,929.5955587039989,None,929.5955587039989,None,c,1,0.3767265239985136,931.1288325449987,None,931.1288325449987,None,931.1288325449987,None,931.5623403619993,None,931.5623403619993,None,931.5623403619993,None,931.5623403619993,None,,,,,,,,,,,,,,,,,,,,,,,,,,,,,,,,,,,,,,,,,,,,001,169,2020_Feb_25_1358,spring_faces,3.1.5,59.96284426373629,
condition files/Stage1_2.xlsx,,B1,T1,c,"['c', 'm']","['Clue', 'Monopoly']","[-0.15, 0.5]","[0.15, 0.5]",1,1,,,,,,,,,0,5,5,5,0,5,5,0,,,,,,,,,,,,,,,,,,,,,,,,,,,,,,,,,,,,,,,,,,,,,,,,,,,,,,,933.528769434999,None,933.528769434999,None,933.528769434999,None,c,1,0.6677233080008591,935.0619016279979,None,935.0619016279979,None,935.0619016279979,None,935.7955160449983,None,935.7955160449983,None,935.7955160449983,None,935.7955160449983,None,,,,,,,,,,,,,,,,,,,,,,,,,,,,,,,,,,,,,,,,,,,,001,169,2020_Feb_25_1358,spring_faces,3.1.5,59.96284426373629,
condition files/Stage1_2.xlsx,,B3,T4,m,"['c', 'm']","['Clue', 'Monopoly']","[-0.15, 0.5]","[0.15, 0.5]",1,1,,,,,,,,,0,5,5,5,0,6,6,6,,,,,,,,,,,,,,,,,,,,,,,,,,,,,,,,,,,,,,,,,,,,,,,,,,,,,,,937.7618642959987,None,937.7618642959987,None,937.7618642959987,None,m,1,0.3860656500000914,939.2955609340006,None,939.2955609340006,None,939.2955609340006,None,939.7477283889984,None,939.7477283889984,None,939.7477283889984,None,939.7477283889984,None,,,,,,,,,,,,,,,,,,,,,,,,,,,,,,,,,,,,,,,,,,,,001,169,2020_Feb_25_1358,spring_faces,3.1.5,59.96284426373629,
condition files/Stage1_2.xlsx,,T2,B1,c,"['c', 'm']","['Clue', 'Monopoly']","[-0.15, 0.5]","[0.15, 0.5]",1,1,,,,,,,,,0,5,5,5,0,7,7,1,,,,,,,,,,,,,,,,,,,,,,,,,,,,,,,,,,,,,,,,,,,,,,,,,,,,,,,941.7119844669996,None,941.7119844669996,None,941.7119844669996,None,c,1,0.4509726190008223,943.2626109709981,None,943.2626109709981,None,943.2626109709981,None,943.795982439,None,943.795982439,None,943.795982439,None,943.795982439,None,,,,,,,,,,,,,,,,,,,,,,,,,,,,,,,,,,,,,,,,,,,,001,169,2020_Feb_25_1358,spring_faces,3.1.5,59.96284426373629,
condition files/Stage1_1.xlsx,,T2,B2,m,"['c', 'm']","['Clue', 'Monopoly']","[-0.15, 0.5]","[0.15, 0.5]",1,1,,,,,,,,,0,6,6,6,0,0,0,3,,,,,,,,,,,,,,,,,,,,,,,,,,,,,,,,,,,,,,,,,,,,,,,,,,,,,,,945.7625808159992,None,945.7625808159992,None,945.7625808159992,None,c,0,0.6408983530018304,947.2967924489985,None,947.2967924489985,None,947.2967924489985,None,947.997131872,None,947.997131872,None,947.997131872,None,947.997131872,None,,,,,,,,,,,,,,,,,,,,,,,,,,,,,,,,,,,,,,,,,,,,001,169,2020_Feb_25_1358,spring_faces,3.1.5,59.96284426373629,
condition files/Stage1_1.xlsx,,B4,T4,m,"['c', 'm']","['Clue', 'Monopoly']","[-0.15, 0.5]","[0.15, 0.5]",1,1,,,,,,,,,0,6,6,6,0,1,1,7,,,,,,,,,,,,,,,,,,,,,,,,,,,,,,,,,,,,,,,,,,,,,,,,,,,,,,,949.9615060289998,None,949.9615060289998,None,949.9615060289998,None,m,1,0.5052730059978785,951.5123549180007,None,951.5123549180007,None,951.5123549180007,None,952.0788022420002,None,952.0788022420002,None,952.0788022420002,None,952.0788022420002,None,,,,,,,,,,,,,,,,,,,,,,,,,,,,,,,,,,,,,,,,,,,,001,169,2020_Feb_25_1358,spring_faces,3.1.5,59.96284426373629,
condition files/Stage1_1.xlsx,,B2,T1,m,"['c', 'm']","['Clue', 'Monopoly']","[-0.15, 0.5]","[0.15, 0.5]",1,1,,,,,,,,,0,6,6,6,0,2,2,2,,,,,,,,,,,,,,,,,,,,,,,,,,,,,,,,,,,,,,,,,,,,,,,,,,,,,,,954.0454348619987,None,954.0454348619987,None,954.0454348619987,None,c,0,0.661770692000573,955.5957974370012,None,955.5957974370012,None,955.5957974370012,None,956.312548246,None,956.312548246,None,956.312548246,None,956.312548246,None,,,,,,,,,,,,,,,,,,,,,,,,,,,,,,,,,,,,,,,,,,,,001,169,2020_Feb_25_1358,spring_faces,3.1.5,59.96284426373629,
condition files/Stage1_1.xlsx,,B3,T3,c,"['c', 'm']","['Clue', 'Monopoly']","[-0.15, 0.5]","[0.15, 0.5]",1,1,,,,,,,,,0,6,6,6,0,3,3,4,,,,,,,,,,,,,,,,,,,,,,,,,,,,,,,,,,,,,,,,,,,,,,,,,,,,,,,958.278763682998,None,958.278763682998,None,958.278763682998,None,m,0,0.3792533940031717,959.8143734079986,None,959.8143734079986,None,959.8143734079986,None,960.2458328090015,None,960.2458328090015,None,960.2458328090015,None,960.2458328090015,None,,,,,,,,,,,,,,,,,,,,,,,,,,,,,,,,,,,,,,,,,,,,001,169,2020_Feb_25_1358,spring_faces,3.1.5,59.96284426373629,
condition files/Stage1_1.xlsx,,T4,B3,m,"['c', 'm']","['Clue', 'Monopoly']","[-0.15, 0.5]","[0.15, 0.5]",1,1,,,,,,,,,0,6,6,6,0,4,4,6,,,,,,,,,,,,,,,,,,,,,,,,,,,,,,,,,,,,,,,,,,,,,,,,,,,,,,,962.2119956779989,None,962.2119956779989,None,962.2119956779989,None,c,0,0.3043960680006421,963.7452530969986,None,963.7452530969986,None,963.7452530969986,None,964.1146892779998,None,964.1146892779998,None,964.1146892779998,None,964.1146892779998,None,,,,,,,,,,,,,,,,,,,,,,,,,,,,,,,,,,,,,,,,,,,,001,169,2020_Feb_25_1358,spring_faces,3.1.5,59.96284426373629,
condition files/Stage1_1.xlsx,,T1,B1,c,"['c', 'm']","['Clue', 'Monopoly']","[-0.15, 0.5]","[0.15, 0.5]",1,1,,,,,,,,,0,6,6,6,0,5,5,0,,,,,,,,,,,,,,,,,,,,,,,,,,,,,,,,,,,,,,,,,,,,,,,,,,,,,,,966.0788240140009,None,966.0788240140009,None,966.0788240140009,None,m,0,0.2602888920009718,967.629328563,None,967.629328563,None,967.629328563,None,967.9618187809992,None,967.9618187809992,None,967.9618187809992,None,967.9618187809992,None,,,,,,,,,,,,,,,,,,,,,,,,,,,,,,,,,,,,,,,,,,,,001,169,2020_Feb_25_1358,spring_faces,3.1.5,59.96284426373629,
condition files/Stage1_1.xlsx,,T3,B4,c,"['c', 'm']","['Clue', 'Monopoly']","[-0.15, 0.5]","[0.15, 0.5]",1,1,,,,,,,,,0,6,6,6,0,6,6,5,,,,,,,,,,,,,,,,,,,,,,,,,,,,,,,,,,,,,,,,,,,,,,,,,,,,,,,969.9120097329996,None,969.9120097329996,None,969.9120097329996,None,m,0,0.6976857619993098,971.4478581659987,None,971.4478581659987,None,971.4478581659987,None,972.1960429990013,None,972.1960429990013,None,972.1960429990013,None,972.1960429990013,None,,,,,,,,,,,,,,,,,,,,,,,,,,,,,,,,,,,,,,,,,,,,001,169,2020_Feb_25_1358,spring_faces,3.1.5,59.96284426373629,
condition files/Stage1_1.xlsx,,B1,T2,c,"['c', 'm']","['Clue', 'Monopoly']","[-0.15, 0.5]","[0.15, 0.5]",1,1,,,,,,,,,0,6,6,6,0,7,7,1,,,,,,,,,,,,,,,,,,,,,,,,,,,,,,,,,,,,,,,,,,,,,,,,,,,,,,,974.1617814180008,None,974.1617814180008,None,974.1617814180008,None,c,1,0.3696085560004576,975.7120048579982,None,975.7120048579982,None,975.7120048579982,None,976.1452610680008,None,976.1452610680008,None,976.1452610680008,None,976.1452610680008,None,,,,,,,,,,,,,,,,,,,,,,,,,,,,,,,,,,,,,,,,,,,,001,169,2020_Feb_25_1358,spring_faces,3.1.5,59.96284426373629,
condition files/Stage1_2.xlsx,,T3,B3,c,"['c', 'm']","['Clue', 'Monopoly']","[-0.15, 0.5]","[0.15, 0.5]",1,1,,,,,,,,,0,7,7,7,0,0,0,4,,,,,,,,,,,,,,,,,,,,,,,,,,,,,,,,,,,,,,,,,,,,,,,,,,,,,,,978.1288367959987,None,978.1288367959987,None,978.1288367959987,None,c,1,0.6585580379978637,979.6791116199984,None,979.6791116199984,None,979.6791116199984,None,980.3955874949988,None,980.3955874949988,None,980.3955874949988,None,980.3955874949988,None,,,,,,,,,,,,,,,,,,,,,,,,,,,,,,,,,,,,,,,,,,,,001,169,2020_Feb_25_1358,spring_faces,3.1.5,59.96284426373629,
condition files/Stage1_2.xlsx,,T2,B1,c,"['c', 'm']","['Clue', 'Monopoly']","[-0.15, 0.5]","[0.15, 0.5]",1,1,,,,,,,,,0,7,7,7,0,1,1,1,,,,,,,,,,,,,,,,,,,,,,,,,,,,,,,,,,,,,,,,,,,,,,,,,,,,,,,982.3615165030005,None,982.3615165030005,None,982.3615165030005,None,m,0,0.4252743270008068,983.9123864429985,None,983.9123864429985,None,983.9123864429985,None,984.3958314789979,None,984.3958314789979,None,984.3958314789979,None,984.3958314789979,None,,,,,,,,,,,,,,,,,,,,,,,,,,,,,,,,,,,,,,,,,,,,001,169,2020_Feb_25_1358,spring_faces,3.1.5,59.96284426373629,
condition files/Stage1_2.xlsx,,B4,T3,c,"['c', 'm']","['Clue', 'Monopoly']","[-0.15, 0.5]","[0.15, 0.5]",1,1,,,,,,,,,0,7,7,7,0,2,2,5,,,,,,,,,,,,,,,,,,,,,,,,,,,,,,,,,,,,,,,,,,,,,,,,,,,,,,,986.3622441639982,None,986.3622441639982,None,986.3622441639982,None,c,1,0.4734384549992683,987.912165071999,None,987.912165071999,None,987.912165071999,None,988.4459803379996,None,988.4459803379996,None,988.4459803379996,None,988.4459803379996,None,,,,,,,,,,,,,,,,,,,,,,,,,,,,,,,,,,,,,,,,,,,,001,169,2020_Feb_25_1358,spring_faces,3.1.5,59.96284426373629,
condition files/Stage1_2.xlsx,,B3,T4,m,"['c', 'm']","['Clue', 'Monopoly']","[-0.15, 0.5]","[0.15, 0.5]",1,1,,,,,,,,,0,7,7,7,0,3,3,6,,,,,,,,,,,,,,,,,,,,,,,,,,,,,,,,,,,,,,,,,,,,,,,,,,,,,,,990.4124403199985,None,990.4124403199985,None,990.4124403199985,None,m,1,0.5827222590014571,991.9468540699982,None,991.9468540699982,None,991.9468540699982,None,992.6120860030005,None,992.6120860030005,None,992.6120860030005,None,992.6120860030005,None,,,,,,,,,,,,,,,,,,,,,,,,,,,,,,,,,,,,,,,,,,,,001,169,2020_Feb_25_1358,spring_faces,3.1.5,59.96284426373629,
condition files/Stage1_2.xlsx,,T1,B2,m,"['c', 'm']","['Clue', 'Monopoly']","[-0.15, 0.5]","[0.15, 0.5]",1,1,,,,,,,,,0,7,7,7,0,4,4,2,,,,,,,,,,,,,,,,,,,,,,,,,,,,,,,,,,,,,,,,,,,,,,,,,,,,,,,994.5621045179996,None,994.5621045179996,None,994.5621045179996,None,c,0,0.3373061160018551,996.0963391880014,None,996.0963391880014,None,996.0963391880014,None,996.4957237399994,None,996.4957237399994,None,996.4957237399994,None,996.4957237399994,None,,,,,,,,,,,,,,,,,,,,,,,,,,,,,,,,,,,,,,,,,,,,001,169,2020_Feb_25_1358,spring_faces,3.1.5,59.96284426373629,
condition files/Stage1_2.xlsx,,T4,B4,m,"['c', 'm']","['Clue', 'Monopoly']","[-0.15, 0.5]","[0.15, 0.5]",1,1,,,,,,,,,0,7,7,7,0,5,5,7,,,,,,,,,,,,,,,,,,,,,,,,,,,,,,,,,,,,,,,,,,,,,,,,,,,,,,,998.4624702029996,None,998.4624702029996,None,998.4624702029996,None,m,1,0.357094850998692,1000.012562386999,None,1000.012562386999,None,1000.012562386999,None,1000.4287279500004,None,1000.4287279500004,None,1000.4287279500004,None,1000.4287279500004,None,,,,,,,,,,,,,,,,,,,,,,,,,,,,,,,,,,,,,,,,,,,,001,169,2020_Feb_25_1358,spring_faces,3.1.5,59.96284426373629,
condition files/Stage1_2.xlsx,,B1,T1,c,"['c', 'm']","['Clue', 'Monopoly']","[-0.15, 0.5]","[0.15, 0.5]",1,1,,,,,,,,,0,7,7,7,0,6,6,0,,,,,,,,,,,,,,,,,,,,,,,,,,,,,,,,,,,,,,,,,,,,,,,,,,,,,,,1002.3952080309991,None,1002.3952080309991,None,1002.3952080309991,None,c,1,0.5204943579992687,1003.9451400269991,None,1003.9451400269991,None,1003.9451400269991,None,1004.5456551879997,None,1004.5456551879997,None,1004.5456551879997,None,1004.5456551879997,None,,,,,,,,,,,,,,,,,,,,,,,,,,,,,,,,,,,,,,,,,,,,001,169,2020_Feb_25_1358,spring_faces,3.1.5,59.96284426373629,
condition files/Stage1_2.xlsx,,B2,T2,m,"['c', 'm']","['Clue', 'Monopoly']","[-0.15, 0.5]","[0.15, 0.5]",1,1,,,,,,,,,0,7,7,7,0,7,7,3,,,,,,,,,,,,,,,,,,,,,,,,,,,,,,,,,,,,,,,,,,,,,,,,,,,,,,,1006.4960839530013,None,1006.4960839530013,None,1006.4960839530013,None,c,0,0.6439821169988136,1008.0456786679988,None,1008.0456786679988,None,1008.0456786679988,None,1008.7626212560008,None,1008.7626212560008,None,1008.7626212560008,None,1008.7626212560008,None,,,,,,,,,,,,,,,,,,,,,,,,,,,,,,,,,,,,,,,,,,,,001,169,2020_Feb_25_1358,spring_faces,3.1.5,59.96284426373629,
condition files/Stage1_1.xlsx,,T2,B2,m,"['c', 'm']","['Clue', 'Monopoly']","[-0.15, 0.5]","[0.15, 0.5]",1,1,,,,,,,,,0,8,8,8,0,0,0,3,,,,,,,,,,,,,,,,,,,,,,,,,,,,,,,,,,,,,,,,,,,,,,,,,,,,,,,1010.7292691249986,None,1010.7292691249986,None,1010.7292691249986,None,m,1,0.31517325099775917,1012.2784437290011,None,1012.2784437290011,None,1012.2784437290011,None,1012.6456455759999,None,1012.6456455759999,None,1012.6456455759999,None,1012.6456455759999,None,,,,,,,,,,,,,,,,,,,,,,,,,,,,,,,,,,,,,,,,,,,,001,169,2020_Feb_25_1358,spring_faces,3.1.5,59.96284426373629,
condition files/Stage1_1.xlsx,,B2,T1,m,"['c', 'm']","['Clue', 'Monopoly']","[-0.15, 0.5]","[0.15, 0.5]",1,1,,,,,,,,,0,8,8,8,0,1,1,2,,,,,,,,,,,,,,,,,,,,,,,,,,,,,,,,,,,,,,,,,,,,,,,,,,,,,,,1014.612078289998,None,1014.612078289998,None,1014.612078289998,None,m,1,0.31944477100114455,1016.146203465998,None,1016.146203465998,None,1016.146203465998,None,1016.5289383379986,None,1016.5289383379986,None,1016.5289383379986,None,1016.5289383379986,None,,,,,,,,,,,,,,,,,,,,,,,,,,,,,,,,,,,,,,,,,,,,001,169,2020_Feb_25_1358,spring_faces,3.1.5,59.96284426373629,
condition files/Stage1_1.xlsx,,T3,B4,c,"['c', 'm']","['Clue', 'Monopoly']","[-0.15, 0.5]","[0.15, 0.5]",1,1,,,,,,,,,0,8,8,8,0,2,2,5,,,,,,,,,,,,,,,,,,,,,,,,,,,,,,,,,,,,,,,,,,,,,,,,,,,,,,,1018.4952865899995,None,1018.4952865899995,None,1018.4952865899995,None,c,1,0.3559799840004416,1020.045653182,None,1020.045653182,None,1020.045653182,None,1020.4641514509985,None,1020.4641514509985,None,1020.4641514509985,None,1020.4641514509985,None,,,,,,,,,,,,,,,,,,,,,,,,,,,,,,,,,,,,,,,,,,,,001,169,2020_Feb_25_1358,spring_faces,3.1.5,59.96284426373629,
condition files/Stage1_1.xlsx,,B1,T2,c,"['c', 'm']","['Clue', 'Monopoly']","[-0.15, 0.5]","[0.15, 0.5]",1,1,,,,,,,,,0,8,8,8,0,3,3,1,,,,,,,,,,,,,,,,,,,,,,,,,,,,,,,,,,,,,,,,,,,,,,,,,,,,,,,1022.4290479909996,None,1022.4290479909996,None,1022.4290479909996,None,c,1,0.47036978300093324,1023.9792777450002,None,1023.9792777450002,None,1023.9792777450002,None,1024.5124765849996,None,1024.5124765849996,None,1024.5124765849996,None,1024.5124765849996,None,,,,,,,,,,,,,,,,,,,,,,,,,,,,,,,,,,,,,,,,,,,,001,169,2020_Feb_25_1358,spring_faces,3.1.5,59.96284426373629,
condition files/Stage1_1.xlsx,,T4,B3,m,"['c', 'm']","['Clue', 'Monopoly']","[-0.15, 0.5]","[0.15, 0.5]",1,1,,,,,,,,,0,8,8,8,0,4,4,6,,,,,,,,,,,,,,,,,,,,,,,,,,,,,,,,,,,,,,,,,,,,,,,,,,,,,,,1026.478727257998,None,1026.478727257998,None,1026.478727257998,None,c,0,0.34145173900105874,1028.0122258190004,None,1028.0122258190004,None,1028.0122258190004,None,1028.411421925999,None,1028.411421925999,None,1028.411421925999,None,1028.411421925999,None,,,,,,,,,,,,,,,,,,,,,,,,,,,,,,,,,,,,,,,,,,,,001,169,2020_Feb_25_1358,spring_faces,3.1.5,59.96284426373629,
condition files/Stage1_1.xlsx,,B4,T4,m,"['c', 'm']","['Clue', 'Monopoly']","[-0.15, 0.5]","[0.15, 0.5]",1,1,,,,,,,,,0,8,8,8,0,5,5,7,,,,,,,,,,,,,,,,,,,,,,,,,,,,,,,,,,,,,,,,,,,,,,,,,,,,,,,1030.3788134590013,None,1030.3788134590013,None,1030.3788134590013,None,m,1,0.6641984849993605,1031.929408787999,None,1031.929408787999,None,1031.929408787999,None,1032.6458899480003,None,1032.6458899480003,None,1032.6458899480003,None,1032.6458899480003,None,,,,,,,,,,,,,,,,,,,,,,,,,,,,,,,,,,,,,,,,,,,,001,169,2020_Feb_25_1358,spring_faces,3.1.5,59.96284426373629,
condition files/Stage1_1.xlsx,,B3,T3,c,"['c', 'm']","['Clue', 'Monopoly']","[-0.15, 0.5]","[0.15, 0.5]",1,1,,,,,,,,,0,8,8,8,0,6,6,4,,,,,,,,,,,,,,,,,,,,,,,,,,,,,,,,,,,,,,,,,,,,,,,,,,,,,,,1034.611924789,None,1034.611924789,None,1034.611924789,None,m,0,0.3358893420008826,1036.1457323230006,None,1036.1457323230006,None,1036.1457323230006,None,1036.5456838570008,None,1036.5456838570008,None,1036.5456838570008,None,1036.5456838570008,None,,,,,,,,,,,,,,,,,,,,,,,,,,,,,,,,,,,,,,,,,,,,001,169,2020_Feb_25_1358,spring_faces,3.1.5,59.96284426373629,
condition files/Stage1_1.xlsx,,T1,B1,c,"['c', 'm']","['Clue', 'Monopoly']","[-0.15, 0.5]","[0.15, 0.5]",1,1,,,,,,,,,0,8,8,8,0,7,7,0,,,,,,,,,,,,,,,,,,,,,,,,,,,,,,,,,,,,,,,,,,,,,,,,,,,,,,,1038.5121934319995,None,1038.5121934319995,None,1038.5121934319995,None,c,1,0.37186303999988013,1040.061766394001,None,1040.061766394001,None,1040.061766394001,None,1040.495791596999,None,1040.495791596999,None,1040.495791596999,None,1040.495791596999,None,,,,,,,,,,,,,,,,,,,,,,,,,,,,,,,,,,,,,,,,,,,,001,169,2020_Feb_25_1358,spring_faces,3.1.5,59.96284426373629,
condition files/Stage1_2.xlsx,,T3,B3,c,"['c', 'm']","['Clue', 'Monopoly']","[-0.15, 0.5]","[0.15, 0.5]",1,1,,,,,,,,,0,9,9,9,0,0,0,4,,,,,,,,,,,,,,,,,,,,,,,,,,,,,,,,,,,,,,,,,,,,,,,,,,,,,,,1042.4783719850002,None,1042.4783719850002,None,1042.4783719850002,None,c,1,0.4523374939999485,1044.0292998140012,None,1044.0292998140012,None,1044.0292998140012,None,1044.5456635030005,None,1044.5456635030005,None,1044.5456635030005,None,1044.5456635030005,None,,,,,,,,,,,,,,,,,,,,,,,,,,,,,,,,,,,,,,,,,,,,001,169,2020_Feb_25_1358,spring_faces,3.1.5,59.96284426373629,
condition files/Stage1_2.xlsx,,B4,T3,c,"['c', 'm']","['Clue', 'Monopoly']","[-0.15, 0.5]","[0.15, 0.5]",1,1,,,,,,,,,0,9,9,9,0,1,1,5,,,,,,,,,,,,,,,,,,,,,,,,,,,,,,,,,,,,,,,,,,,,,,,,,,,,,,,1046.5121189260008,None,1046.5121189260008,None,1046.5121189260008,None,c,1,0.467299116000504,1048.0622803919996,None,1048.0622803919996,None,1048.0622803919996,None,1048.5957944480015,None,1048.5957944480015,None,1048.5957944480015,None,1048.5957944480015,None,,,,,,,,,,,,,,,,,,,,,,,,,,,,,,,,,,,,,,,,,,,,001,169,2020_Feb_25_1358,spring_faces,3.1.5,59.96284426373629,
condition files/Stage1_2.xlsx,,T2,B1,c,"['c', 'm']","['Clue', 'Monopoly']","[-0.15, 0.5]","[0.15, 0.5]",1,1,,,,,,,,,0,9,9,9,0,2,2,1,,,,,,,,,,,,,,,,,,,,,,,,,,,,,,,,,,,,,,,,,,,,,,,,,,,,,,,1050.561635819,None,1050.561635819,None,1050.561635819,None,c,1,1.505170132000785,1052.1124550199984,None,1052.1124550199984,None,1052.1124550199984,None,1053.679395535999,None,1053.679395535999,None,1053.679395535999,None,1053.679395535999,None,,,,,,,,,,,,,,,,,,,,,,,,,,,,,,,,,,,,,,,,,,,,001,169,2020_Feb_25_1358,spring_faces,3.1.5,59.96284426373629,
condition files/Stage1_2.xlsx,,T4,B4,m,"['c', 'm']","['Clue', 'Monopoly']","[-0.15, 0.5]","[0.15, 0.5]",1,1,,,,,,,,,0,9,9,9,0,3,3,7,,,,,,,,,,,,,,,,,,,,,,,,,,,,,,,,,,,,,,,,,,,,,,,,,,,,,,,1055.6450249270001,None,1055.6450249270001,None,1055.6450249270001,None,c,0,0.3257883039987064,1057.1958205419996,None,1057.1958205419996,None,1057.1958205419996,None,1057.5958762819992,None,1057.5958762819992,None,1057.5958762819992,None,1057.5958762819992,None,,,,,,,,,,,,,,,,,,,,,,,,,,,,,,,,,,,,,,,,,,,,001,169,2020_Feb_25_1358,spring_faces,3.1.5,59.96284426373629,
condition files/Stage1_2.xlsx,,B1,T1,c,"['c', 'm']","['Clue', 'Monopoly']","[-0.15, 0.5]","[0.15, 0.5]",1,1,,,,,,,,,0,9,9,9,0,4,4,0,,,,,,,,,,,,,,,,,,,,,,,,,,,,,,,,,,,,,,,,,,,,,,,,,,,,,,,1059.545035639001,None,1059.545035639001,None,1059.545035639001,None,m,0,0.31256646199835814,1061.0810663430002,None,1061.0810663430002,None,1061.0810663430002,None,1061.4470100509989,None,1061.4470100509989,None,1061.4470100509989,None,1061.4470100509989,None,,,,,,,,,,,,,,,,,,,,,,,,,,,,,,,,,,,,,,,,,,,,001,169,2020_Feb_25_1358,spring_faces,3.1.5,59.96284426373629,
condition files/Stage1_2.xlsx,,B3,T4,m,"['c', 'm']","['Clue', 'Monopoly']","[-0.15, 0.5]","[0.15, 0.5]",1,1,,,,,,,,,0,9,9,9,0,5,5,6,,,,,,,,,,,,,,,,,,,,,,,,,,,,,,,,,,,,,,,,,,,,,,,,,,,,,,,1063.412095976999,None,1063.412095976999,None,1063.412095976999,None,c,0,0.3688932750010281,1064.9446731519984,None,1064.9446731519984,None,1064.9446731519984,None,1065.378690585998,None,1065.378690585998,None,1065.378690585998,None,1065.378690585998,None,,,,,,,,,,,,,,,,,,,,,,,,,,,,,,,,,,,,,,,,,,,,001,169,2020_Feb_25_1358,spring_faces,3.1.5,59.96284426373629,
condition files/Stage1_2.xlsx,,T1,B2,m,"['c', 'm']","['Clue', 'Monopoly']","[-0.15, 0.5]","[0.15, 0.5]",1,1,,,,,,,,,0,9,9,9,0,6,6,2,,,,,,,,,,,,,,,,,,,,,,,,,,,,,,,,,,,,,,,,,,,,,,,,,,,,,,,1067.3454807239996,None,1067.3454807239996,None,1067.3454807239996,None,m,1,0.49903963299948373,1068.8786166929985,None,1068.8786166929985,None,1068.8786166929985,None,1069.4291440830002,None,1069.4291440830002,None,1069.4291440830002,None,1069.4291440830002,None,,,,,,,,,,,,,,,,,,,,,,,,,,,,,,,,,,,,,,,,,,,,001,169,2020_Feb_25_1358,spring_faces,3.1.5,59.96284426373629,
condition files/Stage1_2.xlsx,,B2,T2,m,"['c', 'm']","['Clue', 'Monopoly']","[-0.15, 0.5]","[0.15, 0.5]",1,1,,,,,,,,,0,9,9,9,0,7,7,3,,,,,,,,,,,,,,,,,,,,,,,,,,,,,,,,,,,,,,,,,,,,,,,,,,,,,,,1071.3955984939985,None,1071.3955984939985,None,1071.3955984939985,None,c,0,0.656521036002232,1072.9451142439993,None,1072.9451142439993,None,1072.9451142439993,None,1073.6622390370012,None,1073.6622390370012,None,1073.6622390370012,None,1073.6622390370012,None,,,,,,,,,,,,,,,,,,,,,,,,,,,,,,,,,,,,,,,,,,,,001,169,2020_Feb_25_1358,spring_faces,3.1.5,59.96284426373629,
condition files/Stage1_1.xlsx,,B1,T2,c,"['c', 'm']","['Clue', 'Monopoly']","[-0.15, 0.5]","[0.15, 0.5]",1,1,,,,,,,,,0,10,10,10,0,0,0,1,,,,,,,,,,,,,,,,,,,,,,,,,,,,,,,,,,,,,,,,,,,,,,,,,,,,,,,1075.645758116998,None,1075.645758116998,None,1075.645758116998,None,c,1,1.0140938399999868,1077.195510866999,None,1077.195510866999,None,1077.195510866999,None,1078.265101040999,None,1078.265101040999,None,1078.265101040999,None,1078.265101040999,None,,,,,,,,,,,,,,,,,,,,,,,,,,,,,,,,,,,,,,,,,,,,001,169,2020_Feb_25_1358,spring_faces,3.1.5,59.96284426373629,
condition files/Stage1_1.xlsx,,T4,B3,m,"['c', 'm']","['Clue', 'Monopoly']","[-0.15, 0.5]","[0.15, 0.5]",1,1,,,,,,,,,0,10,10,10,0,1,1,6,,,,,,,,,,,,,,,,,,,,,,,,,,,,,,,,,,,,,,,,,,,,,,,,,,,,,,,1080.228740954999,None,1080.228740954999,None,1080.228740954999,None,c,0,0.6064348889995017,1081.7792397009998,None,1081.7792397009998,None,1081.7792397009998,None,1082.462392984,None,1082.462392984,None,1082.462392984,None,1082.462392984,None,,,,,,,,,,,,,,,,,,,,,,,,,,,,,,,,,,,,,,,,,,,,001,169,2020_Feb_25_1358,spring_faces,3.1.5,59.96284426373629,
condition files/Stage1_1.xlsx,,B4,T4,m,"['c', 'm']","['Clue', 'Monopoly']","[-0.15, 0.5]","[0.15, 0.5]",1,1,,,,,,,,,0,10,10,10,0,2,2,7,,,,,,,,,,,,,,,,,,,,,,,,,,,,,,,,,,,,,,,,,,,,,,,,,,,,,,,1084.4120742450013,None,1084.4120742450013,None,1084.4120742450013,None,c,0,0.5820424310004455,1085.947529299001,None,1085.947529299001,None,1085.947529299001,None,1086.5958521949997,None,1086.5958521949997,None,1086.5958521949997,None,1086.5958521949997,None,,,,,,,,,,,,,,,,,,,,,,,,,,,,,,,,,,,,,,,,,,,,001,169,2020_Feb_25_1358,spring_faces,3.1.5,59.96284426373629,
condition files/Stage1_1.xlsx,,B3,T3,c,"['c', 'm']","['Clue', 'Monopoly']","[-0.15, 0.5]","[0.15, 0.5]",1,1,,,,,,,,,0,10,10,10,0,3,3,4,,,,,,,,,,,,,,,,,,,,,,,,,,,,,,,,,,,,,,,,,,,,,,,,,,,,,,,1088.5620590550006,None,1088.5620590550006,None,1088.5620590550006,None,c,1,0.5129452679975657,1090.1126589979995,None,1090.1126589979995,None,1090.1126589979995,None,1090.6809505699985,None,1090.6809505699985,None,1090.6809505699985,None,1090.6809505699985,None,,,,,,,,,,,,,,,,,,,,,,,,,,,,,,,,,,,,,,,,,,,,001,169,2020_Feb_25_1358,spring_faces,3.1.5,59.96284426373629,
condition files/Stage1_1.xlsx,,T2,B2,m,"['c', 'm']","['Clue', 'Monopoly']","[-0.15, 0.5]","[0.15, 0.5]",1,1,,,,,,,,,0,10,10,10,0,4,4,3,,,,,,,,,,,,,,,,,,,,,,,,,,,,,,,,,,,,,,,,,,,,,,,,,,,,,,,1092.645314468,None,1092.645314468,None,1092.645314468,None,m,1,0.5571535150011186,1094.1805329180006,None,1094.1805329180006,None,1094.1805329180006,None,1094.7971722249986,None,1094.7971722249986,None,1094.7971722249986,None,1094.7971722249986,None,,,,,,,,,,,,,,,,,,,,,,,,,,,,,,,,,,,,,,,,,,,,001,169,2020_Feb_25_1358,spring_faces,3.1.5,59.96284426373629,
condition files/Stage1_1.xlsx,,B2,T1,m,"['c', 'm']","['Clue', 'Monopoly']","[-0.15, 0.5]","[0.15, 0.5]",1,1,,,,,,,,,0,10,10,10,0,5,5,2,,,,,,,,,,,,,,,,,,,,,,,,,,,,,,,,,,,,,,,,,,,,,,,,,,,,,,,1096.7621613469983,None,1096.7621613469983,None,1096.7621613469983,None,m,1,0.7771919109982264,1098.3124682420003,None,1098.3124682420003,None,1098.3124682420003,None,1099.1448296200015,None,1099.1448296200015,None,1099.1448296200015,None,1099.1448296200015,None,,,,,,,,,,,,,,,,,,,,,,,,,,,,,,,,,,,,,,,,,,,,001,169,2020_Feb_25_1358,spring_faces,3.1.5,59.96284426373629,
condition files/Stage1_1.xlsx,,T3,B4,c,"['c', 'm']","['Clue', 'Monopoly']","[-0.15, 0.5]","[0.15, 0.5]",1,1,,,,,,,,,0,10,10,10,0,6,6,5,,,,,,,,,,,,,,,,,,,,,,,,,,,,,,,,,,,,,,,,,,,,,,,,,,,,,,,1101.1120346939988,None,1101.1120346939988,None,1101.1120346939988,None,m,0,0.5552601970011892,1102.646385891001,None,1102.646385891001,None,1102.646385891001,None,1103.264470887998,None,1103.264470887998,None,1103.264470887998,None,1103.264470887998,None,,,,,,,,,,,,,,,,,,,,,,,,,,,,,,,,,,,,,,,,,,,,001,169,2020_Feb_25_1358,spring_faces,3.1.5,59.96284426373629,
condition files/Stage1_1.xlsx,,T1,B1,c,"['c', 'm']","['Clue', 'Monopoly']","[-0.15, 0.5]","[0.15, 0.5]",1,1,,,,,,,,,0,10,10,10,0,7,7,0,,,,,,,,,,,,,,,,,,,,,,,,,,,,,,,,,,,,,,,,,,,,,,,,,,,,,,,1105.228275427,None,1105.228275427,None,1105.228275427,None,c,1,0.42248515599931125,1106.7791545489981,None,1106.7791545489981,None,1106.7791545489981,None,1107.2625039959985,None,1107.2625039959985,None,1107.2625039959985,None,1107.2625039959985,None,,,,,,,,,,,,,,,,,,,,,,,,,,,,,,,,,,,,,,,,,,,,001,169,2020_Feb_25_1358,spring_faces,3.1.5,59.96284426373629,
condition files/Stage1_2.xlsx,,B2,T2,m,"['c', 'm']","['Clue', 'Monopoly']","[-0.15, 0.5]","[0.15, 0.5]",1,1,,,,,,,,,0,11,11,11,0,0,0,3,,,,,,,,,,,,,,,,,,,,,,,,,,,,,,,,,,,,,,,,,,,,,,,,,,,,,,,1109.245244101001,None,1109.245244101001,None,1109.245244101001,None,c,0,0.48623614899770473,1110.795410798999,None,1110.795410798999,None,1110.795410798999,None,1111.3627805230008,None,1111.3627805230008,None,1111.3627805230008,None,1111.3627805230008,None,,,,,,,,,,,,,,,,,,,,,,,,,,,,,,,,,,,,,,,,,,,,001,169,2020_Feb_25_1358,spring_faces,3.1.5,59.96284426373629,
condition files/Stage1_2.xlsx,,T3,B3,c,"['c', 'm']","['Clue', 'Monopoly']","[-0.15, 0.5]","[0.15, 0.5]",1,1,,,,,,,,,0,11,11,11,0,1,1,4,,,,,,,,,,,,,,,,,,,,,,,,,,,,,,,,,,,,,,,,,,,,,,,,,,,,,,,1113.3120753569983,None,1113.3120753569983,None,1113.3120753569983,None,c,1,0.515177217002929,1114.8624507439981,None,1114.8624507439981,None,1114.8624507439981,None,1115.428950951,None,1115.428950951,None,1115.428950951,None,1115.428950951,None,,,,,,,,,,,,,,,,,,,,,,,,,,,,,,,,,,,,,,,,,,,,001,169,2020_Feb_25_1358,spring_faces,3.1.5,59.96284426373629,
condition files/Stage1_2.xlsx,,B1,T1,c,"['c', 'm']","['Clue', 'Monopoly']","[-0.15, 0.5]","[0.15, 0.5]",1,1,,,,,,,,,0,11,11,11,0,2,2,0,,,,,,,,,,,,,,,,,,,,,,,,,,,,,,,,,,,,,,,,,,,,,,,,,,,,,,,1117.395461817001,None,1117.395461817001,None,1117.395461817001,None,c,1,0.4155996720000985,1118.9300254610007,None,1118.9300254610007,None,1118.9300254610007,None,1119.3961062100007,None,1119.3961062100007,None,1119.3961062100007,None,1119.3961062100007,None,,,,,,,,,,,,,,,,,,,,,,,,,,,,,,,,,,,,,,,,,,,,001,169,2020_Feb_25_1358,spring_faces,3.1.5,59.96284426373629,
condition files/Stage1_2.xlsx,,B3,T4,m,"['c', 'm']","['Clue', 'Monopoly']","[-0.15, 0.5]","[0.15, 0.5]",1,1,,,,,,,,,0,11,11,11,0,3,3,6,,,,,,,,,,,,,,,,,,,,,,,,,,,,,,,,,,,,,,,,,,,,,,,,,,,,,,,1121.3616642069992,None,1121.3616642069992,None,1121.3616642069992,None,c,0,0.44872233000205597,1122.8968641369993,None,1122.8968641369993,None,1122.8968641369993,None,1123.4124034789984,None,1123.4124034789984,None,1123.4124034789984,None,1123.4124034789984,None,,,,,,,,,,,,,,,,,,,,,,,,,,,,,,,,,,,,,,,,,,,,001,169,2020_Feb_25_1358,spring_faces,3.1.5,59.96284426373629,
condition files/Stage1_2.xlsx,,T2,B1,c,"['c', 'm']","['Clue', 'Monopoly']","[-0.15, 0.5]","[0.15, 0.5]",1,1,,,,,,,,,0,11,11,11,0,4,4,1,,,,,,,,,,,,,,,,,,,,,,,,,,,,,,,,,,,,,,,,,,,,,,,,,,,,,,,1125.3618554969999,None,1125.3618554969999,None,1125.3618554969999,None,m,0,0.41692819200034137,1126.896648803,None,1126.896648803,None,1126.896648803,None,1127.3803150680014,None,1127.3803150680014,None,1127.3803150680014,None,1127.3803150680014,None,,,,,,,,,,,,,,,,,,,,,,,,,,,,,,,,,,,,,,,,,,,,001,169,2020_Feb_25_1358,spring_faces,3.1.5,59.96284426373629,
condition files/Stage1_2.xlsx,,T1,B2,m,"['c', 'm']","['Clue', 'Monopoly']","[-0.15, 0.5]","[0.15, 0.5]",1,1,,,,,,,,,0,11,11,11,0,5,5,2,,,,,,,,,,,,,,,,,,,,,,,,,,,,,,,,,,,,,,,,,,,,,,,,,,,,,,,1129.3453893360002,None,1129.3453893360002,None,1129.3453893360002,None,m,1,0.3701871180019225,1130.8954572849998,None,1130.8954572849998,None,1130.8954572849998,None,1131.3291077140002,None,1131.3291077140002,None,1131.3291077140002,None,1131.3291077140002,None,,,,,,,,,,,,,,,,,,,,,,,,,,,,,,,,,,,,,,,,,,,,001,169,2020_Feb_25_1358,spring_faces,3.1.5,59.96284426373629,
condition files/Stage1_2.xlsx,,T4,B4,m,"['c', 'm']","['Clue', 'Monopoly']","[-0.15, 0.5]","[0.15, 0.5]",1,1,,,,,,,,,0,11,11,11,0,6,6,7,,,,,,,,,,,,,,,,,,,,,,,,,,,,,,,,,,,,,,,,,,,,,,,,,,,,,,,1133.2953713410006,None,1133.2953713410006,None,1133.2953713410006,None,c,0,1.5718020770000294,1134.845815243998,None,1134.845815243998,None,1134.845815243998,None,1136.4791296319981,None,1136.4791296319981,None,1136.4791296319981,None,1136.4791296319981,None,,,,,,,,,,,,,,,,,,,,,,,,,,,,,,,,,,,,,,,,,,,,001,169,2020_Feb_25_1358,spring_faces,3.1.5,59.96284426373629,
condition files/Stage1_2.xlsx,,B4,T3,c,"['c', 'm']","['Clue', 'Monopoly']","[-0.15, 0.5]","[0.15, 0.5]",1,1,,,,,,,,,0,11,11,11,0,7,7,5,,,,,,,,,,,,,,,,,,,,,,,,,,,,,,,,,,,,,,,,,,,,,,,,,,,,,,,1138.4451468669995,None,1138.4451468669995,None,1138.4451468669995,None,c,1,0.8384536829980789,1139.9951793560012,None,1139.9951793560012,None,1139.9951793560012,None,1140.897575298999,None,1140.897575298999,None,1140.897575298999,None,1140.897575298999,None,,,,,,,,,,,,,,,,,,,,,,,,,,,,,,,,,,,,,,,,,,,,001,169,2020_Feb_25_1358,spring_faces,3.1.5,59.96284426373629,
,,,,,,,,,,,,,,,,,,,,,,,,,,,,,,,,,,,,,,,,,,,,,,,,,,,,,,,,,,,,,,,,,,,,,,,,,,,,,,,,,,,,,,,,,,,,,,,,,,,,,,,,,,,,,,,,1142.879049139001,None,space,3.610391578000417,1147.8793296290005,None,,,,,,,,,,,,,,,,,,,,,,,,,,,,,,001,169,2020_Feb_25_1358,spring_faces,3.1.5,59.96284426373629,
condition files/Stage2_1.xlsx,,B2,T2,r,"['s', 'r']","['Stratego', 'Risk']","[-0.15, 0.5]","[0.15, 0.5]",1,1,,,,,,,,,,,,,,,,,0,0,0,0,0,0,0,3,,,,,,,,,,,,,,,,,,,,,,,,,,,,,,,,,,,,,,,,,,,,,,,1151.5454964309993,None,1151.5454964309993,None,1151.5454964309993,None,s,0,2.0589335539989406,1153.078743871998,None,1153.078743871998,None,1153.078743871998,None,1155.2122804769988,None,1155.2122804769988,None,1155.2122804769988,None,1155.2122804769988,None,,,,,,,,,,,,,,,1147.8793296290005,None,,,,,,,,,,,,,,,,,,,,,,,,,,,,001,169,2020_Feb_25_1358,spring_faces,3.1.5,59.96284426373629,
condition files/Stage2_1.xlsx,,B4,T4,r,"['s', 'r']","['Stratego', 'Risk']","[-0.15, 0.5]","[0.15, 0.5]",1,1,,,,,,,,,,,,,,,,,0,0,0,0,0,1,1,5,,,,,,,,,,,,,,,,,,,,,,,,,,,,,,,,,,,,,,,,,,,,,,,1157.1615807100006,None,1157.1615807100006,None,1157.1615807100006,None,r,1,0.5377078609999444,1158.7119256649985,None,1158.7119256649985,None,1158.7119256649985,None,1159.311739142,None,1159.311739142,None,1159.311739142,None,1159.311739142,None,,,,,,,,,,,,,,,,,,,,,,,,,,,,,,,,,,,,,,,,,,,,001,169,2020_Feb_25_1358,spring_faces,3.1.5,59.96284426373629,
condition files/Stage2_1.xlsx,,B6,T6,r,"['s', 'r']","['Stratego', 'Risk']","[-0.15, 0.5]","[0.15, 0.5]",1,1,,,,,,,,,,,,,,,,,0,0,0,0,0,2,2,1,,,,,,,,,,,,,,,,,,,,,,,,,,,,,,,,,,,,,,,,,,,,,,,1161.2780799740012,None,1161.2780799740012,None,1161.2780799740012,None,s,0,0.7721419179979421,1162.8294935110007,None,1162.8294935110007,None,1162.8294935110007,None,1163.6623569519998,None,1163.6623569519998,None,1163.6623569519998,None,1163.6623569519998,None,,,,,,,,,,,,,,,,,,,,,,,,,,,,,,,,,,,,,,,,,,,,001,169,2020_Feb_25_1358,spring_faces,3.1.5,59.96284426373629,
condition files/Stage2_1.xlsx,,T3,B3,s,"['s', 'r']","['Stratego', 'Risk']","[-0.15, 0.5]","[0.15, 0.5]",1,1,,,,,,,,,,,,,,,,,0,0,0,0,0,3,3,4,,,,,,,,,,,,,,,,,,,,,,,,,,,,,,,,,,,,,,,,,,,,,,,1165.6290122660012,None,1165.6290122660012,None,1165.6290122660012,None,s,1,0.9984024229997885,1167.1792399269998,None,1167.1792399269998,None,1167.1792399269998,None,1168.231486177001,None,1168.231486177001,None,1168.231486177001,None,1168.231486177001,None,,,,,,,,,,,,,,,,,,,,,,,,,,,,,,,,,,,,,,,,,,,,001,169,2020_Feb_25_1358,spring_faces,3.1.5,59.96284426373629,
condition files/Stage2_1.xlsx,,T1,B1,s,"['s', 'r']","['Stratego', 'Risk']","[-0.15, 0.5]","[0.15, 0.5]",1,1,,,,,,,,,,,,,,,,,0,0,0,0,0,4,4,2,,,,,,,,,,,,,,,,,,,,,,,,,,,,,,,,,,,,,,,,,,,,,,,1170.1954491259985,None,1170.1954491259985,None,1170.1954491259985,None,r,0,0.38350077499853796,1171.746063747998,None,1171.746063747998,None,1171.746063747998,None,1172.1951199220002,None,1172.1951199220002,None,1172.1951199220002,None,1172.1951199220002,None,,,,,,,,,,,,,,,,,,,,,,,,,,,,,,,,,,,,,,,,,,,,001,169,2020_Feb_25_1358,spring_faces,3.1.5,59.96284426373629,
condition files/Stage2_1.xlsx,,T5,B5,s,"['s', 'r']","['Stratego', 'Risk']","[-0.15, 0.5]","[0.15, 0.5]",1,1,,,,,,,,,,,,,,,,,0,0,0,0,0,5,5,0,,,,,,,,,,,,,,,,,,,,,,,,,,,,,,,,,,,,,,,,,,,,,,,1174.1625566079983,None,1174.1625566079983,None,1174.1625566079983,None,s,1,0.6390056259988341,1175.7626207949997,None,1175.7626207949997,None,1175.7626207949997,None,1176.461883326001,None,1176.461883326001,None,1176.461883326001,None,1176.461883326001,None,,,,,,,,,,,,,,,,,,,,,,,,,,,,,,,,,,,,,,,,,,,,001,169,2020_Feb_25_1358,spring_faces,3.1.5,59.96284426373629,
condition files/Stage2_2.xlsx,,T2,B2,r,"['s', 'r']","['Stratego', 'Risk']","[-0.15, 0.5]","[0.15, 0.5]",1,1,,,,,,,,,,,,,,,,,0,1,1,1,0,0,0,3,,,,,,,,,,,,,,,,,,,,,,,,,,,,,,,,,,,,,,,,,,,,,,,1178.4457702790005,None,1178.4457702790005,None,1178.4457702790005,None,r,1,0.32578354200086324,1179.9958511280001,None,1179.9958511280001,None,1179.9958511280001,None,1180.3794073129993,None,1180.3794073129993,None,1180.3794073129993,None,1180.3794073129993,None,,,,,,,,,,,,,,,,,,,,,,,,,,,,,,,,,,,,,,,,,,,,001,169,2020_Feb_25_1358,spring_faces,3.1.5,59.96284426373629,
condition files/Stage2_2.xlsx,,T4,B4,r,"['s', 'r']","['Stratego', 'Risk']","[-0.15, 0.5]","[0.15, 0.5]",1,1,,,,,,,,,,,,,,,,,0,1,1,1,0,1,1,5,,,,,,,,,,,,,,,,,,,,,,,,,,,,,,,,,,,,,,,,,,,,,,,1182.3454204579994,None,1182.3454204579994,None,1182.3454204579994,None,s,0,0.4259947149985237,1183.8956223849982,None,1183.8956223849982,None,1183.8956223849982,None,1184.3788084239986,None,1184.3788084239986,None,1184.3788084239986,None,1184.3788084239986,None,,,,,,,,,,,,,,,,,,,,,,,,,,,,,,,,,,,,,,,,,,,,001,169,2020_Feb_25_1358,spring_faces,3.1.5,59.96284426373629,
condition files/Stage2_2.xlsx,,B1,T1,s,"['s', 'r']","['Stratego', 'Risk']","[-0.15, 0.5]","[0.15, 0.5]",1,1,,,,,,,,,,,,,,,,,0,1,1,1,0,2,2,2,,,,,,,,,,,,,,,,,,,,,,,,,,,,,,,,,,,,,,,,,,,,,,,1186.3454811190004,None,1186.3454811190004,None,1186.3454811190004,None,s,1,0.3950391770013084,1187.8785744020006,None,1187.8785744020006,None,1187.8785744020006,None,1188.3457166169992,None,1188.3457166169992,None,1188.3457166169992,None,1188.3457166169992,None,,,,,,,,,,,,,,,,,,,,,,,,,,,,,,,,,,,,,,,,,,,,001,169,2020_Feb_25_1358,spring_faces,3.1.5,59.96284426373629,
condition files/Stage2_2.xlsx,,B3,T3,s,"['s', 'r']","['Stratego', 'Risk']","[-0.15, 0.5]","[0.15, 0.5]",1,1,,,,,,,,,,,,,,,,,0,1,1,1,0,3,3,4,,,,,,,,,,,,,,,,,,,,,,,,,,,,,,,,,,,,,,,,,,,,,,,1190.2953851420007,None,1190.2953851420007,None,1190.2953851420007,None,s,1,0.715665120002086,1191.830009801999,None,1191.830009801999,None,1191.830009801999,None,1192.5954290669997,None,1192.5954290669997,None,1192.5954290669997,None,1192.5954290669997,None,,,,,,,,,,,,,,,,,,,,,,,,,,,,,,,,,,,,,,,,,,,,001,169,2020_Feb_25_1358,spring_faces,3.1.5,59.96284426373629,
condition files/Stage2_2.xlsx,,T6,B6,r,"['s', 'r']","['Stratego', 'Risk']","[-0.15, 0.5]","[0.15, 0.5]",1,1,,,,,,,,,,,,,,,,,0,1,1,1,0,4,4,1,,,,,,,,,,,,,,,,,,,,,,,,,,,,,,,,,,,,,,,,,,,,,,,1194.5614216820013,None,1194.5614216820013,None,1194.5614216820013,None,r,1,0.5618430229988007,1196.0957975789988,None,1196.0957975789988,None,1196.0957975789988,None,1196.7291745849998,None,1196.7291745849998,None,1196.7291745849998,None,1196.7291745849998,None,,,,,,,,,,,,,,,,,,,,,,,,,,,,,,,,,,,,,,,,,,,,001,169,2020_Feb_25_1358,spring_faces,3.1.5,59.96284426373629,
condition files/Stage2_2.xlsx,,B5,T5,s,"['s', 'r']","['Stratego', 'Risk']","[-0.15, 0.5]","[0.15, 0.5]",1,1,,,,,,,,,,,,,,,,,0,1,1,1,0,5,5,0,,,,,,,,,,,,,,,,,,,,,,,,,,,,,,,,,,,,,,,,,,,,,,,1198.678363052999,None,1198.678363052999,None,1198.678363052999,None,s,1,0.39650689699919894,1200.229100358998,None,1200.229100358998,None,1200.229100358998,None,1200.6813334470007,None,1200.6813334470007,None,1200.6813334470007,None,1200.6813334470007,None,,,,,,,,,,,,,,,,,,,,,,,,,,,,,,,,,,,,,,,,,,,,001,169,2020_Feb_25_1358,spring_faces,3.1.5,59.96284426373629,
condition files/Stage2_1.xlsx,,B6,T6,r,"['s', 'r']","['Stratego', 'Risk']","[-0.15, 0.5]","[0.15, 0.5]",1,1,,,,,,,,,,,,,,,,,0,2,2,2,0,0,0,1,,,,,,,,,,,,,,,,,,,,,,,,,,,,,,,,,,,,,,,,,,,,,,,1202.6617042189991,None,1202.6617042189991,None,1202.6617042189991,None,r,1,0.49381976099903113,1204.2118610599991,None,1204.2118610599991,None,1204.2118610599991,None,1204.7786606540012,None,1204.7786606540012,None,1204.7786606540012,None,1204.7786606540012,None,,,,,,,,,,,,,,,,,,,,,,,,,,,,,,,,,,,,,,,,,,,,001,169,2020_Feb_25_1358,spring_faces,3.1.5,59.96284426373629,
condition files/Stage2_1.xlsx,,B2,T2,r,"['s', 'r']","['Stratego', 'Risk']","[-0.15, 0.5]","[0.15, 0.5]",1,1,,,,,,,,,,,,,,,,,0,2,2,2,0,1,1,3,,,,,,,,,,,,,,,,,,,,,,,,,,,,,,,,,,,,,,,,,,,,,,,1206.7284342369985,None,1206.7284342369985,None,1206.7284342369985,None,s,0,3.6268530250017648,1208.2628094299998,None,1208.2628094299998,None,1208.2628094299998,None,1211.9457809110008,None,1211.9457809110008,None,1211.9457809110008,None,1211.9457809110008,None,,,,,,,,,,,,,,,,,,,,,,,,,,,,,,,,,,,,,,,,,,,,001,169,2020_Feb_25_1358,spring_faces,3.1.5,59.96284426373629,
condition files/Stage2_1.xlsx,,B4,T4,r,"['s', 'r']","['Stratego', 'Risk']","[-0.15, 0.5]","[0.15, 0.5]",1,1,,,,,,,,,,,,,,,,,0,2,2,2,0,2,2,5,,,,,,,,,,,,,,,,,,,,,,,,,,,,,,,,,,,,,,,,,,,,,,,1213.912078594998,None,1213.912078594998,None,1213.912078594998,None,r,1,1.1791810980030277,1215.4624210079983,None,1215.4624210079983,None,1215.4624210079983,None,1216.6958981379994,None,1216.6958981379994,None,1216.6958981379994,None,1216.6958981379994,None,,,,,,,,,,,,,,,,,,,,,,,,,,,,,,,,,,,,,,,,,,,,001,169,2020_Feb_25_1358,spring_faces,3.1.5,59.96284426373629,
condition files/Stage2_1.xlsx,,T5,B5,s,"['s', 'r']","['Stratego', 'Risk']","[-0.15, 0.5]","[0.15, 0.5]",1,1,,,,,,,,,,,,,,,,,0,2,2,2,0,3,3,0,,,,,,,,,,,,,,,,,,,,,,,,,,,,,,,,,,,,,,,,,,,,,,,1218.6622227850003,None,1218.6622227850003,None,1218.6622227850003,None,s,1,0.4768706940012635,1220.2127057870002,None,1220.2127057870002,None,1220.2127057870002,None,1220.7624477650006,None,1220.7624477650006,None,1220.7624477650006,None,1220.7624477650006,None,,,,,,,,,,,,,,,,,,,,,,,,,,,,,,,,,,,,,,,,,,,,001,169,2020_Feb_25_1358,spring_faces,3.1.5,59.96284426373629,
condition files/Stage2_1.xlsx,,T1,B1,s,"['s', 'r']","['Stratego', 'Risk']","[-0.15, 0.5]","[0.15, 0.5]",1,1,,,,,,,,,,,,,,,,,0,2,2,2,0,4,4,2,,,,,,,,,,,,,,,,,,,,,,,,,,,,,,,,,,,,,,,,,,,,,,,1222.7121981660002,None,1222.7121981660002,None,1222.7121981660002,None,r,0,0.7464949029999843,1224.2471438410012,None,1224.2471438410012,None,1224.2471438410012,None,1225.0454231679996,None,1225.0454231679996,None,1225.0454231679996,None,1225.0454231679996,None,,,,,,,,,,,,,,,,,,,,,,,,,,,,,,,,,,,,,,,,,,,,001,169,2020_Feb_25_1358,spring_faces,3.1.5,59.96284426373629,
condition files/Stage2_1.xlsx,,T3,B3,s,"['s', 'r']","['Stratego', 'Risk']","[-0.15, 0.5]","[0.15, 0.5]",1,1,,,,,,,,,,,,,,,,,0,2,2,2,0,5,5,4,,,,,,,,,,,,,,,,,,,,,,,,,,,,,,,,,,,,,,,,,,,,,,,1227.0119503260012,None,1227.0119503260012,None,1227.0119503260012,None,s,1,0.5915986420004629,1228.5460921239992,None,1228.5460921239992,None,1228.5460921239992,None,1229.1951670459985,None,1229.1951670459985,None,1229.1951670459985,None,1229.1951670459985,None,,,,,,,,,,,,,,,,,,,,,,,,,,,,,,,,,,,,,,,,,,,,001,169,2020_Feb_25_1358,spring_faces,3.1.5,59.96284426373629,
condition files/Stage2_2.xlsx,,T2,B2,r,"['s', 'r']","['Stratego', 'Risk']","[-0.15, 0.5]","[0.15, 0.5]",1,1,,,,,,,,,,,,,,,,,0,3,3,3,0,0,0,3,,,,,,,,,,,,,,,,,,,,,,,,,,,,,,,,,,,,,,,,,,,,,,,1231.1794103320008,None,1231.1794103320008,None,1231.1794103320008,None,s,0,1.8325924589989881,1232.7290393589992,None,1232.7290393589992,None,1232.7290393589992,None,1234.6286963199982,None,1234.6286963199982,None,1234.6286963199982,None,1234.6286963199982,None,,,,,,,,,,,,,,,,,,,,,,,,,,,,,,,,,,,,,,,,,,,,001,169,2020_Feb_25_1358,spring_faces,3.1.5,59.96284426373629,
condition files/Stage2_2.xlsx,,B1,T1,s,"['s', 'r']","['Stratego', 'Risk']","[-0.15, 0.5]","[0.15, 0.5]",1,1,,,,,,,,,,,,,,,,,0,3,3,3,0,1,1,2,,,,,,,,,,,,,,,,,,,,,,,,,,,,,,,,,,,,,,,,,,,,,,,1236.5789807359997,None,1236.5789807359997,None,1236.5789807359997,None,s,1,0.7043812709998747,1238.1292511179981,None,1238.1292511179981,None,1238.1292511179981,None,1238.9119933220009,None,1238.9119933220009,None,1238.9119933220009,None,1238.9119933220009,None,,,,,,,,,,,,,,,,,,,,,,,,,,,,,,,,,,,,,,,,,,,,001,169,2020_Feb_25_1358,spring_faces,3.1.5,59.96284426373629,
condition files/Stage2_2.xlsx,,T4,B4,r,"['s', 'r']","['Stratego', 'Risk']","[-0.15, 0.5]","[0.15, 0.5]",1,1,,,,,,,,,,,,,,,,,0,3,3,3,0,2,2,5,,,,,,,,,,,,,,,,,,,,,,,,,,,,,,,,,,,,,,,,,,,,,,,1240.8622066279986,None,1240.8622066279986,None,1240.8622066279986,None,s,0,0.5490816330020607,1242.4125287810002,None,1242.4125287810002,None,1242.4125287810002,None,1243.0290156419996,None,1243.0290156419996,None,1243.0290156419996,None,1243.0290156419996,None,,,,,,,,,,,,,,,,,,,,,,,,,,,,,,,,,,,,,,,,,,,,001,169,2020_Feb_25_1358,spring_faces,3.1.5,59.96284426373629,
condition files/Stage2_2.xlsx,,B5,T5,s,"['s', 'r']","['Stratego', 'Risk']","[-0.15, 0.5]","[0.15, 0.5]",1,1,,,,,,,,,,,,,,,,,0,3,3,3,0,3,3,0,,,,,,,,,,,,,,,,,,,,,,,,,,,,,,,,,,,,,,,,,,,,,,,1244.978251497998,None,1244.978251497998,None,1244.978251497998,None,r,0,0.8485349900001893,1246.529076263998,None,1246.529076263998,None,1246.529076263998,None,1247.4458499820012,None,1247.4458499820012,None,1247.4458499820012,None,1247.4458499820012,None,,,,,,,,,,,,,,,,,,,,,,,,,,,,,,,,,,,,,,,,,,,,001,169,2020_Feb_25_1358,spring_faces,3.1.5,59.96284426373629,
condition files/Stage2_2.xlsx,,T6,B6,r,"['s', 'r']","['Stratego', 'Risk']","[-0.15, 0.5]","[0.15, 0.5]",1,1,,,,,,,,,,,,,,,,,0,3,3,3,0,4,4,1,,,,,,,,,,,,,,,,,,,,,,,,,,,,,,,,,,,,,,,,,,,,,,,1249.3953954070003,None,1249.3953954070003,None,1249.3953954070003,None,s,0,0.7677851960033877,1250.945793009998,None,1250.945793009998,None,1250.945793009998,None,1251.779937753001,None,1251.779937753001,None,1251.779937753001,None,1251.779937753001,None,,,,,,,,,,,,,,,,,,,,,,,,,,,,,,,,,,,,,,,,,,,,001,169,2020_Feb_25_1358,spring_faces,3.1.5,59.96284426373629,
condition files/Stage2_2.xlsx,,B3,T3,s,"['s', 'r']","['Stratego', 'Risk']","[-0.15, 0.5]","[0.15, 0.5]",1,1,,,,,,,,,,,,,,,,,0,3,3,3,0,5,5,4,,,,,,,,,,,,,,,,,,,,,,,,,,,,,,,,,,,,,,,,,,,,,,,1253.745890002001,None,1253.745890002001,None,1253.745890002001,None,s,1,2.370668470997771,1255.279001752,None,1255.279001752,None,1255.279001752,None,1257.7288957250003,None,1257.7288957250003,None,1257.7288957250003,None,1257.7288957250003,None,,,,,,,,,,,,,,,,,,,,,,,,,,,,,,,,,,,,,,,,,,,,001,169,2020_Feb_25_1358,spring_faces,3.1.5,59.96284426373629,
condition files/Stage2_1.xlsx,,B4,T4,r,"['s', 'r']","['Stratego', 'Risk']","[-0.15, 0.5]","[0.15, 0.5]",1,1,,,,,,,,,,,,,,,,,0,4,4,4,0,0,0,5,,,,,,,,,,,,,,,,,,,,,,,,,,,,,,,,,,,,,,,,,,,,,,,1259.6956804679994,None,1259.6956804679994,None,1259.6956804679994,None,r,1,0.9645757939979376,1261.2450386270011,None,1261.2450386270011,None,1261.2450386270011,None,1262.278880691998,None,1262.278880691998,None,1262.278880691998,None,1262.278880691998,None,,,,,,,,,,,,,,,,,,,,,,,,,,,,,,,,,,,,,,,,,,,,001,169,2020_Feb_25_1358,spring_faces,3.1.5,59.96284426373629,
condition files/Stage2_1.xlsx,,T3,B3,s,"['s', 'r']","['Stratego', 'Risk']","[-0.15, 0.5]","[0.15, 0.5]",1,1,,,,,,,,,,,,,,,,,0,4,4,4,0,1,1,4,,,,,,,,,,,,,,,,,,,,,,,,,,,,,,,,,,,,,,,,,,,,,,,1264.228738265998,None,1264.228738265998,None,1264.228738265998,None,s,1,0.6552218309989257,1265.7784181869993,None,1265.7784181869993,None,1265.7784181869993,None,1266.4981916550005,None,1266.4981916550005,None,1266.4981916550005,None,1266.4981916550005,None,,,,,,,,,,,,,,,,,,,,,,,,,,,,,,,,,,,,,,,,,,,,001,169,2020_Feb_25_1358,spring_faces,3.1.5,59.96284426373629,
condition files/Stage2_1.xlsx,,T1,B1,s,"['s', 'r']","['Stratego', 'Risk']","[-0.15, 0.5]","[0.15, 0.5]",1,1,,,,,,,,,,,,,,,,,0,4,4,4,0,2,2,2,,,,,,,,,,,,,,,,,,,,,,,,,,,,,,,,,,,,,,,,,,,,,,,1268.4620936890005,None,1268.4620936890005,None,1268.4620936890005,None,s,1,1.1413325120010995,1270.0123511090005,None,1270.0123511090005,None,1270.0123511090005,None,1271.2123997959989,None,1271.2123997959989,None,1271.2123997959989,None,1271.2123997959989,None,,,,,,,,,,,,,,,,,,,,,,,,,,,,,,,,,,,,,,,,,,,,001,169,2020_Feb_25_1358,spring_faces,3.1.5,59.96284426373629,
condition files/Stage2_1.xlsx,,B2,T2,r,"['s', 'r']","['Stratego', 'Risk']","[-0.15, 0.5]","[0.15, 0.5]",1,1,,,,,,,,,,,,,,,,,0,4,4,4,0,3,3,3,,,,,,,,,,,,,,,,,,,,,,,,,,,,,,,,,,,,,,,,,,,,,,,1273.178519531999,None,1273.178519531999,None,1273.178519531999,None,r,1,0.4565505350001331,1274.729120236998,None,1274.729120236998,None,1274.729120236998,None,1275.262183337998,None,1275.262183337998,None,1275.262183337998,None,1275.262183337998,None,,,,,,,,,,,,,,,,,,,,,,,,,,,,,,,,,,,,,,,,,,,,001,169,2020_Feb_25_1358,spring_faces,3.1.5,59.96284426373629,
