condsFile,subStage,cue1,cue2,correct,responseKeys,responseNames,cue1Position,cue2Position,cue1Opacity,cue2Opacity,stageLoop0.thisRepN,stageLoop0.thisTrialN,stageLoop0.thisN,stageLoop0.thisIndex,blockLoop0.thisRepN,blockLoop0.thisTrialN,blockLoop0.thisN,blockLoop0.thisIndex,stage1Loop.thisRepN,stage1Loop.thisTrialN,stage1Loop.thisN,stage1Loop.thisIndex,blockLoop1.thisRepN,blockLoop1.thisTrialN,blockLoop1.thisN,blockLoop1.thisIndex,stage2Loop.thisRepN,stage2Loop.thisTrialN,stage2Loop.thisN,stage2Loop.thisIndex,blockLoop2.thisRepN,blockLoop2.thisTrialN,blockLoop2.thisN,blockLoop2.thisIndex,testLoop.thisRepN,testLoop.thisTrialN,testLoop.thisN,testLoop.thisIndex,blockLoopTest.thisRepN,blockLoopTest.thisTrialN,blockLoopTest.thisN,blockLoopTest.thisIndex,cuePics,id_instr_text.started,id_instr_text.stopped,space_to_continue_2.started,space_to_continue_2.stopped,end_instructions_resp_3.keys,end_instructions_resp_3.rt,end_instructions_resp_3.started,end_instructions_resp_3.stopped,id_input_instr.started,id_input_instr.stopped,id_input_rect.started,id_input_rect.stopped,id_input_resp.keys,id_input_resp.rt,id_input_resp.started,id_input_resp.stopped,sonaID,id_input_text.started,id_input_text.stopped,final_text.started,final_text.stopped,instructions.started,instructions.stopped,end_instructions_resp.keys,end_instructions_resp.rt,end_instructions_resp.started,end_instructions_resp.stopped,space_to_continue.started,space_to_continue.stopped,instructions_stage0.started,instructions_stage0.stopped,end_instructions_resp_stage0.keys,end_instructions_resp_stage0.rt,end_instructions_resp_stage0.started,end_instructions_resp_stage0.stopped,space_to_continue_stage0.started,space_to_continue_stage0.stopped,text.started,text.stopped,resp_text1.started,resp_text1.stopped,resp_text2.started,resp_text2.stopped,trial_resp.keys,trial_resp.corr,trial_resp.rt,trial_resp.started,trial_resp.stopped,cue1Image.started,cue1Image.stopped,cue2Image.started,cue2Image.stopped,cue1Image_fb.started,cue1Image_fb.stopped,cue2Image_fb.started,cue2Image_fb.stopped,fb_text_answer.started,fb_text_answer.stopped,feedback_image.started,feedback_image.stopped,instructions_stage1.started,instructions_stage1.stopped,end_instructions_resp_stage1.keys,end_instructions_resp_stage1.rt,end_instructions_resp_stage1.started,end_instructions_resp_stage1.stopped,space_to_continue_stage1.started,space_to_continue_stage1.stopped,instructions_2.started,instructions_2.stopped,end_instructions_resp_2.keys,end_instructions_resp_2.rt,end_instructions_resp_2.started,end_instructions_resp_2.stopped,press_space_to_continue_stage2.started,press_space_to_continue_stage2.stopped,instructions_testStage1.started,instructions_testStage1.stopped,end_instructions_resp_test1.keys,end_instructions_resp_test1.rt,end_instructions_resp_test1.started,end_instructions_resp_test1.stopped,press_space_to_continue_test1.started,press_space_to_continue_test1.stopped,cue1Image_testChoice.started,cue1Image_testChoice.stopped,cue2Image_testChoice.started,cue2Image_testChoice.stopped,test_resp.keys,test_resp.corr,test_resp.rt,test_resp.started,test_resp.stopped,cue1Image_testConf.started,cue1Image_testConf.stopped,cue2Image_testConf.started,cue2Image_testConf.stopped,conf_reminder.started,conf_reminder.stopped,conf_rating.response,conf_rating.rt,conf_rating.started,conf_rating.stopped,session,participant,date,expName,psychopyVersion,frameRate,
,,,,,,,,,,,,,,,,,,,,,,,,,,,,,,,,,,,,,,,,,,,"{'none': 'pictures/20M_AN_C.png', 'alpha': 'pictures/SHINEd_melon.png', 'beta': 'pictures/SHINEd_apple.png', 'theta': 'pictures/SHINEd_pepper.png', 'phi': 'pictures/SHINEd_pear.png', 'T1': 'pictures/20M_AN_C.png', 'T2': 'pictures/36M_AN_C.png', 'T3': 'pictures/22M_AN_C.png', 'T4': 'pictures/37M_AN_C.png', 'T5': 'pictures/32M_AN_C.png', 'T6': 'pictures/33M_AN_C.png', 'B1': 'pictures/23M_NE_C.png', 'B2': 'pictures/26M_NE_C.png', 'B3': 'pictures/34M_NE_C.png', 'B4': 'pictures/38M_NE_C.png', 'B5': 'pictures/25M_NE_C.png', 'B6': 'pictures/31M_NE_C.png'}",1356.9331934639995,None,1361.9326589329976,None,space,8.942960258002131,1361.9326589329976,None,,,,,,,,,,,,,,,,,,,,,,,,,,,,,,,,,,,,,,,,,,,,,,,,,,,,,,,,,,,,,,,,,,,,,,,,,,,,,,,,,,,,,,,,,,,,,,,,001,170,2020_Feb_25_1449,spring_faces,3.1.5,60.047560791504594,
,,,,,,,,,,,,,,,,,,,,,,,,,,,,,,,,,,,,,,,,,,,,,,,,,,,,1371.2498187210003,None,1371.2498187210003,None,"['0', '2', '2', '4', 'm', 'a', 'f', 'a', 'i']","[22.15371890100141, 22.90572112600057, 31.865715424999507, 33.06570038200152, 42.50572893000208, 42.7937917929994, 46.68170914499933, 46.85776840700055, 47.241787197999656]",1371.2498187210003,None,,,,,,,,,,,,,,,,,,,,,,,,,,,,,,,,,,,,,,,,,,,,,,,,,,,,,,,,,,,,,,,,,,,,,,,,,,,,,,,,,,,,,,,,001,170,2020_Feb_25_1449,spring_faces,3.1.5,60.047560791504594,
,,,,,,,,,,,,,,,,,,,,,,,,,,,,,,,,,,,,,,,,,,,,,,,,,,,,,,,,,,,,0224mafai,1371.2498187210003,None,1371.2498187210003,None,1423.5663903249988,None,space,3.4134842909988947,1428.5661326139998,None,,,,,,,,,,,,,,,,,,,,,,,,,,,,,,,,,,,,,,,,,,,,,,,,,,,,,,,,,,,,,,,,,,,,,,,,,,,,,001,170,2020_Feb_25_1449,spring_faces,3.1.5,60.047560791504594,
,,,,,,,,,,,,,,,,,,,,,,,,,,,,,,,,,,,,,,,,,,,,,,,,,,,,,,,,,,,,,,,,,,,,,,,1428.5661326139998,None,1432.0165539279988,None,space,7.059352987998864,1437.0162727869974,None,,,,,,,,,,,,,,,,,,,,,,,,,,,,,,,,,,,,,,,,,,,,,,,,,,,,,,,,,,,,,,,,,,,,,001,170,2020_Feb_25_1449,spring_faces,3.1.5,60.047560791504594,
condition files/Stage0a.xlsx,0a,alpha,none,h,"['h', 'g']","['Chess', 'Go']","[0, 0.5]","[0, 0]",1,0,0,0,0,0,0,0,0,0,,,,,,,,,,,,,,,,,,,,,,,,,,,,,,,,,,,,,,,,,,,,,,,,,,,,,,,,,,,,,1437.0162727869974,None,1444.1324249209974,None,1444.1324249209974,None,1444.1324249209974,None,h,1,2.359277513001871,1445.7163483969998,None,1445.7163483969998,None,1445.7163483969998,None,1448.1497997779989,None,1448.1497997779989,None,1448.1497997779989,None,1448.1497997779989,None,,,,,,,,,,,,,,,,,,,,,,,,,,,,,,,,,,,,,,,,,,,,001,170,2020_Feb_25_1449,spring_faces,3.1.5,60.047560791504594,
condition files/Stage0a.xlsx,0a,beta,none,g,"['h', 'g']","['Chess', 'Go']","[0, 0.5]","[0, 0]",1,0,0,0,0,0,0,1,1,1,,,,,,,,,,,,,,,,,,,,,,,,,,,,,,,,,,,,,,,,,,,,,,,,,,,,,,,,,,,,,,,1450.0994315729986,None,1450.0994315729986,None,1450.0994315729986,None,g,1,0.872802040001261,1451.650788859999,None,1451.650788859999,None,1451.650788859999,None,1452.5828827789992,None,1452.5828827789992,None,1452.5828827789992,None,1452.5828827789992,None,,,,,,,,,,,,,,,,,,,,,,,,,,,,,,,,,,,,,,,,,,,,001,170,2020_Feb_25_1449,spring_faces,3.1.5,60.047560791504594,
condition files/Stage0a.xlsx,0a,alpha,none,h,"['h', 'g']","['Chess', 'Go']","[0, 0.5]","[0, 0]",1,0,0,1,1,1,0,0,0,0,,,,,,,,,,,,,,,,,,,,,,,,,,,,,,,,,,,,,,,,,,,,,,,,,,,,,,,,,,,,,,,1454.5664721659996,None,1454.5664721659996,None,1454.5664721659996,None,h,1,0.7762252949978574,1456.0993974619996,None,1456.0993974619996,None,1456.0993974619996,None,1456.9326380649982,None,1456.9326380649982,None,1456.9326380649982,None,1456.9326380649982,None,,,,,,,,,,,,,,,,,,,,,,,,,,,,,,,,,,,,,,,,,,,,001,170,2020_Feb_25_1449,spring_faces,3.1.5,60.047560791504594,
condition files/Stage0a.xlsx,0a,beta,none,g,"['h', 'g']","['Chess', 'Go']","[0, 0.5]","[0, 0]",1,0,0,1,1,1,0,1,1,1,,,,,,,,,,,,,,,,,,,,,,,,,,,,,,,,,,,,,,,,,,,,,,,,,,,,,,,,,,,,,,,1458.8994376499977,None,1458.8994376499977,None,1458.8994376499977,None,g,1,0.6824628879985539,1460.4330552619977,None,1460.4330552619977,None,1460.4330552619977,None,1461.1661082699975,None,1461.1661082699975,None,1461.1661082699975,None,1461.1661082699975,None,,,,,,,,,,,,,,,,,,,,,,,,,,,,,,,,,,,,,,,,,,,,001,170,2020_Feb_25_1449,spring_faces,3.1.5,60.047560791504594,
condition files/Stage0a.xlsx,0a,alpha,none,h,"['h', 'g']","['Chess', 'Go']","[0, 0.5]","[0, 0]",1,0,0,2,2,2,0,0,0,0,,,,,,,,,,,,,,,,,,,,,,,,,,,,,,,,,,,,,,,,,,,,,,,,,,,,,,,,,,,,,,,1463.1498010809992,None,1463.1498010809992,None,1463.1498010809992,None,h,1,0.49532397400253103,1464.6844325659986,None,1464.6844325659986,None,1464.6844325659986,None,1465.2323591339991,None,1465.2323591339991,None,1465.2323591339991,None,1465.2323591339991,None,,,,,,,,,,,,,,,,,,,,,,,,,,,,,,,,,,,,,,,,,,,,001,170,2020_Feb_25_1449,spring_faces,3.1.5,60.047560791504594,
condition files/Stage0a.xlsx,0a,beta,none,g,"['h', 'g']","['Chess', 'Go']","[0, 0.5]","[0, 0]",1,0,0,2,2,2,0,1,1,1,,,,,,,,,,,,,,,,,,,,,,,,,,,,,,,,,,,,,,,,,,,,,,,,,,,,,,,,,,,,,,,1467.1995113679986,None,1467.1995113679986,None,1467.1995113679986,None,g,1,0.9106057640019571,1468.7489308699987,None,1468.7489308699987,None,1468.7489308699987,None,1469.7161650089984,None,1469.7161650089984,None,1469.7161650089984,None,1469.7161650089984,None,,,,,,,,,,,,,,,,,,,,,,,,,,,,,,,,,,,,,,,,,,,,001,170,2020_Feb_25_1449,spring_faces,3.1.5,60.047560791504594,
condition files/Stage0a.xlsx,0a,beta,none,g,"['h', 'g']","['Chess', 'Go']","[0, 0.5]","[0, 0]",1,0,0,3,3,3,0,0,0,1,,,,,,,,,,,,,,,,,,,,,,,,,,,,,,,,,,,,,,,,,,,,,,,,,,,,,,,,,,,,,,,1471.6992435440006,None,1471.6992435440006,None,1471.6992435440006,None,g,1,1.0824987960004364,1473.2330284499985,None,1473.2330284499985,None,1473.2330284499985,None,1474.366113701999,None,1474.366113701999,None,1474.366113701999,None,1474.366113701999,None,,,,,,,,,,,,,,,,,,,,,,,,,,,,,,,,,,,,,,,,,,,,001,170,2020_Feb_25_1449,spring_faces,3.1.5,60.047560791504594,
condition files/Stage0a.xlsx,0a,alpha,none,h,"['h', 'g']","['Chess', 'Go']","[0, 0.5]","[0, 0]",1,0,0,3,3,3,0,1,1,0,,,,,,,,,,,,,,,,,,,,,,,,,,,,,,,,,,,,,,,,,,,,,,,,,,,,,,,,,,,,,,,1476.332670017,None,1476.332670017,None,1476.332670017,None,h,1,0.6892042639992724,1477.866307289998,None,1477.866307289998,None,1477.866307289998,None,1478.6159042189975,None,1478.6159042189975,None,1478.6159042189975,None,1478.6159042189975,None,,,,,,,,,,,,,,,,,,,,,,,,,,,,,,,,,,,,,,,,,,,,001,170,2020_Feb_25_1449,spring_faces,3.1.5,60.047560791504594,
condition files/Stage0a.xlsx,0a,beta,none,g,"['h', 'g']","['Chess', 'Go']","[0, 0.5]","[0, 0]",1,0,0,4,4,4,0,0,0,1,,,,,,,,,,,,,,,,,,,,,,,,,,,,,,,,,,,,,,,,,,,,,,,,,,,,,,,,,,,,,,,1480.5993133349984,None,1480.5993133349984,None,1480.5993133349984,None,g,1,0.7596562740000081,1482.1159344959997,None,1482.1159344959997,None,1482.1159344959997,None,1482.9328658329978,None,1482.9328658329978,None,1482.9328658329978,None,1482.9328658329978,None,,,,,,,,,,,,,,,,,,,,,,,,,,,,,,,,,,,,,,,,,,,,001,170,2020_Feb_25_1449,spring_faces,3.1.5,60.047560791504594,
condition files/Stage0a.xlsx,0a,alpha,none,h,"['h', 'g']","['Chess', 'Go']","[0, 0.5]","[0, 0]",1,0,0,4,4,4,0,1,1,0,,,,,,,,,,,,,,,,,,,,,,,,,,,,,,,,,,,,,,,,,,,,,,,,,,,,,,,,,,,,,,,1484.899467973999,None,1484.899467973999,None,1484.899467973999,None,h,1,0.5707886749987665,1486.4327331999993,None,1486.4327331999993,None,1486.4327331999993,None,1487.0658819489981,None,1487.0658819489981,None,1487.0658819489981,None,1487.0658819489981,None,,,,,,,,,,,,,,,,,,,,,,,,,,,,,,,,,,,,,,,,,,,,001,170,2020_Feb_25_1449,spring_faces,3.1.5,60.047560791504594,
condition files/Stage0a.xlsx,0a,alpha,none,h,"['h', 'g']","['Chess', 'Go']","[0, 0.5]","[0, 0]",1,0,0,5,5,5,0,0,0,0,,,,,,,,,,,,,,,,,,,,,,,,,,,,,,,,,,,,,,,,,,,,,,,,,,,,,,,,,,,,,,,1489.049970701999,None,1489.049970701999,None,1489.049970701999,None,h,1,0.628969302000769,1490.5825750779986,None,1490.5825750779986,None,1490.5825750779986,None,1491.2656606719975,None,1491.2656606719975,None,1491.2656606719975,None,1491.2656606719975,None,,,,,,,,,,,,,,,,,,,,,,,,,,,,,,,,,,,,,,,,,,,,001,170,2020_Feb_25_1449,spring_faces,3.1.5,60.047560791504594,
condition files/Stage0a.xlsx,0a,beta,none,g,"['h', 'g']","['Chess', 'Go']","[0, 0.5]","[0, 0]",1,0,0,5,5,5,0,1,1,1,,,,,,,,,,,,,,,,,,,,,,,,,,,,,,,,,,,,,,,,,,,,,,,,,,,,,,,,,,,,,,,1493.2319072360006,None,1493.2319072360006,None,1493.2319072360006,None,g,1,0.6693545800007996,1494.7661618210004,None,1494.7661618210004,None,1494.7661618210004,None,1495.4996165209996,None,1495.4996165209996,None,1495.4996165209996,None,1495.4996165209996,None,,,,,,,,,,,,,,,,,,,,,,,,,,,,,,,,,,,,,,,,,,,,001,170,2020_Feb_25_1449,spring_faces,3.1.5,60.047560791504594,
condition files/Stage0b_1.xlsx,0b,none,beta,g,"['h', 'g']","['Chess', 'Go']","[-0.15, 0.5]","[0.15, 0.5]",0,1,0,6,6,6,0,0,0,1,,,,,,,,,,,,,,,,,,,,,,,,,,,,,,,,,,,,,,,,,,,,,,,,,,,,,,,,,,,,,,,1497.4831650939996,None,1497.4831650939996,None,1497.4831650939996,None,g,1,0.9952562420003233,1499.0162770079987,None,1499.0162770079987,None,1499.0162770079987,None,1500.0666564919993,None,1500.0666564919993,None,1500.0666564919993,None,1500.0666564919993,None,,,,,,,,,,,,,,,,,,,,,,,,,,,,,,,,,,,,,,,,,,,,001,170,2020_Feb_25_1449,spring_faces,3.1.5,60.047560791504594,
condition files/Stage0b_1.xlsx,0b,alpha,none,h,"['h', 'g']","['Chess', 'Go']","[-0.15, 0.5]","[0.15, 0.5]",1,0,0,6,6,6,0,1,1,0,,,,,,,,,,,,,,,,,,,,,,,,,,,,,,,,,,,,,,,,,,,,,,,,,,,,,,,,,,,,,,,1502.0326879679997,None,1502.0326879679997,None,1502.0326879679997,None,h,1,0.6649524759995984,1503.5705546930003,None,1503.5705546930003,None,1503.5705546930003,None,1504.301300326999,None,1504.301300326999,None,1504.301300326999,None,1504.301300326999,None,,,,,,,,,,,,,,,,,,,,,,,,,,,,,,,,,,,,,,,,,,,,001,170,2020_Feb_25_1449,spring_faces,3.1.5,60.047560791504594,
condition files/Stage0b_2.xlsx,0b,beta,none,g,"['h', 'g']","['Chess', 'Go']","[-0.15, 0.5]","[0.15, 0.5]",1,0,0,7,7,7,0,0,0,1,,,,,,,,,,,,,,,,,,,,,,,,,,,,,,,,,,,,,,,,,,,,,,,,,,,,,,,,,,,,,,,1506.2830660910004,None,1506.2830660910004,None,1506.2830660910004,None,h,0,0.6430467579994001,1507.8164856099975,None,1507.8164856099975,None,1507.8164856099975,None,1508.5160067029974,None,1508.5160067029974,None,1508.5160067029974,None,1508.5160067029974,None,,,,,,,,,,,,,,,,,,,,,,,,,,,,,,,,,,,,,,,,,,,,001,170,2020_Feb_25_1449,spring_faces,3.1.5,60.047560791504594,
condition files/Stage0b_2.xlsx,0b,none,alpha,h,"['h', 'g']","['Chess', 'Go']","[-0.15, 0.5]","[0.15, 0.5]",0,1,0,7,7,7,0,1,1,0,,,,,,,,,,,,,,,,,,,,,,,,,,,,,,,,,,,,,,,,,,,,,,,,,,,,,,,,,,,,,,,1510.4824794849992,None,1510.4824794849992,None,1510.4824794849992,None,h,1,0.7945805690033012,1512.0329340079988,None,1512.0329340079988,None,1512.0329340079988,None,1512.888000125,None,1512.888000125,None,1512.888000125,None,1512.888000125,None,,,,,,,,,,,,,,,,,,,,,,,,,,,,,,,,,,,,,,,,,,,,001,170,2020_Feb_25_1449,spring_faces,3.1.5,60.047560791504594,
condition files/Stage0b_1.xlsx,0b,alpha,none,h,"['h', 'g']","['Chess', 'Go']","[-0.15, 0.5]","[0.15, 0.5]",1,0,0,8,8,8,0,0,0,0,,,,,,,,,,,,,,,,,,,,,,,,,,,,,,,,,,,,,,,,,,,,,,,,,,,,,,,,,,,,,,,1514.8656867649988,None,1514.8656867649988,None,1514.8656867649988,None,h,1,0.778211253000336,1516.4015814630002,None,1516.4015814630002,None,1516.4015814630002,None,1517.232917205998,None,1517.232917205998,None,1517.232917205998,None,1517.232917205998,None,,,,,,,,,,,,,,,,,,,,,,,,,,,,,,,,,,,,,,,,,,,,001,170,2020_Feb_25_1449,spring_faces,3.1.5,60.047560791504594,
condition files/Stage0b_1.xlsx,0b,none,beta,g,"['h', 'g']","['Chess', 'Go']","[-0.15, 0.5]","[0.15, 0.5]",0,1,0,8,8,8,0,1,1,1,,,,,,,,,,,,,,,,,,,,,,,,,,,,,,,,,,,,,,,,,,,,,,,,,,,,,,,,,,,,,,,1519.1994388149978,None,1519.1994388149978,None,1519.1994388149978,None,g,1,0.6679380409987061,1520.7356103799975,None,1520.7356103799975,None,1520.7356103799975,None,1521.4679182599975,None,1521.4679182599975,None,1521.4679182599975,None,1521.4679182599975,None,,,,,,,,,,,,,,,,,,,,,,,,,,,,,,,,,,,,,,,,,,,,001,170,2020_Feb_25_1449,spring_faces,3.1.5,60.047560791504594,
condition files/Stage0b_2.xlsx,0b,beta,none,g,"['h', 'g']","['Chess', 'Go']","[-0.15, 0.5]","[0.15, 0.5]",1,0,0,9,9,9,0,0,0,1,,,,,,,,,,,,,,,,,,,,,,,,,,,,,,,,,,,,,,,,,,,,,,,,,,,,,,,,,,,,,,,1523.4493844149983,None,1523.4493844149983,None,1523.4493844149983,None,g,1,0.8149799790007819,1524.9885540739997,None,1524.9885540739997,None,1524.9885540739997,None,1525.8663981770005,None,1525.8663981770005,None,1525.8663981770005,None,1525.8663981770005,None,,,,,,,,,,,,,,,,,,,,,,,,,,,,,,,,,,,,,,,,,,,,001,170,2020_Feb_25_1449,spring_faces,3.1.5,60.047560791504594,
condition files/Stage0b_2.xlsx,0b,none,alpha,h,"['h', 'g']","['Chess', 'Go']","[-0.15, 0.5]","[0.15, 0.5]",0,1,0,9,9,9,0,1,1,0,,,,,,,,,,,,,,,,,,,,,,,,,,,,,,,,,,,,,,,,,,,,,,,,,,,,,,,,,,,,,,,1527.832753499999,None,1527.832753499999,None,1527.832753499999,None,h,1,0.7419208799983608,1529.365687786998,None,1529.365687786998,None,1529.365687786998,None,1530.1830985800007,None,1530.1830985800007,None,1530.1830985800007,None,1530.1830985800007,None,,,,,,,,,,,,,,,,,,,,,,,,,,,,,,,,,,,,,,,,,,,,001,170,2020_Feb_25_1449,spring_faces,3.1.5,60.047560791504594,
condition files/Stage0b_1.xlsx,0b,alpha,none,h,"['h', 'g']","['Chess', 'Go']","[-0.15, 0.5]","[0.15, 0.5]",1,0,0,10,10,10,0,0,0,0,,,,,,,,,,,,,,,,,,,,,,,,,,,,,,,,,,,,,,,,,,,,,,,,,,,,,,,,,,,,,,,1532.1496389210006,None,1532.1496389210006,None,1532.1496389210006,None,h,1,1.3840723640023498,1533.6994233330006,None,1533.6994233330006,None,1533.6994233330006,None,1535.1496777510001,None,1535.1496777510001,None,1535.1496777510001,None,1535.1496777510001,None,,,,,,,,,,,,,,,,,,,,,,,,,,,,,,,,,,,,,,,,,,,,001,170,2020_Feb_25_1449,spring_faces,3.1.5,60.047560791504594,
condition files/Stage0b_1.xlsx,0b,none,beta,g,"['h', 'g']","['Chess', 'Go']","[-0.15, 0.5]","[0.15, 0.5]",0,1,0,10,10,10,0,1,1,1,,,,,,,,,,,,,,,,,,,,,,,,,,,,,,,,,,,,,,,,,,,,,,,,,,,,,,,,,,,,,,,1537.1161290460004,None,1537.1161290460004,None,1537.1161290460004,None,g,1,0.8314403039985336,1538.652052303998,None,1538.652052303998,None,1538.652052303998,None,1539.549882422998,None,1539.549882422998,None,1539.549882422998,None,1539.549882422998,None,,,,,,,,,,,,,,,,,,,,,,,,,,,,,,,,,,,,,,,,,,,,001,170,2020_Feb_25_1449,spring_faces,3.1.5,60.047560791504594,
condition files/Stage0b_2.xlsx,0b,none,alpha,h,"['h', 'g']","['Chess', 'Go']","[-0.15, 0.5]","[0.15, 0.5]",0,1,0,11,11,11,0,0,0,0,,,,,,,,,,,,,,,,,,,,,,,,,,,,,,,,,,,,,,,,,,,,,,,,,,,,,,,,,,,,,,,1541.5329083709985,None,1541.5329083709985,None,1541.5329083709985,None,h,1,0.8166181549968314,1543.0668975400004,None,1543.0668975400004,None,1543.0668975400004,None,1543.9495172979987,None,1543.9495172979987,None,1543.9495172979987,None,1543.9495172979987,None,,,,,,,,,,,,,,,,,,,,,,,,,,,,,,,,,,,,,,,,,,,,001,170,2020_Feb_25_1449,spring_faces,3.1.5,60.047560791504594,
condition files/Stage0b_2.xlsx,0b,beta,none,g,"['h', 'g']","['Chess', 'Go']","[-0.15, 0.5]","[0.15, 0.5]",1,0,0,11,11,11,0,1,1,1,,,,,,,,,,,,,,,,,,,,,,,,,,,,,,,,,,,,,,,,,,,,,,,,,,,,,,,,,,,,,,,1545.9160536870004,None,1545.9160536870004,None,1545.9160536870004,None,g,1,0.6691835390010965,1547.4543988929981,None,1547.4543988929981,None,1547.4543988929981,None,1548.187182843998,None,1548.187182843998,None,1548.187182843998,None,1548.187182843998,None,,,,,,,,,,,,,,,,,,,,,,,,,,,,,,,,,,,,,,,,,,,,001,170,2020_Feb_25_1449,spring_faces,3.1.5,60.047560791504594,
condition files/Stage0c_1.xlsx,0c,theta,alpha,h,"['h', 'g']","['Chess', 'Go']","[-0.15, 0.5]","[0.15, 0.5]",1,1,0,12,12,12,0,0,0,0,,,,,,,,,,,,,,,,,,,,,,,,,,,,,,,,,,,,,,,,,,,,,,,,,,,,,,,,,,,,,,,1550.1657431259991,None,1550.1657431259991,None,1550.1657431259991,None,g,0,4.199831172998529,1551.699697357999,None,1551.699697357999,None,1551.699697357999,None,1555.949510683,None,1555.949510683,None,1555.949510683,None,1555.949510683,None,,,,,,,,,,,,,,,,,,,,,,,,,,,,,,,,,,,,,,,,,,,,001,170,2020_Feb_25_1449,spring_faces,3.1.5,60.047560791504594,
condition files/Stage0c_1.xlsx,0c,alpha,phi,h,"['h', 'g']","['Chess', 'Go']","[-0.15, 0.5]","[0.15, 0.5]",1,1,0,12,12,12,0,1,1,1,,,,,,,,,,,,,,,,,,,,,,,,,,,,,,,,,,,,,,,,,,,,,,,,,,,,,,,,,,,,,,,1557.9153362260004,None,1557.9153362260004,None,1557.9153362260004,None,g,0,1.1862558709981386,1559.4492671730004,None,1559.4492671730004,None,1559.4492671730004,None,1560.6859750669973,None,1560.6859750669973,None,1560.6859750669973,None,1560.6859750669973,None,,,,,,,,,,,,,,,,,,,,,,,,,,,,,,,,,,,,,,,,,,,,001,170,2020_Feb_25_1449,spring_faces,3.1.5,60.047560791504594,
condition files/Stage0c_1.xlsx,0c,beta,theta,g,"['h', 'g']","['Chess', 'Go']","[-0.15, 0.5]","[0.15, 0.5]",1,1,0,12,12,12,0,2,2,2,,,,,,,,,,,,,,,,,,,,,,,,,,,,,,,,,,,,,,,,,,,,,,,,,,,,,,,,,,,,,,,1562.6656449429975,None,1562.6656449429975,None,1562.6656449429975,None,g,1,1.059955524000543,1564.1995819919975,None,1564.1995819919975,None,1564.1995819919975,None,1565.316251160999,None,1565.316251160999,None,1565.316251160999,None,1565.316251160999,None,,,,,,,,,,,,,,,,,,,,,,,,,,,,,,,,,,,,,,,,,,,,001,170,2020_Feb_25_1449,spring_faces,3.1.5,60.047560791504594,
condition files/Stage0c_1.xlsx,0c,phi,beta,g,"['h', 'g']","['Chess', 'Go']","[-0.15, 0.5]","[0.15, 0.5]",1,1,0,12,12,12,0,3,3,3,,,,,,,,,,,,,,,,,,,,,,,,,,,,,,,,,,,,,,,,,,,,,,,,,,,,,,,,,,,,,,,1567.282831143999,None,1567.282831143999,None,1567.282831143999,None,g,1,1.2119508699979633,1568.8155611319999,None,1568.8155611319999,None,1568.8155611319999,None,1570.0672431540006,None,1570.0672431540006,None,1570.0672431540006,None,1570.0672431540006,None,,,,,,,,,,,,,,,,,,,,,,,,,,,,,,,,,,,,,,,,,,,,001,170,2020_Feb_25_1449,spring_faces,3.1.5,60.047560791504594,
condition files/Stage0c_2.xlsx,0c,beta,phi,g,"['h', 'g']","['Chess', 'Go']","[-0.15, 0.5]","[0.15, 0.5]",1,1,0,13,13,13,0,0,0,3,,,,,,,,,,,,,,,,,,,,,,,,,,,,,,,,,,,,,,,,,,,,,,,,,,,,,,,,,,,,,,,1572.065777623,None,1572.065777623,None,1572.065777623,None,g,1,0.9240477489984187,1573.5995895939996,None,1573.5995895939996,None,1573.5995895939996,None,1574.5672650929992,None,1574.5672650929992,None,1574.5672650929992,None,1574.5672650929992,None,,,,,,,,,,,,,,,,,,,,,,,,,,,,,,,,,,,,,,,,,,,,001,170,2020_Feb_25_1449,spring_faces,3.1.5,60.047560791504594,
condition files/Stage0c_2.xlsx,0c,phi,alpha,h,"['h', 'g']","['Chess', 'Go']","[-0.15, 0.5]","[0.15, 0.5]",1,1,0,13,13,13,0,1,1,1,,,,,,,,,,,,,,,,,,,,,,,,,,,,,,,,,,,,,,,,,,,,,,,,,,,,,,,,,,,,,,,1576.5494854789977,None,1576.5494854789977,None,1576.5494854789977,None,h,1,0.8407156970024516,1578.0828709669986,None,1578.0828709669986,None,1578.0828709669986,None,1578.982464192999,None,1578.982464192999,None,1578.982464192999,None,1578.982464192999,None,,,,,,,,,,,,,,,,,,,,,,,,,,,,,,,,,,,,,,,,,,,,001,170,2020_Feb_25_1449,spring_faces,3.1.5,60.047560791504594,
condition files/Stage0c_2.xlsx,0c,theta,beta,g,"['h', 'g']","['Chess', 'Go']","[-0.15, 0.5]","[0.15, 0.5]",1,1,0,13,13,13,0,2,2,2,,,,,,,,,,,,,,,,,,,,,,,,,,,,,,,,,,,,,,,,,,,,,,,,,,,,,,,,,,,,,,,1580.9494738469984,None,1580.9494738469984,None,1580.9494738469984,None,g,1,0.7286716460002935,1582.482814742998,None,1582.482814742998,None,1582.482814742998,None,1583.2664595899987,None,1583.2664595899987,None,1583.2664595899987,None,1583.2664595899987,None,,,,,,,,,,,,,,,,,,,,,,,,,,,,,,,,,,,,,,,,,,,,001,170,2020_Feb_25_1449,spring_faces,3.1.5,60.047560791504594,
condition files/Stage0c_2.xlsx,0c,alpha,theta,h,"['h', 'g']","['Chess', 'Go']","[-0.15, 0.5]","[0.15, 0.5]",1,1,0,13,13,13,0,3,3,0,,,,,,,,,,,,,,,,,,,,,,,,,,,,,,,,,,,,,,,,,,,,,,,,,,,,,,,,,,,,,,,1585.2324252100007,None,1585.2324252100007,None,1585.2324252100007,None,h,1,0.9252256020008645,1586.7663646209985,None,1586.7663646209985,None,1586.7663646209985,None,1587.749158712999,None,1587.749158712999,None,1587.749158712999,None,1587.749158712999,None,,,,,,,,,,,,,,,,,,,,,,,,,,,,,,,,,,,,,,,,,,,,001,170,2020_Feb_25_1449,spring_faces,3.1.5,60.047560791504594,
condition files/Stage0c_1.xlsx,0c,theta,alpha,h,"['h', 'g']","['Chess', 'Go']","[-0.15, 0.5]","[0.15, 0.5]",1,1,0,14,14,14,0,0,0,0,,,,,,,,,,,,,,,,,,,,,,,,,,,,,,,,,,,,,,,,,,,,,,,,,,,,,,,,,,,,,,,1589.732786149998,None,1589.732786149998,None,1589.732786149998,None,h,1,0.6818513079997501,1591.265679442,None,1591.265679442,None,1591.265679442,None,1591.9841924549983,None,1591.9841924549983,None,1591.9841924549983,None,1591.9841924549983,None,,,,,,,,,,,,,,,,,,,,,,,,,,,,,,,,,,,,,,,,,,,,001,170,2020_Feb_25_1449,spring_faces,3.1.5,60.047560791504594,
condition files/Stage0c_1.xlsx,0c,beta,theta,g,"['h', 'g']","['Chess', 'Go']","[-0.15, 0.5]","[0.15, 0.5]",1,1,0,14,14,14,0,1,1,2,,,,,,,,,,,,,,,,,,,,,,,,,,,,,,,,,,,,,,,,,,,,,,,,,,,,,,,,,,,,,,,1593.9658937929999,None,1593.9658937929999,None,1593.9658937929999,None,g,1,0.7518236049982079,1595.4996960360004,None,1595.4996960360004,None,1595.4996960360004,None,1596.3164986459997,None,1596.3164986459997,None,1596.3164986459997,None,1596.3164986459997,None,,,,,,,,,,,,,,,,,,,,,,,,,,,,,,,,,,,,,,,,,,,,001,170,2020_Feb_25_1449,spring_faces,3.1.5,60.047560791504594,
condition files/Stage0c_1.xlsx,0c,alpha,phi,h,"['h', 'g']","['Chess', 'Go']","[-0.15, 0.5]","[0.15, 0.5]",1,1,0,14,14,14,0,2,2,1,,,,,,,,,,,,,,,,,,,,,,,,,,,,,,,,,,,,,,,,,,,,,,,,,,,,,,,,,,,,,,,1598.2825083120006,None,1598.2825083120006,None,1598.2825083120006,None,h,1,0.8989201280019188,1599.8166007399996,None,1599.8166007399996,None,1599.8166007399996,None,1600.7663441650002,None,1600.7663441650002,None,1600.7663441650002,None,1600.7663441650002,None,,,,,,,,,,,,,,,,,,,,,,,,,,,,,,,,,,,,,,,,,,,,001,170,2020_Feb_25_1449,spring_faces,3.1.5,60.047560791504594,
condition files/Stage0c_1.xlsx,0c,phi,beta,g,"['h', 'g']","['Chess', 'Go']","[-0.15, 0.5]","[0.15, 0.5]",1,1,0,14,14,14,0,3,3,3,,,,,,,,,,,,,,,,,,,,,,,,,,,,,,,,,,,,,,,,,,,,,,,,,,,,,,,,,,,,,,,1602.732943900999,None,1602.732943900999,None,1602.732943900999,None,g,1,0.8175881619972643,1604.2658787029977,None,1604.2658787029977,None,1604.2658787029977,None,1605.1497661600006,None,1605.1497661600006,None,1605.1497661600006,None,1605.1497661600006,None,,,,,,,,,,,,,,,,,,,,,,,,,,,,,,,,,,,,,,,,,,,,001,170,2020_Feb_25_1449,spring_faces,3.1.5,60.047560791504594,
condition files/Stage0c_2.xlsx,0c,phi,alpha,h,"['h', 'g']","['Chess', 'Go']","[-0.15, 0.5]","[0.15, 0.5]",1,1,0,15,15,15,0,0,0,1,,,,,,,,,,,,,,,,,,,,,,,,,,,,,,,,,,,,,,,,,,,,,,,,,,,,,,,,,,,,,,,1607.1327811029987,None,1607.1327811029987,None,1607.1327811029987,None,h,1,1.2171973510012322,1608.6662975079998,None,1608.6662975079998,None,1608.6662975079998,None,1609.9496786739983,None,1609.9496786739983,None,1609.9496786739983,None,1609.9496786739983,None,,,,,,,,,,,,,,,,,,,,,,,,,,,,,,,,,,,,,,,,,,,,001,170,2020_Feb_25_1449,spring_faces,3.1.5,60.047560791504594,
condition files/Stage0c_2.xlsx,0c,theta,beta,g,"['h', 'g']","['Chess', 'Go']","[-0.15, 0.5]","[0.15, 0.5]",1,1,0,15,15,15,0,1,1,2,,,,,,,,,,,,,,,,,,,,,,,,,,,,,,,,,,,,,,,,,,,,,,,,,,,,,,,,,,,,,,,1611.9161269399992,None,1611.9161269399992,None,1611.9161269399992,None,g,1,1.4740071410014934,1613.4495537820003,None,1613.4495537820003,None,1613.4495537820003,None,1614.9832331840007,None,1614.9832331840007,None,1614.9832331840007,None,1614.9832331840007,None,,,,,,,,,,,,,,,,,,,,,,,,,,,,,,,,,,,,,,,,,,,,001,170,2020_Feb_25_1449,spring_faces,3.1.5,60.047560791504594,
condition files/Stage0c_2.xlsx,0c,beta,phi,g,"['h', 'g']","['Chess', 'Go']","[-0.15, 0.5]","[0.15, 0.5]",1,1,0,15,15,15,0,2,2,3,,,,,,,,,,,,,,,,,,,,,,,,,,,,,,,,,,,,,,,,,,,,,,,,,,,,,,,,,,,,,,,1616.949431443998,None,1616.949431443998,None,1616.949431443998,None,g,1,1.5769673399991007,1618.482567477,None,1618.482567477,None,1618.482567477,None,1620.1005033859983,None,1620.1005033859983,None,1620.1005033859983,None,1620.1005033859983,None,,,,,,,,,,,,,,,,,,,,,,,,,,,,,,,,,,,,,,,,,,,,001,170,2020_Feb_25_1449,spring_faces,3.1.5,60.047560791504594,
condition files/Stage0c_2.xlsx,0c,alpha,theta,h,"['h', 'g']","['Chess', 'Go']","[-0.15, 0.5]","[0.15, 0.5]",1,1,0,15,15,15,0,3,3,0,,,,,,,,,,,,,,,,,,,,,,,,,,,,,,,,,,,,,,,,,,,,,,,,,,,,,,,,,,,,,,,1622.082900860998,None,1622.082900860998,None,1622.082900860998,None,h,1,0.9075734049984021,1623.6160009759988,None,1623.6160009759988,None,1623.6160009759988,None,1624.582543618999,None,1624.582543618999,None,1624.582543618999,None,1624.582543618999,None,,,,,,,,,,,,,,,,,,,,,,,,,,,,,,,,,,,,,,,,,,,,001,170,2020_Feb_25_1449,spring_faces,3.1.5,60.047560791504594,
condition files/Stage0c_1.xlsx,0c,theta,alpha,h,"['h', 'g']","['Chess', 'Go']","[-0.15, 0.5]","[0.15, 0.5]",1,1,0,16,16,16,0,0,0,0,,,,,,,,,,,,,,,,,,,,,,,,,,,,,,,,,,,,,,,,,,,,,,,,,,,,,,,,,,,,,,,1626.566040914,None,1626.566040914,None,1626.566040914,None,h,1,0.9678294990007998,1628.0996427169994,None,1628.0996427169994,None,1628.0996427169994,None,1629.1183816560006,None,1629.1183816560006,None,1629.1183816560006,None,1629.1183816560006,None,,,,,,,,,,,,,,,,,,,,,,,,,,,,,,,,,,,,,,,,,,,,001,170,2020_Feb_25_1449,spring_faces,3.1.5,60.047560791504594,
condition files/Stage0c_1.xlsx,0c,alpha,phi,h,"['h', 'g']","['Chess', 'Go']","[-0.15, 0.5]","[0.15, 0.5]",1,1,0,16,16,16,0,1,1,1,,,,,,,,,,,,,,,,,,,,,,,,,,,,,,,,,,,,,,,,,,,,,,,,,,,,,,,,,,,,,,,1631.0994148909995,None,1631.0994148909995,None,1631.0994148909995,None,h,1,1.234483113999886,1632.633022091999,None,1632.633022091999,None,1632.633022091999,None,1633.9180310839984,None,1633.9180310839984,None,1633.9180310839984,None,1633.9180310839984,None,,,,,,,,,,,,,,,,,,,,,,,,,,,,,,,,,,,,,,,,,,,,001,170,2020_Feb_25_1449,spring_faces,3.1.5,60.047560791504594,
condition files/Stage0c_1.xlsx,0c,phi,beta,g,"['h', 'g']","['Chess', 'Go']","[-0.15, 0.5]","[0.15, 0.5]",1,1,0,16,16,16,0,2,2,3,,,,,,,,,,,,,,,,,,,,,,,,,,,,,,,,,,,,,,,,,,,,,,,,,,,,,,,,,,,,,,,1635.8994613430004,None,1635.8994613430004,None,1635.8994613430004,None,g,1,1.3784981289973075,1637.4329950089996,None,1637.4329950089996,None,1637.4329950089996,None,1638.8663483549972,None,1638.8663483549972,None,1638.8663483549972,None,1638.8663483549972,None,,,,,,,,,,,,,,,,,,,,,,,,,,,,,,,,,,,,,,,,,,,,001,170,2020_Feb_25_1449,spring_faces,3.1.5,60.047560791504594,
condition files/Stage0c_1.xlsx,0c,beta,theta,g,"['h', 'g']","['Chess', 'Go']","[-0.15, 0.5]","[0.15, 0.5]",1,1,0,16,16,16,0,3,3,2,,,,,,,,,,,,,,,,,,,,,,,,,,,,,,,,,,,,,,,,,,,,,,,,,,,,,,,,,,,,,,,1640.8327703489995,None,1640.8327703489995,None,1640.8327703489995,None,g,1,1.773681946000579,1642.3658525719984,None,1642.3658525719984,None,1642.3658525719984,None,1644.1993186189975,None,1644.1993186189975,None,1644.1993186189975,None,1644.1993186189975,None,,,,,,,,,,,,,,,,,,,,,,,,,,,,,,,,,,,,,,,,,,,,001,170,2020_Feb_25_1449,spring_faces,3.1.5,60.047560791504594,
condition files/Stage0c_2.xlsx,0c,beta,phi,g,"['h', 'g']","['Chess', 'Go']","[-0.15, 0.5]","[0.15, 0.5]",1,1,0,17,17,17,0,0,0,3,,,,,,,,,,,,,,,,,,,,,,,,,,,,,,,,,,,,,,,,,,,,,,,,,,,,,,,,,,,,,,,1646.1826823359988,None,1646.1826823359988,None,1646.1826823359988,None,g,1,1.030979245002527,1647.716559444998,None,1647.716559444998,None,1647.716559444998,None,1648.7842540339989,None,1648.7842540339989,None,1648.7842540339989,None,1648.7842540339989,None,,,,,,,,,,,,,,,,,,,,,,,,,,,,,,,,,,,,,,,,,,,,001,170,2020_Feb_25_1449,spring_faces,3.1.5,60.047560791504594,
condition files/Stage0c_2.xlsx,0c,alpha,theta,h,"['h', 'g']","['Chess', 'Go']","[-0.15, 0.5]","[0.15, 0.5]",1,1,0,17,17,17,0,1,1,0,,,,,,,,,,,,,,,,,,,,,,,,,,,,,,,,,,,,,,,,,,,,,,,,,,,,,,,,,,,,,,,1650.7659365269974,None,1650.7659365269974,None,1650.7659365269974,None,h,1,0.9758488439983921,1652.299770360998,None,1652.299770360998,None,1652.299770360998,None,1653.3329969119986,None,1653.3329969119986,None,1653.3329969119986,None,1653.3329969119986,None,,,,,,,,,,,,,,,,,,,,,,,,,,,,,,,,,,,,,,,,,,,,001,170,2020_Feb_25_1449,spring_faces,3.1.5,60.047560791504594,
condition files/Stage0c_2.xlsx,0c,phi,alpha,h,"['h', 'g']","['Chess', 'Go']","[-0.15, 0.5]","[0.15, 0.5]",1,1,0,17,17,17,0,2,2,1,,,,,,,,,,,,,,,,,,,,,,,,,,,,,,,,,,,,,,,,,,,,,,,,,,,,,,,,,,,,,,,1655.298878581998,None,1655.298878581998,None,1655.298878581998,None,h,1,0.7786860640007944,1656.8328024679977,None,1656.8328024679977,None,1656.8328024679977,None,1657.6657887179972,None,1657.6657887179972,None,1657.6657887179972,None,1657.6657887179972,None,,,,,,,,,,,,,,,,,,,,,,,,,,,,,,,,,,,,,,,,,,,,001,170,2020_Feb_25_1449,spring_faces,3.1.5,60.047560791504594,
condition files/Stage0c_2.xlsx,0c,theta,beta,g,"['h', 'g']","['Chess', 'Go']","[-0.15, 0.5]","[0.15, 0.5]",1,1,0,17,17,17,0,3,3,2,,,,,,,,,,,,,,,,,,,,,,,,,,,,,,,,,,,,,,,,,,,,,,,,,,,,,,,,,,,,,,,1659.6328541820003,None,1659.6328541820003,None,1659.6328541820003,None,g,1,0.7648574529994221,1661.1666732039994,None,1661.1666732039994,None,1661.1666732039994,None,1661.983087485998,None,1661.983087485998,None,1661.983087485998,None,1661.983087485998,None,,,,,,,,,,,,,,,,,,,,,,,,,,,,,,,,,,,,,,,,,,,,001,170,2020_Feb_25_1449,spring_faces,3.1.5,60.047560791504594,
,,,,,,,,,,,,,,,,,,,,,,,,,,,,,,,,,,,,,,,,,,,,,,,,,,,,,,,,,,,,,,,,,,,,,,,,,,,,,,,,,,,,,,,,,,,,,,,,,,,,,,,,1663.9663027360002,None,space,0.773422397000104,1668.9661447420003,None,,,,,,,,,,,,,,,,,,,,,,,,,,,,,,,,,,,,,,001,170,2020_Feb_25_1449,spring_faces,3.1.5,60.047560791504594,
condition files/Stage1_1.xlsx,,B1,T2,c,"['c', 'm']","['Clue', 'Monopoly']","[-0.15, 0.5]","[0.15, 0.5]",1,1,,,,,,,,,0,0,0,0,0,0,0,1,,,,,,,,,,,,,,,,,,,,,,,,,,,,,,,,,,,,,,,,,,,,,,,,,,,,,,,1669.7994612349976,None,1669.7994612349976,None,1669.7994612349976,None,c,1,3.222948902999633,1671.3325818259982,None,1671.3325818259982,None,1671.3325818259982,None,1674.6333071789995,None,1674.6333071789995,None,1674.6333071789995,None,1674.6333071789995,None,,,,,,,1668.9661447420003,None,,,,,,,,,,,,,,,,,,,,,,,,,,,,,,,,,,,,001,170,2020_Feb_25_1449,spring_faces,3.1.5,60.047560791504594,
condition files/Stage1_1.xlsx,,T2,B2,m,"['c', 'm']","['Clue', 'Monopoly']","[-0.15, 0.5]","[0.15, 0.5]",1,1,,,,,,,,,0,0,0,0,0,1,1,3,,,,,,,,,,,,,,,,,,,,,,,,,,,,,,,,,,,,,,,,,,,,,,,,,,,,,,,1676.582099924999,None,1676.582099924999,None,1676.582099924999,None,c,0,1.109118218999356,1678.1184137889977,None,1678.1184137889977,None,1678.1184137889977,None,1679.2996401739983,None,1679.2996401739983,None,1679.2996401739983,None,1679.2996401739983,None,,,,,,,,,,,,,,,,,,,,,,,,,,,,,,,,,,,,,,,,,,,,001,170,2020_Feb_25_1449,spring_faces,3.1.5,60.047560791504594,
condition files/Stage1_1.xlsx,,T1,B1,c,"['c', 'm']","['Clue', 'Monopoly']","[-0.15, 0.5]","[0.15, 0.5]",1,1,,,,,,,,,0,0,0,0,0,2,2,0,,,,,,,,,,,,,,,,,,,,,,,,,,,,,,,,,,,,,,,,,,,,,,,,,,,,,,,1681.2493902629976,None,1681.2493902629976,None,1681.2493902629976,None,c,1,2.7641942810005276,1682.7993207629988,None,1682.7993207629988,None,1682.7993207629988,None,1685.6165790899977,None,1685.6165790899977,None,1685.6165790899977,None,1685.6165790899977,None,,,,,,,,,,,,,,,,,,,,,,,,,,,,,,,,,,,,,,,,,,,,001,170,2020_Feb_25_1449,spring_faces,3.1.5,60.047560791504594,
condition files/Stage1_1.xlsx,,T3,B4,c,"['c', 'm']","['Clue', 'Monopoly']","[-0.15, 0.5]","[0.15, 0.5]",1,1,,,,,,,,,0,0,0,0,0,3,3,5,,,,,,,,,,,,,,,,,,,,,,,,,,,,,,,,,,,,,,,,,,,,,,,,,,,,,,,1687.582854209999,None,1687.582854209999,None,1687.582854209999,None,m,0,1.9971158180014754,1689.1184072789983,None,1689.1184072789983,None,1689.1184072789983,None,1691.1667584120005,None,1691.1667584120005,None,1691.1667584120005,None,1691.1667584120005,None,,,,,,,,,,,,,,,,,,,,,,,,,,,,,,,,,,,,,,,,,,,,001,170,2020_Feb_25_1449,spring_faces,3.1.5,60.047560791504594,
condition files/Stage1_1.xlsx,,B2,T1,m,"['c', 'm']","['Clue', 'Monopoly']","[-0.15, 0.5]","[0.15, 0.5]",1,1,,,,,,,,,0,0,0,0,0,4,4,2,,,,,,,,,,,,,,,,,,,,,,,,,,,,,,,,,,,,,,,,,,,,,,,,,,,,,,,1693.1322722999976,None,1693.1322722999976,None,1693.1322722999976,None,m,1,2.2571816529998614,1694.6664299549993,None,1694.6664299549993,None,1694.6664299549993,None,1696.985761459,None,1696.985761459,None,1696.985761459,None,1696.985761459,None,,,,,,,,,,,,,,,,,,,,,,,,,,,,,,,,,,,,,,,,,,,,001,170,2020_Feb_25_1449,spring_faces,3.1.5,60.047560791504594,
condition files/Stage1_1.xlsx,,B3,T3,c,"['c', 'm']","['Clue', 'Monopoly']","[-0.15, 0.5]","[0.15, 0.5]",1,1,,,,,,,,,0,0,0,0,0,5,5,4,,,,,,,,,,,,,,,,,,,,,,,,,,,,,,,,,,,,,,,,,,,,,,,,,,,,,,,1698.9501913120002,None,1698.9501913120002,None,1698.9501913120002,None,c,1,1.8317109060008079,1700.4998072069975,None,1700.4998072069975,None,1700.4998072069975,None,1702.3837705509977,None,1702.3837705509977,None,1702.3837705509977,None,1702.3837705509977,None,,,,,,,,,,,,,,,,,,,,,,,,,,,,,,,,,,,,,,,,,,,,001,170,2020_Feb_25_1449,spring_faces,3.1.5,60.047560791504594,
condition files/Stage1_1.xlsx,,T4,B3,m,"['c', 'm']","['Clue', 'Monopoly']","[-0.15, 0.5]","[0.15, 0.5]",1,1,,,,,,,,,0,0,0,0,0,6,6,6,,,,,,,,,,,,,,,,,,,,,,,,,,,,,,,,,,,,,,,,,,,,,,,,,,,,,,,1704.3495835510003,None,1704.3495835510003,None,1704.3495835510003,None,c,0,1.6309592249999696,1705.8845773889989,None,1705.8845773889989,None,1705.8845773889989,None,1707.5687950069987,None,1707.5687950069987,None,1707.5687950069987,None,1707.5687950069987,None,,,,,,,,,,,,,,,,,,,,,,,,,,,,,,,,,,,,,,,,,,,,001,170,2020_Feb_25_1449,spring_faces,3.1.5,60.047560791504594,
condition files/Stage1_1.xlsx,,B4,T4,m,"['c', 'm']","['Clue', 'Monopoly']","[-0.15, 0.5]","[0.15, 0.5]",1,1,,,,,,,,,0,0,0,0,0,7,7,7,,,,,,,,,,,,,,,,,,,,,,,,,,,,,,,,,,,,,,,,,,,,,,,,,,,,,,,1709.5321925979988,None,1709.5321925979988,None,1709.5321925979988,None,m,1,2.0004057549995196,1711.0830684199973,None,1711.0830684199973,None,1711.0830684199973,None,1713.1497590750005,None,1713.1497590750005,None,1713.1497590750005,None,1713.1497590750005,None,,,,,,,,,,,,,,,,,,,,,,,,,,,,,,,,,,,,,,,,,,,,001,170,2020_Feb_25_1449,spring_faces,3.1.5,60.047560791504594,
condition files/Stage1_2.xlsx,,T3,B3,c,"['c', 'm']","['Clue', 'Monopoly']","[-0.15, 0.5]","[0.15, 0.5]",1,1,,,,,,,,,0,1,1,1,0,0,0,4,,,,,,,,,,,,,,,,,,,,,,,,,,,,,,,,,,,,,,,,,,,,,,,,,,,,,,,1715.1333634889997,None,1715.1333634889997,None,1715.1333634889997,None,c,1,2.671041210000112,1716.6685728529992,None,1716.6685728529992,None,1716.6685728529992,None,1719.3988753349986,None,1719.3988753349986,None,1719.3988753349986,None,1719.3988753349986,None,,,,,,,,,,,,,,,,,,,,,,,,,,,,,,,,,,,,,,,,,,,,001,170,2020_Feb_25_1449,spring_faces,3.1.5,60.047560791504594,
condition files/Stage1_2.xlsx,,B1,T1,c,"['c', 'm']","['Clue', 'Monopoly']","[-0.15, 0.5]","[0.15, 0.5]",1,1,,,,,,,,,0,1,1,1,0,1,1,0,,,,,,,,,,,,,,,,,,,,,,,,,,,,,,,,,,,,,,,,,,,,,,,,,,,,,,,1721.366102169999,None,1721.366102169999,None,1721.366102169999,None,c,1,1.1909015720011666,1722.9007163819988,None,1722.9007163819988,None,1722.9007163819988,None,1724.1498020580002,None,1724.1498020580002,None,1724.1498020580002,None,1724.1498020580002,None,,,,,,,,,,,,,,,,,,,,,,,,,,,,,,,,,,,,,,,,,,,,001,170,2020_Feb_25_1449,spring_faces,3.1.5,60.047560791504594,
condition files/Stage1_2.xlsx,,B3,T4,m,"['c', 'm']","['Clue', 'Monopoly']","[-0.15, 0.5]","[0.15, 0.5]",1,1,,,,,,,,,0,1,1,1,0,2,2,6,,,,,,,,,,,,,,,,,,,,,,,,,,,,,,,,,,,,,,,,,,,,,,,,,,,,,,,1726.1161829640005,None,1726.1161829640005,None,1726.1161829640005,None,m,1,1.94554550400062,1727.665969026999,None,1727.665969026999,None,1727.665969026999,None,1729.682928637998,None,1729.682928637998,None,1729.682928637998,None,1729.682928637998,None,,,,,,,,,,,,,,,,,,,,,,,,,,,,,,,,,,,,,,,,,,,,001,170,2020_Feb_25_1449,spring_faces,3.1.5,60.047560791504594,
condition files/Stage1_2.xlsx,,T2,B1,c,"['c', 'm']","['Clue', 'Monopoly']","[-0.15, 0.5]","[0.15, 0.5]",1,1,,,,,,,,,0,1,1,1,0,3,3,1,,,,,,,,,,,,,,,,,,,,,,,,,,,,,,,,,,,,,,,,,,,,,,,,,,,,,,,1731.6328195919996,None,1731.6328195919996,None,1731.6328195919996,None,c,1,1.2771779969989439,1733.1664431709978,None,1733.1664431709978,None,1733.1664431709978,None,1734.501674141,None,1734.501674141,None,1734.501674141,None,1734.501674141,None,,,,,,,,,,,,,,,,,,,,,,,,,,,,,,,,,,,,,,,,,,,,001,170,2020_Feb_25_1449,spring_faces,3.1.5,60.047560791504594,
condition files/Stage1_2.xlsx,,B4,T3,c,"['c', 'm']","['Clue', 'Monopoly']","[-0.15, 0.5]","[0.15, 0.5]",1,1,,,,,,,,,0,1,1,1,0,4,4,5,,,,,,,,,,,,,,,,,,,,,,,,,,,,,,,,,,,,,,,,,,,,,,,,,,,,,,,1736.4662777349986,None,1736.4662777349986,None,1736.4662777349986,None,m,0,0.8755596459996013,1738.0000447639977,None,1738.0000447639977,None,1738.0000447639977,None,1738.932983109,None,1738.932983109,None,1738.932983109,None,1738.932983109,None,,,,,,,,,,,,,,,,,,,,,,,,,,,,,,,,,,,,,,,,,,,,001,170,2020_Feb_25_1449,spring_faces,3.1.5,60.047560791504594,
condition files/Stage1_2.xlsx,,B2,T2,m,"['c', 'm']","['Clue', 'Monopoly']","[-0.15, 0.5]","[0.15, 0.5]",1,1,,,,,,,,,0,1,1,1,0,5,5,3,,,,,,,,,,,,,,,,,,,,,,,,,,,,,,,,,,,,,,,,,,,,,,,,,,,,,,,1740.8994766369979,None,1740.8994766369979,None,1740.8994766369979,None,c,0,1.0825764319997688,1742.4489423819978,None,1742.4489423819978,None,1742.4489423819978,None,1743.5835989730003,None,1743.5835989730003,None,1743.5835989730003,None,1743.5835989730003,None,,,,,,,,,,,,,,,,,,,,,,,,,,,,,,,,,,,,,,,,,,,,001,170,2020_Feb_25_1449,spring_faces,3.1.5,60.047560791504594,
condition files/Stage1_2.xlsx,,T1,B2,m,"['c', 'm']","['Clue', 'Monopoly']","[-0.15, 0.5]","[0.15, 0.5]",1,1,,,,,,,,,0,1,1,1,0,6,6,2,,,,,,,,,,,,,,,,,,,,,,,,,,,,,,,,,,,,,,,,,,,,,,,,,,,,,,,1745.5495332909995,None,1745.5495332909995,None,1745.5495332909995,None,m,1,1.0238273160030076,1747.0996500779984,None,1747.0996500779984,None,1747.0996500779984,None,1748.1824637969985,None,1748.1824637969985,None,1748.1824637969985,None,1748.1824637969985,None,,,,,,,,,,,,,,,,,,,,,,,,,,,,,,,,,,,,,,,,,,,,001,170,2020_Feb_25_1449,spring_faces,3.1.5,60.047560791504594,
condition files/Stage1_2.xlsx,,T4,B4,m,"['c', 'm']","['Clue', 'Monopoly']","[-0.15, 0.5]","[0.15, 0.5]",1,1,,,,,,,,,0,1,1,1,0,7,7,7,,,,,,,,,,,,,,,,,,,,,,,,,,,,,,,,,,,,,,,,,,,,,,,,,,,,,,,1750.1497307329992,None,1750.1497307329992,None,1750.1497307329992,None,m,1,1.703991798000061,1751.683576432999,None,1751.683576432999,None,1751.683576432999,None,1753.4498604519977,None,1753.4498604519977,None,1753.4498604519977,None,1753.4498604519977,None,,,,,,,,,,,,,,,,,,,,,,,,,,,,,,,,,,,,,,,,,,,,001,170,2020_Feb_25_1449,spring_faces,3.1.5,60.047560791504594,
condition files/Stage1_1.xlsx,,T3,B4,c,"['c', 'm']","['Clue', 'Monopoly']","[-0.15, 0.5]","[0.15, 0.5]",1,1,,,,,,,,,0,2,2,2,0,0,0,5,,,,,,,,,,,,,,,,,,,,,,,,,,,,,,,,,,,,,,,,,,,,,,,,,,,,,,,1755.432711010999,None,1755.432711010999,None,1755.432711010999,None,m,0,0.7735920530030853,1756.9660314760004,None,1756.9660314760004,None,1756.9660314760004,None,1757.8008630999975,None,1757.8008630999975,None,1757.8008630999975,None,1757.8008630999975,None,,,,,,,,,,,,,,,,,,,,,,,,,,,,,,,,,,,,,,,,,,,,001,170,2020_Feb_25_1449,spring_faces,3.1.5,60.047560791504594,
condition files/Stage1_1.xlsx,,B4,T4,m,"['c', 'm']","['Clue', 'Monopoly']","[-0.15, 0.5]","[0.15, 0.5]",1,1,,,,,,,,,0,2,2,2,0,1,1,7,,,,,,,,,,,,,,,,,,,,,,,,,,,,,,,,,,,,,,,,,,,,,,,,,,,,,,,1759.7665360440005,None,1759.7665360440005,None,1759.7665360440005,None,m,1,2.4568557219972718,1761.2987591739984,None,1761.2987591739984,None,1761.2987591739984,None,1763.8163179309995,None,1763.8163179309995,None,1763.8163179309995,None,1763.8163179309995,None,,,,,,,,,,,,,,,,,,,,,,,,,,,,,,,,,,,,,,,,,,,,001,170,2020_Feb_25_1449,spring_faces,3.1.5,60.047560791504594,
condition files/Stage1_1.xlsx,,B1,T2,c,"['c', 'm']","['Clue', 'Monopoly']","[-0.15, 0.5]","[0.15, 0.5]",1,1,,,,,,,,,0,2,2,2,0,2,2,1,,,,,,,,,,,,,,,,,,,,,,,,,,,,,,,,,,,,,,,,,,,,,,,,,,,,,,,1765.7828371750002,None,1765.7828371750002,None,1765.7828371750002,None,c,1,2.9179817359981826,1767.317560427,None,1767.317560427,None,1767.317560427,None,1770.3010655420003,None,1770.3010655420003,None,1770.3010655420003,None,1770.3010655420003,None,,,,,,,,,,,,,,,,,,,,,,,,,,,,,,,,,,,,,,,,,,,,001,170,2020_Feb_25_1449,spring_faces,3.1.5,60.047560791504594,
condition files/Stage1_1.xlsx,,B3,T3,c,"['c', 'm']","['Clue', 'Monopoly']","[-0.15, 0.5]","[0.15, 0.5]",1,1,,,,,,,,,0,2,2,2,0,3,3,4,,,,,,,,,,,,,,,,,,,,,,,,,,,,,,,,,,,,,,,,,,,,,,,,,,,,,,,1772.266127797,None,1772.266127797,None,1772.266127797,None,m,0,2.5001763670006767,1773.7993565340003,None,1773.7993565340003,None,1773.7993565340003,None,1776.349703552998,None,1776.349703552998,None,1776.349703552998,None,1776.349703552998,None,,,,,,,,,,,,,,,,,,,,,,,,,,,,,,,,,,,,,,,,,,,,001,170,2020_Feb_25_1449,spring_faces,3.1.5,60.047560791504594,
condition files/Stage1_1.xlsx,,T1,B1,c,"['c', 'm']","['Clue', 'Monopoly']","[-0.15, 0.5]","[0.15, 0.5]",1,1,,,,,,,,,0,2,2,2,0,4,4,0,,,,,,,,,,,,,,,,,,,,,,,,,,,,,,,,,,,,,,,,,,,,,,,,,,,,,,,1778.3161477389986,None,1778.3161477389986,None,1778.3161477389986,None,c,1,1.3308651740007917,1779.848794065998,None,1779.848794065998,None,1779.848794065998,None,1781.2327587209984,None,1781.2327587209984,None,1781.2327587209984,None,1781.2327587209984,None,,,,,,,,,,,,,,,,,,,,,,,,,,,,,,,,,,,,,,,,,,,,001,170,2020_Feb_25_1449,spring_faces,3.1.5,60.047560791504594,
condition files/Stage1_1.xlsx,,T4,B3,m,"['c', 'm']","['Clue', 'Monopoly']","[-0.15, 0.5]","[0.15, 0.5]",1,1,,,,,,,,,0,2,2,2,0,5,5,6,,,,,,,,,,,,,,,,,,,,,,,,,,,,,,,,,,,,,,,,,,,,,,,,,,,,,,,1783.1994615889998,None,1783.1994615889998,None,1783.1994615889998,None,c,0,2.142203547999088,1784.7493883809984,None,1784.7493883809984,None,1784.7493883809984,None,1786.9666290489986,None,1786.9666290489986,None,1786.9666290489986,None,1786.9666290489986,None,,,,,,,,,,,,,,,,,,,,,,,,,,,,,,,,,,,,,,,,,,,,001,170,2020_Feb_25_1449,spring_faces,3.1.5,60.047560791504594,
condition files/Stage1_1.xlsx,,B2,T1,m,"['c', 'm']","['Clue', 'Monopoly']","[-0.15, 0.5]","[0.15, 0.5]",1,1,,,,,,,,,0,2,2,2,0,6,6,2,,,,,,,,,,,,,,,,,,,,,,,,,,,,,,,,,,,,,,,,,,,,,,,,,,,,,,,1788.9161753000008,None,1788.9161753000008,None,1788.9161753000008,None,c,0,1.2423174770010519,1790.449294815,None,1790.449294815,None,1790.449294815,None,1791.748850699998,None,1791.748850699998,None,1791.748850699998,None,1791.748850699998,None,,,,,,,,,,,,,,,,,,,,,,,,,,,,,,,,,,,,,,,,,,,,001,170,2020_Feb_25_1449,spring_faces,3.1.5,60.047560791504594,
condition files/Stage1_1.xlsx,,T2,B2,m,"['c', 'm']","['Clue', 'Monopoly']","[-0.15, 0.5]","[0.15, 0.5]",1,1,,,,,,,,,0,2,2,2,0,7,7,3,,,,,,,,,,,,,,,,,,,,,,,,,,,,,,,,,,,,,,,,,,,,,,,,,,,,,,,1793.716198066999,None,1793.716198066999,None,1793.716198066999,None,m,1,1.337337729997671,1795.2502080599988,None,1795.2502080599988,None,1795.2502080599988,None,1796.6495647589982,None,1796.6495647589982,None,1796.6495647589982,None,1796.6495647589982,None,,,,,,,,,,,,,,,,,,,,,,,,,,,,,,,,,,,,,,,,,,,,001,170,2020_Feb_25_1449,spring_faces,3.1.5,60.047560791504594,
condition files/Stage1_2.xlsx,,B1,T1,c,"['c', 'm']","['Clue', 'Monopoly']","[-0.15, 0.5]","[0.15, 0.5]",1,1,,,,,,,,,0,3,3,3,0,0,0,0,,,,,,,,,,,,,,,,,,,,,,,,,,,,,,,,,,,,,,,,,,,,,,,,,,,,,,,1798.6332626639996,None,1798.6332626639996,None,1798.6332626639996,None,c,1,0.7571436729995185,1800.1664730869998,None,1800.1664730869998,None,1800.1664730869998,None,1800.9995750919988,None,1800.9995750919988,None,1800.9995750919988,None,1800.9995750919988,None,,,,,,,,,,,,,,,,,,,,,,,,,,,,,,,,,,,,,,,,,,,,001,170,2020_Feb_25_1449,spring_faces,3.1.5,60.047560791504594,
condition files/Stage1_2.xlsx,,B3,T4,m,"['c', 'm']","['Clue', 'Monopoly']","[-0.15, 0.5]","[0.15, 0.5]",1,1,,,,,,,,,0,3,3,3,0,1,1,6,,,,,,,,,,,,,,,,,,,,,,,,,,,,,,,,,,,,,,,,,,,,,,,,,,,,,,,1802.949292516998,None,1802.949292516998,None,1802.949292516998,None,m,1,1.9925810380009352,1804.4990153609979,None,1804.4990153609979,None,1804.4990153609979,None,1806.552338436999,None,1806.552338436999,None,1806.552338436999,None,1806.552338436999,None,,,,,,,,,,,,,,,,,,,,,,,,,,,,,,,,,,,,,,,,,,,,001,170,2020_Feb_25_1449,spring_faces,3.1.5,60.047560791504594,
condition files/Stage1_2.xlsx,,T2,B1,c,"['c', 'm']","['Clue', 'Monopoly']","[-0.15, 0.5]","[0.15, 0.5]",1,1,,,,,,,,,0,3,3,3,0,2,2,1,,,,,,,,,,,,,,,,,,,,,,,,,,,,,,,,,,,,,,,,,,,,,,,,,,,,,,,1808.5162200739978,None,1808.5162200739978,None,1808.5162200739978,None,c,1,1.7208471129997633,1810.0507032949972,None,1810.0507032949972,None,1810.0507032949972,None,1811.8336236079995,None,1811.8336236079995,None,1811.8336236079995,None,1811.8336236079995,None,,,,,,,,,,,,,,,,,,,,,,,,,,,,,,,,,,,,,,,,,,,,001,170,2020_Feb_25_1449,spring_faces,3.1.5,60.047560791504594,
condition files/Stage1_2.xlsx,,T4,B4,m,"['c', 'm']","['Clue', 'Monopoly']","[-0.15, 0.5]","[0.15, 0.5]",1,1,,,,,,,,,0,3,3,3,0,3,3,7,,,,,,,,,,,,,,,,,,,,,,,,,,,,,,,,,,,,,,,,,,,,,,,,,,,,,,,1813.7995178149977,None,1813.7995178149977,None,1813.7995178149977,None,m,1,1.989417853001214,1815.3501803189974,None,1815.3501803189974,None,1815.3501803189974,None,1817.4014614259977,None,1817.4014614259977,None,1817.4014614259977,None,1817.4014614259977,None,,,,,,,,,,,,,,,,,,,,,,,,,,,,,,,,,,,,,,,,,,,,001,170,2020_Feb_25_1449,spring_faces,3.1.5,60.047560791504594,
condition files/Stage1_2.xlsx,,T3,B3,c,"['c', 'm']","['Clue', 'Monopoly']","[-0.15, 0.5]","[0.15, 0.5]",1,1,,,,,,,,,0,3,3,3,0,4,4,4,,,,,,,,,,,,,,,,,,,,,,,,,,,,,,,,,,,,,,,,,,,,,,,,,,,,,,,1819.3661680919977,None,1819.3661680919977,None,1819.3661680919977,None,m,0,2.1358603890002996,1820.8996468769983,None,1820.8996468769983,None,1820.8996468769983,None,1823.1162050839994,None,1823.1162050839994,None,1823.1162050839994,None,1823.1162050839994,None,,,,,,,,,,,,,,,,,,,,,,,,,,,,,,,,,,,,,,,,,,,,001,170,2020_Feb_25_1449,spring_faces,3.1.5,60.047560791504594,
condition files/Stage1_2.xlsx,,T1,B2,m,"['c', 'm']","['Clue', 'Monopoly']","[-0.15, 0.5]","[0.15, 0.5]",1,1,,,,,,,,,0,3,3,3,0,5,5,2,,,,,,,,,,,,,,,,,,,,,,,,,,,,,,,,,,,,,,,,,,,,,,,,,,,,,,,1825.0661037690006,None,1825.0661037690006,None,1825.0661037690006,None,m,1,1.9400075030025619,1826.5996140440002,None,1826.5996140440002,None,1826.5996140440002,None,1828.6023143579987,None,1828.6023143579987,None,1828.6023143579987,None,1828.6023143579987,None,,,,,,,,,,,,,,,,,,,,,,,,,,,,,,,,,,,,,,,,,,,,001,170,2020_Feb_25_1449,spring_faces,3.1.5,60.047560791504594,
condition files/Stage1_2.xlsx,,B2,T2,m,"['c', 'm']","['Clue', 'Monopoly']","[-0.15, 0.5]","[0.15, 0.5]",1,1,,,,,,,,,0,3,3,3,0,6,6,3,,,,,,,,,,,,,,,,,,,,,,,,,,,,,,,,,,,,,,,,,,,,,,,,,,,,,,,1830.566437098998,None,1830.566437098998,None,1830.566437098998,None,m,1,1.6073296380018292,1832.1002908169976,None,1832.1002908169976,None,1832.1002908169976,None,1833.7664077669979,None,1833.7664077669979,None,1833.7664077669979,None,1833.7664077669979,None,,,,,,,,,,,,,,,,,,,,,,,,,,,,,,,,,,,,,,,,,,,,001,170,2020_Feb_25_1449,spring_faces,3.1.5,60.047560791504594,
condition files/Stage1_2.xlsx,,B4,T3,c,"['c', 'm']","['Clue', 'Monopoly']","[-0.15, 0.5]","[0.15, 0.5]",1,1,,,,,,,,,0,3,3,3,0,7,7,5,,,,,,,,,,,,,,,,,,,,,,,,,,,,,,,,,,,,,,,,,,,,,,,,,,,,,,,1835.7328749339977,None,1835.7328749339977,None,1835.7328749339977,None,m,0,1.1461970420023135,1837.2653092349974,None,1837.2653092349974,None,1837.2653092349974,None,1838.4659464590004,None,1838.4659464590004,None,1838.4659464590004,None,1838.4659464590004,None,,,,,,,,,,,,,,,,,,,,,,,,,,,,,,,,,,,,,,,,,,,,001,170,2020_Feb_25_1449,spring_faces,3.1.5,60.047560791504594,
condition files/Stage1_1.xlsx,,T2,B2,m,"['c', 'm']","['Clue', 'Monopoly']","[-0.15, 0.5]","[0.15, 0.5]",1,1,,,,,,,,,0,4,4,4,0,0,0,3,,,,,,,,,,,,,,,,,,,,,,,,,,,,,,,,,,,,,,,,,,,,,,,,,,,,,,,1840.4496645010004,None,1840.4496645010004,None,1840.4496645010004,None,m,1,2.2999116600003617,1841.9836087209987,None,1841.9836087209987,None,1841.9836087209987,None,1844.366426102999,None,1844.366426102999,None,1844.366426102999,None,1844.366426102999,None,,,,,,,,,,,,,,,,,,,,,,,,,,,,,,,,,,,,,,,,,,,,001,170,2020_Feb_25_1449,spring_faces,3.1.5,60.047560791504594,
condition files/Stage1_1.xlsx,,B1,T2,c,"['c', 'm']","['Clue', 'Monopoly']","[-0.15, 0.5]","[0.15, 0.5]",1,1,,,,,,,,,0,4,4,4,0,1,1,1,,,,,,,,,,,,,,,,,,,,,,,,,,,,,,,,,,,,,,,,,,,,,,,,,,,,,,,1846.3159751929998,None,1846.3159751929998,None,1846.3159751929998,None,c,1,1.105015070999798,1847.8664921399977,None,1847.8664921399977,None,1847.8664921399977,None,1849.0355327729994,None,1849.0355327729994,None,1849.0355327729994,None,1849.0355327729994,None,,,,,,,,,,,,,,,,,,,,,,,,,,,,,,,,,,,,,,,,,,,,001,170,2020_Feb_25_1449,spring_faces,3.1.5,60.047560791504594,
condition files/Stage1_1.xlsx,,B3,T3,c,"['c', 'm']","['Clue', 'Monopoly']","[-0.15, 0.5]","[0.15, 0.5]",1,1,,,,,,,,,0,4,4,4,0,2,2,4,,,,,,,,,,,,,,,,,,,,,,,,,,,,,,,,,,,,,,,,,,,,,,,,,,,,,,,1850.9994611779985,None,1850.9994611779985,None,1850.9994611779985,None,c,1,3.972966280998662,1852.5346520029998,None,1852.5346520029998,None,1852.5346520029998,None,1856.566103492998,None,1856.566103492998,None,1856.566103492998,None,1856.566103492998,None,,,,,,,,,,,,,,,,,,,,,,,,,,,,,,,,,,,,,,,,,,,,001,170,2020_Feb_25_1449,spring_faces,3.1.5,60.047560791504594,
condition files/Stage1_1.xlsx,,T4,B3,m,"['c', 'm']","['Clue', 'Monopoly']","[-0.15, 0.5]","[0.15, 0.5]",1,1,,,,,,,,,0,4,4,4,0,3,3,6,,,,,,,,,,,,,,,,,,,,,,,,,,,,,,,,,,,,,,,,,,,,,,,,,,,,,,,1858.5329166039992,None,1858.5329166039992,None,1858.5329166039992,None,m,1,4.183727069997985,1860.0678274579986,None,1860.0678274579986,None,1860.0678274579986,None,1864.3327299029988,None,1864.3327299029988,None,1864.3327299029988,None,1864.3327299029988,None,,,,,,,,,,,,,,,,,,,,,,,,,,,,,,,,,,,,,,,,,,,,001,170,2020_Feb_25_1449,spring_faces,3.1.5,60.047560791504594,
condition files/Stage1_1.xlsx,,B2,T1,m,"['c', 'm']","['Clue', 'Monopoly']","[-0.15, 0.5]","[0.15, 0.5]",1,1,,,,,,,,,0,4,4,4,0,4,4,2,,,,,,,,,,,,,,,,,,,,,,,,,,,,,,,,,,,,,,,,,,,,,,,,,,,,,,,1866.282850964999,None,1866.282850964999,None,1866.282850964999,None,c,0,1.3312306849984452,1867.8322934149983,None,1867.8322934149983,None,1867.8322934149983,None,1869.2160030429986,None,1869.2160030429986,None,1869.2160030429986,None,1869.2160030429986,None,,,,,,,,,,,,,,,,,,,,,,,,,,,,,,,,,,,,,,,,,,,,001,170,2020_Feb_25_1449,spring_faces,3.1.5,60.047560791504594,
condition files/Stage1_1.xlsx,,T1,B1,c,"['c', 'm']","['Clue', 'Monopoly']","[-0.15, 0.5]","[0.15, 0.5]",1,1,,,,,,,,,0,4,4,4,0,5,5,0,,,,,,,,,,,,,,,,,,,,,,,,,,,,,,,,,,,,,,,,,,,,,,,,,,,,,,,1871.1828195609996,None,1871.1828195609996,None,1871.1828195609996,None,c,1,1.6617357529976289,1872.7180111550006,None,1872.7180111550006,None,1872.7180111550006,None,1874.4338800570004,None,1874.4338800570004,None,1874.4338800570004,None,1874.4338800570004,None,,,,,,,,,,,,,,,,,,,,,,,,,,,,,,,,,,,,,,,,,,,,001,170,2020_Feb_25_1449,spring_faces,3.1.5,60.047560791504594,
condition files/Stage1_1.xlsx,,B4,T4,m,"['c', 'm']","['Clue', 'Monopoly']","[-0.15, 0.5]","[0.15, 0.5]",1,1,,,,,,,,,0,4,4,4,0,6,6,7,,,,,,,,,,,,,,,,,,,,,,,,,,,,,,,,,,,,,,,,,,,,,,,,,,,,,,,1876.399624927999,None,1876.399624927999,None,1876.399624927999,None,m,1,2.3346055269976205,1877.932874787999,None,1877.932874787999,None,1877.932874787999,None,1880.3358831749974,None,1880.3358831749974,None,1880.3358831749974,None,1880.3358831749974,None,,,,,,,,,,,,,,,,,,,,,,,,,,,,,,,,,,,,,,,,,,,,001,170,2020_Feb_25_1449,spring_faces,3.1.5,60.047560791504594,
condition files/Stage1_1.xlsx,,T3,B4,c,"['c', 'm']","['Clue', 'Monopoly']","[-0.15, 0.5]","[0.15, 0.5]",1,1,,,,,,,,,0,4,4,4,0,7,7,5,,,,,,,,,,,,,,,,,,,,,,,,,,,,,,,,,,,,,,,,,,,,,,,,,,,,,,,1882.2990547209993,None,1882.2990547209993,None,1882.2990547209993,None,c,1,1.7286929869987944,1883.834850719999,None,1883.834850719999,None,1883.834850719999,None,1885.6160257359988,None,1885.6160257359988,None,1885.6160257359988,None,1885.6160257359988,None,,,,,,,,,,,,,,,,,,,,,,,,,,,,,,,,,,,,,,,,,,,,001,170,2020_Feb_25_1449,spring_faces,3.1.5,60.047560791504594,
condition files/Stage1_2.xlsx,,T1,B2,m,"['c', 'm']","['Clue', 'Monopoly']","[-0.15, 0.5]","[0.15, 0.5]",1,1,,,,,,,,,0,5,5,5,0,0,0,2,,,,,,,,,,,,,,,,,,,,,,,,,,,,,,,,,,,,,,,,,,,,,,,,,,,,,,,1887.5995043679977,None,1887.5995043679977,None,1887.5995043679977,None,m,1,3.5004171520013188,1889.1351211529982,None,1889.1351211529982,None,1889.1351211529982,None,1892.715980787998,None,1892.715980787998,None,1892.715980787998,None,1892.715980787998,None,,,,,,,,,,,,,,,,,,,,,,,,,,,,,,,,,,,,,,,,,,,,001,170,2020_Feb_25_1449,spring_faces,3.1.5,60.047560791504594,
condition files/Stage1_2.xlsx,,B1,T1,c,"['c', 'm']","['Clue', 'Monopoly']","[-0.15, 0.5]","[0.15, 0.5]",1,1,,,,,,,,,0,5,5,5,0,1,1,0,,,,,,,,,,,,,,,,,,,,,,,,,,,,,,,,,,,,,,,,,,,,,,,,,,,,,,,1894.6660897559996,None,1894.6660897559996,None,1894.6660897559996,None,c,1,3.6176394059984887,1896.2018977279986,None,1896.2018977279986,None,1896.2018977279986,None,1899.8826428639986,None,1899.8826428639986,None,1899.8826428639986,None,1899.8826428639986,None,,,,,,,,,,,,,,,,,,,,,,,,,,,,,,,,,,,,,,,,,,,,001,170,2020_Feb_25_1449,spring_faces,3.1.5,60.047560791504594,
condition files/Stage1_2.xlsx,,B3,T4,m,"['c', 'm']","['Clue', 'Monopoly']","[-0.15, 0.5]","[0.15, 0.5]",1,1,,,,,,,,,0,5,5,5,0,2,2,6,,,,,,,,,,,,,,,,,,,,,,,,,,,,,,,,,,,,,,,,,,,,,,,,,,,,,,,1901.8494346330008,None,1901.8494346330008,None,1901.8494346330008,None,m,1,2.756324180001684,1903.3832967309972,None,1903.3832967309972,None,1903.3832967309972,None,1906.2001663189985,None,1906.2001663189985,None,1906.2001663189985,None,1906.2001663189985,None,,,,,,,,,,,,,,,,,,,,,,,,,,,,,,,,,,,,,,,,,,,,001,170,2020_Feb_25_1449,spring_faces,3.1.5,60.047560791504594,
condition files/Stage1_2.xlsx,,T3,B3,c,"['c', 'm']","['Clue', 'Monopoly']","[-0.15, 0.5]","[0.15, 0.5]",1,1,,,,,,,,,0,5,5,5,0,3,3,4,,,,,,,,,,,,,,,,,,,,,,,,,,,,,,,,,,,,,,,,,,,,,,,,,,,,,,,1908.1661459979987,None,1908.1661459979987,None,1908.1661459979987,None,m,0,8.040162082001189,1909.6993534089997,None,1909.6993534089997,None,1909.6993534089997,None,1917.7994606419998,None,1917.7994606419998,None,1917.7994606419998,None,1917.7994606419998,None,,,,,,,,,,,,,,,,,,,,,,,,,,,,,,,,,,,,,,,,,,,,001,170,2020_Feb_25_1449,spring_faces,3.1.5,60.047560791504594,
condition files/Stage1_2.xlsx,,B2,T2,m,"['c', 'm']","['Clue', 'Monopoly']","[-0.15, 0.5]","[0.15, 0.5]",1,1,,,,,,,,,0,5,5,5,0,4,4,3,,,,,,,,,,,,,,,,,,,,,,,,,,,,,,,,,,,,,,,,,,,,,,,,,,,,,,,1919.7660599699993,None,1919.7660599699993,None,1919.7660599699993,None,m,1,1.4636010010035534,1921.2999404379989,None,1921.2999404379989,None,1921.2999404379989,None,1922.8176740710005,None,1922.8176740710005,None,1922.8176740710005,None,1922.8176740710005,None,,,,,,,,,,,,,,,,,,,,,,,,,,,,,,,,,,,,,,,,,,,,001,170,2020_Feb_25_1449,spring_faces,3.1.5,60.047560791504594,
condition files/Stage1_2.xlsx,,T4,B4,m,"['c', 'm']","['Clue', 'Monopoly']","[-0.15, 0.5]","[0.15, 0.5]",1,1,,,,,,,,,0,5,5,5,0,5,5,7,,,,,,,,,,,,,,,,,,,,,,,,,,,,,,,,,,,,,,,,,,,,,,,,,,,,,,,1924.7831962259988,None,1924.7831962259988,None,1924.7831962259988,None,m,1,2.014965251000831,1926.3165777100003,None,1926.3165777100003,None,1926.3165777100003,None,1928.383234765999,None,1928.383234765999,None,1928.383234765999,None,1928.383234765999,None,,,,,,,,,,,,,,,,,,,,,,,,,,,,,,,,,,,,,,,,,,,,001,170,2020_Feb_25_1449,spring_faces,3.1.5,60.047560791504594,
condition files/Stage1_2.xlsx,,B4,T3,c,"['c', 'm']","['Clue', 'Monopoly']","[-0.15, 0.5]","[0.15, 0.5]",1,1,,,,,,,,,0,5,5,5,0,6,6,5,,,,,,,,,,,,,,,,,,,,,,,,,,,,,,,,,,,,,,,,,,,,,,,,,,,,,,,1930.3494897849996,None,1930.3494897849996,None,1930.3494897849996,None,c,1,1.8570380509991082,1931.8825703969997,None,1931.8825703969997,None,1931.8825703969997,None,1933.7996516579988,None,1933.7996516579988,None,1933.7996516579988,None,1933.7996516579988,None,,,,,,,,,,,,,,,,,,,,,,,,,,,,,,,,,,,,,,,,,,,,001,170,2020_Feb_25_1449,spring_faces,3.1.5,60.047560791504594,
condition files/Stage1_2.xlsx,,T2,B1,c,"['c', 'm']","['Clue', 'Monopoly']","[-0.15, 0.5]","[0.15, 0.5]",1,1,,,,,,,,,0,5,5,5,0,7,7,1,,,,,,,,,,,,,,,,,,,,,,,,,,,,,,,,,,,,,,,,,,,,,,,,,,,,,,,1935.766111953999,None,1935.766111953999,None,1935.766111953999,None,c,1,1.7520962199996575,1937.2994451220002,None,1937.2994451220002,None,1937.2994451220002,None,1939.1163300469998,None,1939.1163300469998,None,1939.1163300469998,None,1939.1163300469998,None,,,,,,,,,,,,,,,,,,,,,,,,,,,,,,,,,,,,,,,,,,,,001,170,2020_Feb_25_1449,spring_faces,3.1.5,60.047560791504594,
condition files/Stage1_1.xlsx,,T4,B3,m,"['c', 'm']","['Clue', 'Monopoly']","[-0.15, 0.5]","[0.15, 0.5]",1,1,,,,,,,,,0,6,6,6,0,0,0,6,,,,,,,,,,,,,,,,,,,,,,,,,,,,,,,,,,,,,,,,,,,,,,,,,,,,,,,1941.099352022,None,1941.099352022,None,1941.099352022,None,m,1,1.4575786360001075,1942.6340503229985,None,1942.6340503229985,None,1942.6340503229985,None,1944.1509672279972,None,1944.1509672279972,None,1944.1509672279972,None,1944.1509672279972,None,,,,,,,,,,,,,,,,,,,,,,,,,,,,,,,,,,,,,,,,,,,,001,170,2020_Feb_25_1449,spring_faces,3.1.5,60.047560791504594,
condition files/Stage1_1.xlsx,,T2,B2,m,"['c', 'm']","['Clue', 'Monopoly']","[-0.15, 0.5]","[0.15, 0.5]",1,1,,,,,,,,,0,6,6,6,0,1,1,3,,,,,,,,,,,,,,,,,,,,,,,,,,,,,,,,,,,,,,,,,,,,,,,,,,,,,,,1946.1161031640004,None,1946.1161031640004,None,1946.1161031640004,None,m,1,2.137789085001714,1947.6657460290007,None,1947.6657460290007,None,1947.6657460290007,None,1949.8662081639995,None,1949.8662081639995,None,1949.8662081639995,None,1949.8662081639995,None,,,,,,,,,,,,,,,,,,,,,,,,,,,,,,,,,,,,,,,,,,,,001,170,2020_Feb_25_1449,spring_faces,3.1.5,60.047560791504594,
condition files/Stage1_1.xlsx,,B4,T4,m,"['c', 'm']","['Clue', 'Monopoly']","[-0.15, 0.5]","[0.15, 0.5]",1,1,,,,,,,,,0,6,6,6,0,2,2,7,,,,,,,,,,,,,,,,,,,,,,,,,,,,,,,,,,,,,,,,,,,,,,,,,,,,,,,1951.8327773339988,None,1951.8327773339988,None,1951.8327773339988,None,m,1,2.5810499699982756,1953.3824746829996,None,1953.3824746829996,None,1953.3824746829996,None,1956.0163149029977,None,1956.0163149029977,None,1956.0163149029977,None,1956.0163149029977,None,,,,,,,,,,,,,,,,,,,,,,,,,,,,,,,,,,,,,,,,,,,,001,170,2020_Feb_25_1449,spring_faces,3.1.5,60.047560791504594,
condition files/Stage1_1.xlsx,,T3,B4,c,"['c', 'm']","['Clue', 'Monopoly']","[-0.15, 0.5]","[0.15, 0.5]",1,1,,,,,,,,,0,6,6,6,0,3,3,5,,,,,,,,,,,,,,,,,,,,,,,,,,,,,,,,,,,,,,,,,,,,,,,,,,,,,,,1957.9827638469978,None,1957.9827638469978,None,1957.9827638469978,None,c,1,2.1432237370026996,1959.5163489719998,None,1959.5163489719998,None,1959.5163489719998,None,1961.7183397150002,None,1961.7183397150002,None,1961.7183397150002,None,1961.7183397150002,None,,,,,,,,,,,,,,,,,,,,,,,,,,,,,,,,,,,,,,,,,,,,001,170,2020_Feb_25_1449,spring_faces,3.1.5,60.047560791504594,
condition files/Stage1_1.xlsx,,T1,B1,c,"['c', 'm']","['Clue', 'Monopoly']","[-0.15, 0.5]","[0.15, 0.5]",1,1,,,,,,,,,0,6,6,6,0,4,4,0,,,,,,,,,,,,,,,,,,,,,,,,,,,,,,,,,,,,,,,,,,,,,,,,,,,,,,,1963.682787095,None,1963.682787095,None,1963.682787095,None,c,1,1.673897479999141,1965.2177306399972,None,1965.2177306399972,None,1965.2177306399972,None,1966.9498402009995,None,1966.9498402009995,None,1966.9498402009995,None,1966.9498402009995,None,,,,,,,,,,,,,,,,,,,,,,,,,,,,,,,,,,,,,,,,,,,,001,170,2020_Feb_25_1449,spring_faces,3.1.5,60.047560791504594,
condition files/Stage1_1.xlsx,,B1,T2,c,"['c', 'm']","['Clue', 'Monopoly']","[-0.15, 0.5]","[0.15, 0.5]",1,1,,,,,,,,,0,6,6,6,0,5,5,1,,,,,,,,,,,,,,,,,,,,,,,,,,,,,,,,,,,,,,,,,,,,,,,,,,,,,,,1968.9158425019996,None,1968.9158425019996,None,1968.9158425019996,None,c,1,1.480928335000499,1970.450616561,None,1970.450616561,None,1970.450616561,None,1971.9831759059998,None,1971.9831759059998,None,1971.9831759059998,None,1971.9831759059998,None,,,,,,,,,,,,,,,,,,,,,,,,,,,,,,,,,,,,,,,,,,,,001,170,2020_Feb_25_1449,spring_faces,3.1.5,60.047560791504594,
condition files/Stage1_1.xlsx,,B3,T3,c,"['c', 'm']","['Clue', 'Monopoly']","[-0.15, 0.5]","[0.15, 0.5]",1,1,,,,,,,,,0,6,6,6,0,6,6,4,,,,,,,,,,,,,,,,,,,,,,,,,,,,,,,,,,,,,,,,,,,,,,,,,,,,,,,1973.9488717040003,None,1973.9488717040003,None,1973.9488717040003,None,m,0,3.26489409900023,1975.4826560029978,None,1975.4826560029978,None,1975.4826560029978,None,1978.799955907998,None,1978.799955907998,None,1978.799955907998,None,1978.799955907998,None,,,,,,,,,,,,,,,,,,,,,,,,,,,,,,,,,,,,,,,,,,,,001,170,2020_Feb_25_1449,spring_faces,3.1.5,60.047560791504594,
condition files/Stage1_1.xlsx,,B2,T1,m,"['c', 'm']","['Clue', 'Monopoly']","[-0.15, 0.5]","[0.15, 0.5]",1,1,,,,,,,,,0,6,6,6,0,7,7,2,,,,,,,,,,,,,,,,,,,,,,,,,,,,,,,,,,,,,,,,,,,,,,,,,,,,,,,1980.7658058470006,None,1980.7658058470006,None,1980.7658058470006,None,m,1,3.343859386000986,1982.2997511169997,None,1982.2997511169997,None,1982.2997511169997,None,1985.7160226849992,None,1985.7160226849992,None,1985.7160226849992,None,1985.7160226849992,None,,,,,,,,,,,,,,,,,,,,,,,,,,,,,,,,,,,,,,,,,,,,001,170,2020_Feb_25_1449,spring_faces,3.1.5,60.047560791504594,
condition files/Stage1_2.xlsx,,B4,T3,c,"['c', 'm']","['Clue', 'Monopoly']","[-0.15, 0.5]","[0.15, 0.5]",1,1,,,,,,,,,0,7,7,7,0,0,0,5,,,,,,,,,,,,,,,,,,,,,,,,,,,,,,,,,,,,,,,,,,,,,,,,,,,,,,,1987.6829252099997,None,1987.6829252099997,None,1987.6829252099997,None,c,1,3.578391928000201,1989.2171661889988,None,1989.2171661889988,None,1989.2171661889988,None,1992.8501071200008,None,1992.8501071200008,None,1992.8501071200008,None,1992.8501071200008,None,,,,,,,,,,,,,,,,,,,,,,,,,,,,,,,,,,,,,,,,,,,,001,170,2020_Feb_25_1449,spring_faces,3.1.5,60.047560791504594,
condition files/Stage1_2.xlsx,,B3,T4,m,"['c', 'm']","['Clue', 'Monopoly']","[-0.15, 0.5]","[0.15, 0.5]",1,1,,,,,,,,,0,7,7,7,0,1,1,6,,,,,,,,,,,,,,,,,,,,,,,,,,,,,,,,,,,,,,,,,,,,,,,,,,,,,,,1994.8161202299998,None,1994.8161202299998,None,1994.8161202299998,None,m,1,3.0700447199997143,1996.3494990359977,None,1996.3494990359977,None,1996.3494990359977,None,1999.499102212998,None,1999.499102212998,None,1999.499102212998,None,1999.499102212998,None,,,,,,,,,,,,,,,,,,,,,,,,,,,,,,,,,,,,,,,,,,,,001,170,2020_Feb_25_1449,spring_faces,3.1.5,60.047560791504594,
condition files/Stage1_2.xlsx,,T2,B1,c,"['c', 'm']","['Clue', 'Monopoly']","[-0.15, 0.5]","[0.15, 0.5]",1,1,,,,,,,,,0,7,7,7,0,2,2,1,,,,,,,,,,,,,,,,,,,,,,,,,,,,,,,,,,,,,,,,,,,,,,,,,,,,,,,2001.4494998849987,None,2001.4494998849987,None,2001.4494998849987,None,c,1,1.0127467349993822,2002.9828069869982,None,2002.9828069869982,None,2002.9828069869982,None,2004.0496736669993,None,2004.0496736669993,None,2004.0496736669993,None,2004.0496736669993,None,,,,,,,,,,,,,,,,,,,,,,,,,,,,,,,,,,,,,,,,,,,,001,170,2020_Feb_25_1449,spring_faces,3.1.5,60.047560791504594,
condition files/Stage1_2.xlsx,,T3,B3,c,"['c', 'm']","['Clue', 'Monopoly']","[-0.15, 0.5]","[0.15, 0.5]",1,1,,,,,,,,,0,7,7,7,0,3,3,4,,,,,,,,,,,,,,,,,,,,,,,,,,,,,,,,,,,,,,,,,,,,,,,,,,,,,,,2006.0163691989983,None,2006.0163691989983,None,2006.0163691989983,None,c,1,1.0701322429995344,2007.5494177910005,None,2007.5494177910005,None,2007.5494177910005,None,2008.6830463989972,None,2008.6830463989972,None,2008.6830463989972,None,2008.6830463989972,None,,,,,,,,,,,,,,,,,,,,,,,,,,,,,,,,,,,,,,,,,,,,001,170,2020_Feb_25_1449,spring_faces,3.1.5,60.047560791504594,
condition files/Stage1_2.xlsx,,B1,T1,c,"['c', 'm']","['Clue', 'Monopoly']","[-0.15, 0.5]","[0.15, 0.5]",1,1,,,,,,,,,0,7,7,7,0,4,4,0,,,,,,,,,,,,,,,,,,,,,,,,,,,,,,,,,,,,,,,,,,,,,,,,,,,,,,,2010.6498616069985,None,2010.6498616069985,None,2010.6498616069985,None,c,1,0.9789989970013266,2012.1845481849996,None,2012.1845481849996,None,2012.1845481849996,None,2013.2157490179998,None,2013.2157490179998,None,2013.2157490179998,None,2013.2157490179998,None,,,,,,,,,,,,,,,,,,,,,,,,,,,,,,,,,,,,,,,,,,,,001,170,2020_Feb_25_1449,spring_faces,3.1.5,60.047560791504594,
condition files/Stage1_2.xlsx,,T4,B4,m,"['c', 'm']","['Clue', 'Monopoly']","[-0.15, 0.5]","[0.15, 0.5]",1,1,,,,,,,,,0,7,7,7,0,5,5,7,,,,,,,,,,,,,,,,,,,,,,,,,,,,,,,,,,,,,,,,,,,,,,,,,,,,,,,2015.1828509249972,None,2015.1828509249972,None,2015.1828509249972,None,m,1,5.26379231899773,2016.7158829299988,None,2016.7158829299988,None,2016.7158829299988,None,2022.0499468989983,None,2022.0499468989983,None,2022.0499468989983,None,2022.0499468989983,None,,,,,,,,,,,,,,,,,,,,,,,,,,,,,,,,,,,,,,,,,,,,001,170,2020_Feb_25_1449,spring_faces,3.1.5,60.047560791504594,
condition files/Stage1_2.xlsx,,B2,T2,m,"['c', 'm']","['Clue', 'Monopoly']","[-0.15, 0.5]","[0.15, 0.5]",1,1,,,,,,,,,0,7,7,7,0,6,6,3,,,,,,,,,,,,,,,,,,,,,,,,,,,,,,,,,,,,,,,,,,,,,,,,,,,,,,,2023.9995359979985,None,2023.9995359979985,None,2023.9995359979985,None,m,1,3.166501032999804,2025.5330291280006,None,2025.5330291280006,None,2025.5330291280006,None,2028.7490375079979,None,2028.7490375079979,None,2028.7490375079979,None,2028.7490375079979,None,,,,,,,,,,,,,,,,,,,,,,,,,,,,,,,,,,,,,,,,,,,,001,170,2020_Feb_25_1449,spring_faces,3.1.5,60.047560791504594,
condition files/Stage1_2.xlsx,,T1,B2,m,"['c', 'm']","['Clue', 'Monopoly']","[-0.15, 0.5]","[0.15, 0.5]",1,1,,,,,,,,,0,7,7,7,0,7,7,2,,,,,,,,,,,,,,,,,,,,,,,,,,,,,,,,,,,,,,,,,,,,,,,,,,,,,,,2030.7162071879975,None,2030.7162071879975,None,2030.7162071879975,None,c,0,1.1386240450010519,2032.2489240199975,None,2032.2489240199975,None,2032.2489240199975,None,2033.4495624329975,None,2033.4495624329975,None,2033.4495624329975,None,2033.4495624329975,None,,,,,,,,,,,,,,,,,,,,,,,,,,,,,,,,,,,,,,,,,,,,001,170,2020_Feb_25_1449,spring_faces,3.1.5,60.047560791504594,
condition files/Stage1_1.xlsx,,T4,B3,m,"['c', 'm']","['Clue', 'Monopoly']","[-0.15, 0.5]","[0.15, 0.5]",1,1,,,,,,,,,0,8,8,8,0,0,0,6,,,,,,,,,,,,,,,,,,,,,,,,,,,,,,,,,,,,,,,,,,,,,,,,,,,,,,,2035.4332085149981,None,2035.4332085149981,None,2035.4332085149981,None,m,1,2.7729824369998823,2036.9666340330004,None,2036.9666340330004,None,2036.9666340330004,None,2039.799284523,None,2039.799284523,None,2039.799284523,None,2039.799284523,None,,,,,,,,,,,,,,,,,,,,,,,,,,,,,,,,,,,,,,,,,,,,001,170,2020_Feb_25_1449,spring_faces,3.1.5,60.047560791504594,
condition files/Stage1_1.xlsx,,T3,B4,c,"['c', 'm']","['Clue', 'Monopoly']","[-0.15, 0.5]","[0.15, 0.5]",1,1,,,,,,,,,0,8,8,8,0,1,1,5,,,,,,,,,,,,,,,,,,,,,,,,,,,,,,,,,,,,,,,,,,,,,,,,,,,,,,,2041.7661168349987,None,2041.7661168349987,None,2041.7661168349987,None,c,1,1.8005420549998234,2043.2989894909988,None,2043.2989894909988,None,2043.2989894909988,None,2045.1497183440006,None,2045.1497183440006,None,2045.1497183440006,None,2045.1497183440006,None,,,,,,,,,,,,,,,,,,,,,,,,,,,,,,,,,,,,,,,,,,,,001,170,2020_Feb_25_1449,spring_faces,3.1.5,60.047560791504594,
condition files/Stage1_1.xlsx,,B3,T3,c,"['c', 'm']","['Clue', 'Monopoly']","[-0.15, 0.5]","[0.15, 0.5]",1,1,,,,,,,,,0,8,8,8,0,2,2,4,,,,,,,,,,,,,,,,,,,,,,,,,,,,,,,,,,,,,,,,,,,,,,,,,,,,,,,2047.1162130659977,None,2047.1162130659977,None,2047.1162130659977,None,c,1,3.8739314089980326,2048.649681191,None,2048.649681191,None,2048.649681191,None,2052.5828770080007,None,2052.5828770080007,None,2052.5828770080007,None,2052.5828770080007,None,,,,,,,,,,,,,,,,,,,,,,,,,,,,,,,,,,,,,,,,,,,,001,170,2020_Feb_25_1449,spring_faces,3.1.5,60.047560791504594,
condition files/Stage1_1.xlsx,,T1,B1,c,"['c', 'm']","['Clue', 'Monopoly']","[-0.15, 0.5]","[0.15, 0.5]",1,1,,,,,,,,,0,8,8,8,0,3,3,0,,,,,,,,,,,,,,,,,,,,,,,,,,,,,,,,,,,,,,,,,,,,,,,,,,,,,,,2054.5494862800006,None,2054.5494862800006,None,2054.5494862800006,None,c,1,2.9356874449986208,2056.099829904,None,2056.099829904,None,2056.099829904,None,2059.0997558419986,None,2059.0997558419986,None,2059.0997558419986,None,2059.0997558419986,None,,,,,,,,,,,,,,,,,,,,,,,,,,,,,,,,,,,,,,,,,,,,001,170,2020_Feb_25_1449,spring_faces,3.1.5,60.047560791504594,
condition files/Stage1_1.xlsx,,B2,T1,m,"['c', 'm']","['Clue', 'Monopoly']","[-0.15, 0.5]","[0.15, 0.5]",1,1,,,,,,,,,0,8,8,8,0,4,4,2,,,,,,,,,,,,,,,,,,,,,,,,,,,,,,,,,,,,,,,,,,,,,,,,,,,,,,,2061.066397276998,None,2061.066397276998,None,2061.066397276998,None,m,1,1.6516435259982245,2062.599907271,None,2062.599907271,None,2062.599907271,None,2064.3168849059984,None,2064.3168849059984,None,2064.3168849059984,None,2064.3168849059984,None,,,,,,,,,,,,,,,,,,,,,,,,,,,,,,,,,,,,,,,,,,,,001,170,2020_Feb_25_1449,spring_faces,3.1.5,60.047560791504594,
condition files/Stage1_1.xlsx,,B4,T4,m,"['c', 'm']","['Clue', 'Monopoly']","[-0.15, 0.5]","[0.15, 0.5]",1,1,,,,,,,,,0,8,8,8,0,5,5,7,,,,,,,,,,,,,,,,,,,,,,,,,,,,,,,,,,,,,,,,,,,,,,,,,,,,,,,2066.2822018039988,None,2066.2822018039988,None,2066.2822018039988,None,m,1,1.523083209998731,2067.8324495419984,None,2067.8324495419984,None,2067.8324495419984,None,2069.4164202779975,None,2069.4164202779975,None,2069.4164202779975,None,2069.4164202779975,None,,,,,,,,,,,,,,,,,,,,,,,,,,,,,,,,,,,,,,,,,,,,001,170,2020_Feb_25_1449,spring_faces,3.1.5,60.047560791504594,
condition files/Stage1_1.xlsx,,T2,B2,m,"['c', 'm']","['Clue', 'Monopoly']","[-0.15, 0.5]","[0.15, 0.5]",1,1,,,,,,,,,0,8,8,8,0,6,6,3,,,,,,,,,,,,,,,,,,,,,,,,,,,,,,,,,,,,,,,,,,,,,,,,,,,,,,,2071.3828189889973,None,2071.3828189889973,None,2071.3828189889973,None,m,1,5.941520193002361,2072.918072577999,None,2072.918072577999,None,2072.918072577999,None,2078.915965778,None,2078.915965778,None,2078.915965778,None,2078.915965778,None,,,,,,,,,,,,,,,,,,,,,,,,,,,,,,,,,,,,,,,,,,,,001,170,2020_Feb_25_1449,spring_faces,3.1.5,60.047560791504594,
condition files/Stage1_1.xlsx,,B1,T2,c,"['c', 'm']","['Clue', 'Monopoly']","[-0.15, 0.5]","[0.15, 0.5]",1,1,,,,,,,,,0,8,8,8,0,7,7,1,,,,,,,,,,,,,,,,,,,,,,,,,,,,,,,,,,,,,,,,,,,,,,,,,,,,,,,2080.883380760999,None,2080.883380760999,None,2080.883380760999,None,c,1,2.249421866003104,2082.418083116998,None,2082.418083116998,None,2082.418083116998,None,2084.7496656410003,None,2084.7496656410003,None,2084.7496656410003,None,2084.7496656410003,None,,,,,,,,,,,,,,,,,,,,,,,,,,,,,,,,,,,,,,,,,,,,001,170,2020_Feb_25_1449,spring_faces,3.1.5,60.047560791504594,
condition files/Stage1_2.xlsx,,B2,T2,m,"['c', 'm']","['Clue', 'Monopoly']","[-0.15, 0.5]","[0.15, 0.5]",1,1,,,,,,,,,0,9,9,9,0,0,0,3,,,,,,,,,,,,,,,,,,,,,,,,,,,,,,,,,,,,,,,,,,,,,,,,,,,,,,,2086.7163873319987,None,2086.7163873319987,None,2086.7163873319987,None,m,1,2.3684022610032116,2088.251161508,None,2088.251161508,None,2088.251161508,None,2090.683138633998,None,2090.683138633998,None,2090.683138633998,None,2090.683138633998,None,,,,,,,,,,,,,,,,,,,,,,,,,,,,,,,,,,,,,,,,,,,,001,170,2020_Feb_25_1449,spring_faces,3.1.5,60.047560791504594,
condition files/Stage1_2.xlsx,,T3,B3,c,"['c', 'm']","['Clue', 'Monopoly']","[-0.15, 0.5]","[0.15, 0.5]",1,1,,,,,,,,,0,9,9,9,0,1,1,4,,,,,,,,,,,,,,,,,,,,,,,,,,,,,,,,,,,,,,,,,,,,,,,,,,,,,,,2092.649638111998,None,2092.649638111998,None,2092.649638111998,None,m,0,4.70839948199864,2094.1832049990007,None,2094.1832049990007,None,2094.1832049990007,None,2098.9496057049982,None,2098.9496057049982,None,2098.9496057049982,None,2098.9496057049982,None,,,,,,,,,,,,,,,,,,,,,,,,,,,,,,,,,,,,,,,,,,,,001,170,2020_Feb_25_1449,spring_faces,3.1.5,60.047560791504594,
condition files/Stage1_2.xlsx,,T4,B4,m,"['c', 'm']","['Clue', 'Monopoly']","[-0.15, 0.5]","[0.15, 0.5]",1,1,,,,,,,,,0,9,9,9,0,2,2,7,,,,,,,,,,,,,,,,,,,,,,,,,,,,,,,,,,,,,,,,,,,,,,,,,,,,,,,2100.9161281099987,None,2100.9161281099987,None,2100.9161281099987,None,m,1,1.801814378999552,2102.465667452998,None,2102.465667452998,None,2102.465667452998,None,2104.349750688998,None,2104.349750688998,None,2104.349750688998,None,2104.349750688998,None,,,,,,,,,,,,,,,,,,,,,,,,,,,,,,,,,,,,,,,,,,,,001,170,2020_Feb_25_1449,spring_faces,3.1.5,60.047560791504594,
condition files/Stage1_2.xlsx,,T1,B2,m,"['c', 'm']","['Clue', 'Monopoly']","[-0.15, 0.5]","[0.15, 0.5]",1,1,,,,,,,,,0,9,9,9,0,3,3,2,,,,,,,,,,,,,,,,,,,,,,,,,,,,,,,,,,,,,,,,,,,,,,,,,,,,,,,2106.299524031998,None,2106.299524031998,None,2106.299524031998,None,m,1,2.097518331000174,2107.850007855999,None,2107.850007855999,None,2107.850007855999,None,2110.000045290999,None,2110.000045290999,None,2110.000045290999,None,2110.000045290999,None,,,,,,,,,,,,,,,,,,,,,,,,,,,,,,,,,,,,,,,,,,,,001,170,2020_Feb_25_1449,spring_faces,3.1.5,60.047560791504594,
condition files/Stage1_2.xlsx,,B4,T3,c,"['c', 'm']","['Clue', 'Monopoly']","[-0.15, 0.5]","[0.15, 0.5]",1,1,,,,,,,,,0,9,9,9,0,4,4,5,,,,,,,,,,,,,,,,,,,,,,,,,,,,,,,,,,,,,,,,,,,,,,,,,,,,,,,2111.96618467,None,2111.96618467,None,2111.96618467,None,c,1,1.5194806330000574,2113.500069384998,None,2113.500069384998,None,2113.500069384998,None,2115.0830784809987,None,2115.0830784809987,None,2115.0830784809987,None,2115.0830784809987,None,,,,,,,,,,,,,,,,,,,,,,,,,,,,,,,,,,,,,,,,,,,,001,170,2020_Feb_25_1449,spring_faces,3.1.5,60.047560791504594,
condition files/Stage1_2.xlsx,,T2,B1,c,"['c', 'm']","['Clue', 'Monopoly']","[-0.15, 0.5]","[0.15, 0.5]",1,1,,,,,,,,,0,9,9,9,0,5,5,1,,,,,,,,,,,,,,,,,,,,,,,,,,,,,,,,,,,,,,,,,,,,,,,,,,,,,,,2117.0494537979976,None,2117.0494537979976,None,2117.0494537979976,None,c,1,1.7004447630024515,2118.5830589489997,None,2118.5830589489997,None,2118.5830589489997,None,2120.34975741,None,2120.34975741,None,2120.34975741,None,2120.34975741,None,,,,,,,,,,,,,,,,,,,,,,,,,,,,,,,,,,,,,,,,,,,,001,170,2020_Feb_25_1449,spring_faces,3.1.5,60.047560791504594,
condition files/Stage1_2.xlsx,,B3,T4,m,"['c', 'm']","['Clue', 'Monopoly']","[-0.15, 0.5]","[0.15, 0.5]",1,1,,,,,,,,,0,9,9,9,0,6,6,6,,,,,,,,,,,,,,,,,,,,,,,,,,,,,,,,,,,,,,,,,,,,,,,,,,,,,,,2122.3159446520003,None,2122.3159446520003,None,2122.3159446520003,None,m,1,2.241728537999734,2123.8498949370005,None,2123.8498949370005,None,2123.8498949370005,None,2126.1502456519993,None,2126.1502456519993,None,2126.1502456519993,None,2126.1502456519993,None,,,,,,,,,,,,,,,,,,,,,,,,,,,,,,,,,,,,,,,,,,,,001,170,2020_Feb_25_1449,spring_faces,3.1.5,60.047560791504594,
condition files/Stage1_2.xlsx,,B1,T1,c,"['c', 'm']","['Clue', 'Monopoly']","[-0.15, 0.5]","[0.15, 0.5]",1,1,,,,,,,,,0,9,9,9,0,7,7,0,,,,,,,,,,,,,,,,,,,,,,,,,,,,,,,,,,,,,,,,,,,,,,,,,,,,,,,2128.1161494989974,None,2128.1161494989974,None,2128.1161494989974,None,c,1,0.9533160840001074,2129.6662120539986,None,2129.6662120539986,None,2129.6662120539986,None,2130.6838315649984,None,2130.6838315649984,None,2130.6838315649984,None,2130.6838315649984,None,,,,,,,,,,,,,,,,,,,,,,,,,,,,,,,,,,,,,,,,,,,,001,170,2020_Feb_25_1449,spring_faces,3.1.5,60.047560791504594,
condition files/Stage1_1.xlsx,,T3,B4,c,"['c', 'm']","['Clue', 'Monopoly']","[-0.15, 0.5]","[0.15, 0.5]",1,1,,,,,,,,,0,10,10,10,0,0,0,5,,,,,,,,,,,,,,,,,,,,,,,,,,,,,,,,,,,,,,,,,,,,,,,,,,,,,,,2132.666275970998,None,2132.666275970998,None,2132.666275970998,None,c,1,1.2523959940008353,2134.1991601849986,None,2134.1991601849986,None,2134.1991601849986,None,2135.5163594509977,None,2135.5163594509977,None,2135.5163594509977,None,2135.5163594509977,None,,,,,,,,,,,,,,,,,,,,,,,,,,,,,,,,,,,,,,,,,,,,001,170,2020_Feb_25_1449,spring_faces,3.1.5,60.047560791504594,
condition files/Stage1_1.xlsx,,T1,B1,c,"['c', 'm']","['Clue', 'Monopoly']","[-0.15, 0.5]","[0.15, 0.5]",1,1,,,,,,,,,0,10,10,10,0,1,1,0,,,,,,,,,,,,,,,,,,,,,,,,,,,,,,,,,,,,,,,,,,,,,,,,,,,,,,,2137.482835194998,None,2137.482835194998,None,2137.482835194998,None,c,1,0.8996675759990467,2139.0158628069985,None,2139.0158628069985,None,2139.0158628069985,None,2139.966387778997,None,2139.966387778997,None,2139.966387778997,None,2139.966387778997,None,,,,,,,,,,,,,,,,,,,,,,,,,,,,,,,,,,,,,,,,,,,,001,170,2020_Feb_25_1449,spring_faces,3.1.5,60.047560791504594,
condition files/Stage1_1.xlsx,,B3,T3,c,"['c', 'm']","['Clue', 'Monopoly']","[-0.15, 0.5]","[0.15, 0.5]",1,1,,,,,,,,,0,10,10,10,0,2,2,4,,,,,,,,,,,,,,,,,,,,,,,,,,,,,,,,,,,,,,,,,,,,,,,,,,,,,,,2141.9326540449983,None,2141.9326540449983,None,2141.9326540449983,None,c,1,1.3291157269995892,2143.4664404439973,None,2143.4664404439973,None,2143.4664404439973,None,2144.8496809049975,None,2144.8496809049975,None,2144.8496809049975,None,2144.8496809049975,None,,,,,,,,,,,,,,,,,,,,,,,,,,,,,,,,,,,,,,,,,,,,001,170,2020_Feb_25_1449,spring_faces,3.1.5,60.047560791504594,
condition files/Stage1_1.xlsx,,B2,T1,m,"['c', 'm']","['Clue', 'Monopoly']","[-0.15, 0.5]","[0.15, 0.5]",1,1,,,,,,,,,0,10,10,10,0,3,3,2,,,,,,,,,,,,,,,,,,,,,,,,,,,,,,,,,,,,,,,,,,,,,,,,,,,,,,,2146.8161414479982,None,2146.8161414479982,None,2146.8161414479982,None,m,1,1.2942216970004665,2148.3494150879997,None,2148.3494150879997,None,2148.3494150879997,None,2149.716019465999,None,2149.716019465999,None,2149.716019465999,None,2149.716019465999,None,,,,,,,,,,,,,,,,,,,,,,,,,,,,,,,,,,,,,,,,,,,,001,170,2020_Feb_25_1449,spring_faces,3.1.5,60.047560791504594,
condition files/Stage1_1.xlsx,,T4,B3,m,"['c', 'm']","['Clue', 'Monopoly']","[-0.15, 0.5]","[0.15, 0.5]",1,1,,,,,,,,,0,10,10,10,0,4,4,6,,,,,,,,,,,,,,,,,,,,,,,,,,,,,,,,,,,,,,,,,,,,,,,,,,,,,,,2151.666324054,None,2151.666324054,None,2151.666324054,None,m,1,2.458969908999279,2153.2166574969997,None,2153.2166574969997,None,2153.2166574969997,None,2155.733280018998,None,2155.733280018998,None,2155.733280018998,None,2155.733280018998,None,,,,,,,,,,,,,,,,,,,,,,,,,,,,,,,,,,,,,,,,,,,,001,170,2020_Feb_25_1449,spring_faces,3.1.5,60.047560791504594,
condition files/Stage1_1.xlsx,,B4,T4,m,"['c', 'm']","['Clue', 'Monopoly']","[-0.15, 0.5]","[0.15, 0.5]",1,1,,,,,,,,,0,10,10,10,0,5,5,7,,,,,,,,,,,,,,,,,,,,,,,,,,,,,,,,,,,,,,,,,,,,,,,,,,,,,,,2157.6995269,None,2157.6995269,None,2157.6995269,None,m,1,2.6347388380017946,2159.2327663529977,None,2159.2327663529977,None,2159.2327663529977,None,2161.9330826359983,None,2161.9330826359983,None,2161.9330826359983,None,2161.9330826359983,None,,,,,,,,,,,,,,,,,,,,,,,,,,,,,,,,,,,,,,,,,,,,001,170,2020_Feb_25_1449,spring_faces,3.1.5,60.047560791504594,
condition files/Stage1_1.xlsx,,T2,B2,m,"['c', 'm']","['Clue', 'Monopoly']","[-0.15, 0.5]","[0.15, 0.5]",1,1,,,,,,,,,0,10,10,10,0,6,6,3,,,,,,,,,,,,,,,,,,,,,,,,,,,,,,,,,,,,,,,,,,,,,,,,,,,,,,,2163.8986721129986,None,2163.8986721129986,None,2163.8986721129986,None,m,1,3.2026903630030574,2165.4328436279975,None,2165.4328436279975,None,2165.4328436279975,None,2168.6999753220007,None,2168.6999753220007,None,2168.6999753220007,None,2168.6999753220007,None,,,,,,,,,,,,,,,,,,,,,,,,,,,,,,,,,,,,,,,,,,,,001,170,2020_Feb_25_1449,spring_faces,3.1.5,60.047560791504594,
condition files/Stage1_1.xlsx,,B1,T2,c,"['c', 'm']","['Clue', 'Monopoly']","[-0.15, 0.5]","[0.15, 0.5]",1,1,,,,,,,,,0,10,10,10,0,7,7,1,,,,,,,,,,,,,,,,,,,,,,,,,,,,,,,,,,,,,,,,,,,,,,,,,,,,,,,2170.6662993339996,None,2170.6662993339996,None,2170.6662993339996,None,c,1,1.044388432001142,2172.1991029069977,None,2172.1991029069977,None,2172.1991029069977,None,2173.2998141040007,None,2173.2998141040007,None,2173.2998141040007,None,2173.2998141040007,None,,,,,,,,,,,,,,,,,,,,,,,,,,,,,,,,,,,,,,,,,,,,001,170,2020_Feb_25_1449,spring_faces,3.1.5,60.047560791504594,
condition files/Stage1_2.xlsx,,B1,T1,c,"['c', 'm']","['Clue', 'Monopoly']","[-0.15, 0.5]","[0.15, 0.5]",1,1,,,,,,,,,0,11,11,11,0,0,0,0,,,,,,,,,,,,,,,,,,,,,,,,,,,,,,,,,,,,,,,,,,,,,,,,,,,,,,,2175.2826782640004,None,2175.2826782640004,None,2175.2826782640004,None,c,1,1.1305387609972968,2176.8170212059995,None,2176.8170212059995,None,2176.8170212059995,None,2178.000099132998,None,2178.000099132998,None,2178.000099132998,None,2178.000099132998,None,,,,,,,,,,,,,,,,,,,,,,,,,,,,,,,,,,,,,,,,,,,,001,170,2020_Feb_25_1449,spring_faces,3.1.5,60.047560791504594,
condition files/Stage1_2.xlsx,,T3,B3,c,"['c', 'm']","['Clue', 'Monopoly']","[-0.15, 0.5]","[0.15, 0.5]",1,1,,,,,,,,,0,11,11,11,0,1,1,4,,,,,,,,,,,,,,,,,,,,,,,,,,,,,,,,,,,,,,,,,,,,,,,,,,,,,,,2179.9660324709985,None,2179.9660324709985,None,2179.9660324709985,None,c,1,1.9680654990006587,2181.499401473,None,2181.499401473,None,2181.499401473,None,2183.533083942999,None,2183.533083942999,None,2183.533083942999,None,2183.533083942999,None,,,,,,,,,,,,,,,,,,,,,,,,,,,,,,,,,,,,,,,,,,,,001,170,2020_Feb_25_1449,spring_faces,3.1.5,60.047560791504594,
condition files/Stage1_2.xlsx,,B2,T2,m,"['c', 'm']","['Clue', 'Monopoly']","[-0.15, 0.5]","[0.15, 0.5]",1,1,,,,,,,,,0,11,11,11,0,2,2,3,,,,,,,,,,,,,,,,,,,,,,,,,,,,,,,,,,,,,,,,,,,,,,,,,,,,,,,2185.4991942479974,None,2185.4991942479974,None,2185.4991942479974,None,m,1,1.5710705899982713,2187.032467391,None,2187.032467391,None,2187.032467391,None,2188.6687039479984,None,2188.6687039479984,None,2188.6687039479984,None,2188.6687039479984,None,,,,,,,,,,,,,,,,,,,,,,,,,,,,,,,,,,,,,,,,,,,,001,170,2020_Feb_25_1449,spring_faces,3.1.5,60.047560791504594,
condition files/Stage1_2.xlsx,,T4,B4,m,"['c', 'm']","['Clue', 'Monopoly']","[-0.15, 0.5]","[0.15, 0.5]",1,1,,,,,,,,,0,11,11,11,0,3,3,7,,,,,,,,,,,,,,,,,,,,,,,,,,,,,,,,,,,,,,,,,,,,,,,,,,,,,,,2190.6329525389992,None,2190.6329525389992,None,2190.6329525389992,None,m,1,1.6041456759994617,2192.1674202159993,None,2192.1674202159993,None,2192.1674202159993,None,2193.8332490559987,None,2193.8332490559987,None,2193.8332490559987,None,2193.8332490559987,None,,,,,,,,,,,,,,,,,,,,,,,,,,,,,,,,,,,,,,,,,,,,001,170,2020_Feb_25_1449,spring_faces,3.1.5,60.047560791504594,
condition files/Stage1_2.xlsx,,B3,T4,m,"['c', 'm']","['Clue', 'Monopoly']","[-0.15, 0.5]","[0.15, 0.5]",1,1,,,,,,,,,0,11,11,11,0,4,4,6,,,,,,,,,,,,,,,,,,,,,,,,,,,,,,,,,,,,,,,,,,,,,,,,,,,,,,,2195.799279879,None,2195.799279879,None,2195.799279879,None,m,1,2.6298774769966258,2197.333669722,None,2197.333669722,None,2197.333669722,None,2200.0166489779986,None,2200.0166489779986,None,2200.0166489779986,None,2200.0166489779986,None,,,,,,,,,,,,,,,,,,,,,,,,,,,,,,,,,,,,,,,,,,,,001,170,2020_Feb_25_1449,spring_faces,3.1.5,60.047560791504594,
condition files/Stage1_2.xlsx,,T1,B2,m,"['c', 'm']","['Clue', 'Monopoly']","[-0.15, 0.5]","[0.15, 0.5]",1,1,,,,,,,,,0,11,11,11,0,5,5,2,,,,,,,,,,,,,,,,,,,,,,,,,,,,,,,,,,,,,,,,,,,,,,,,,,,,,,,2201.9826362299973,None,2201.9826362299973,None,2201.9826362299973,None,m,1,1.2952656679990469,2203.5162694869978,None,2203.5162694869978,None,2203.5162694869978,None,2204.866343706999,None,2204.866343706999,None,2204.866343706999,None,2204.866343706999,None,,,,,,,,,,,,,,,,,,,,,,,,,,,,,,,,,,,,,,,,,,,,001,170,2020_Feb_25_1449,spring_faces,3.1.5,60.047560791504594,
condition files/Stage1_2.xlsx,,T2,B1,c,"['c', 'm']","['Clue', 'Monopoly']","[-0.15, 0.5]","[0.15, 0.5]",1,1,,,,,,,,,0,11,11,11,0,6,6,1,,,,,,,,,,,,,,,,,,,,,,,,,,,,,,,,,,,,,,,,,,,,,,,,,,,,,,,2206.8328617009975,None,2206.8328617009975,None,2206.8328617009975,None,c,1,1.2435051889988245,2208.368057569998,None,2208.368057569998,None,2208.368057569998,None,2209.668095958001,None,2209.668095958001,None,2209.668095958001,None,2209.668095958001,None,,,,,,,,,,,,,,,,,,,,,,,,,,,,,,,,,,,,,,,,,,,,001,170,2020_Feb_25_1449,spring_faces,3.1.5,60.047560791504594,
condition files/Stage1_2.xlsx,,B4,T3,c,"['c', 'm']","['Clue', 'Monopoly']","[-0.15, 0.5]","[0.15, 0.5]",1,1,,,,,,,,,0,11,11,11,0,7,7,5,,,,,,,,,,,,,,,,,,,,,,,,,,,,,,,,,,,,,,,,,,,,,,,,,,,,,,,2211.6327859599987,None,2211.6327859599987,None,2211.6327859599987,None,c,1,1.9493763740028953,2213.166178517,None,2213.166178517,None,2213.166178517,None,2215.1665359279978,None,2215.1665359279978,None,2215.1665359279978,None,2215.1665359279978,None,,,,,,,,,,,,,,,,,,,,,,,,,,,,,,,,,,,,,,,,,,,,001,170,2020_Feb_25_1449,spring_faces,3.1.5,60.047560791504594,
,,,,,,,,,,,,,,,,,,,,,,,,,,,,,,,,,,,,,,,,,,,,,,,,,,,,,,,,,,,,,,,,,,,,,,,,,,,,,,,,,,,,,,,,,,,,,,,,,,,,,,,,,,,,,,,,2217.1495807440006,None,space,7.3661327049994725,2222.149429494999,None,,,,,,,,,,,,,,,,,,,,,,,,,,,,,,001,170,2020_Feb_25_1449,spring_faces,3.1.5,60.047560791504594,
condition files/Stage2_1.xlsx,,T1,B1,s,"['s', 'r']","['Stratego', 'Risk']","[-0.15, 0.5]","[0.15, 0.5]",1,1,,,,,,,,,,,,,,,,,0,0,0,0,0,0,0,2,,,,,,,,,,,,,,,,,,,,,,,,,,,,,,,,,,,,,,,,,,,,,,,2229.5658464669978,None,2229.5658464669978,None,2229.5658464669978,None,s,1,1.6167435089992068,2231.0828129049987,None,2231.0828129049987,None,2231.0828129049987,None,2232.750963006998,None,2232.750963006998,None,2232.750963006998,None,2232.750963006998,None,,,,,,,,,,,,,,,2222.149429494999,None,,,,,,,,,,,,,,,,,,,,,,,,,,,,001,170,2020_Feb_25_1449,spring_faces,3.1.5,60.047560791504594,
condition files/Stage2_1.xlsx,,B6,T6,r,"['s', 'r']","['Stratego', 'Risk']","[-0.15, 0.5]","[0.15, 0.5]",1,1,,,,,,,,,,,,,,,,,0,0,0,0,0,1,1,1,,,,,,,,,,,,,,,,,,,,,,,,,,,,,,,,,,,,,,,,,,,,,,,2234.7158943409995,None,2234.7158943409995,None,2234.7158943409995,None,r,1,2.4663433829991845,2236.2492056739975,None,2236.2492056739975,None,2236.2492056739975,None,2238.765721749998,None,2238.765721749998,None,2238.765721749998,None,2238.765721749998,None,,,,,,,,,,,,,,,,,,,,,,,,,,,,,,,,,,,,,,,,,,,,001,170,2020_Feb_25_1449,spring_faces,3.1.5,60.047560791504594,
condition files/Stage2_1.xlsx,,B2,T2,r,"['s', 'r']","['Stratego', 'Risk']","[-0.15, 0.5]","[0.15, 0.5]",1,1,,,,,,,,,,,,,,,,,0,0,0,0,0,2,2,3,,,,,,,,,,,,,,,,,,,,,,,,,,,,,,,,,,,,,,,,,,,,,,,2240.7329022329977,None,2240.7329022329977,None,2240.7329022329977,None,s,0,1.1051478810004483,2242.2664017209972,None,2242.2664017209972,None,2242.2664017209972,None,2243.432822079998,None,2243.432822079998,None,2243.432822079998,None,2243.432822079998,None,,,,,,,,,,,,,,,,,,,,,,,,,,,,,,,,,,,,,,,,,,,,001,170,2020_Feb_25_1449,spring_faces,3.1.5,60.047560791504594,
condition files/Stage2_1.xlsx,,T5,B5,s,"['s', 'r']","['Stratego', 'Risk']","[-0.15, 0.5]","[0.15, 0.5]",1,1,,,,,,,,,,,,,,,,,0,0,0,0,0,3,3,0,,,,,,,,,,,,,,,,,,,,,,,,,,,,,,,,,,,,,,,,,,,,,,,2245.3992915009985,None,2245.3992915009985,None,2245.3992915009985,None,r,0,2.1665594119986054,2246.9329802529974,None,2246.9329802529974,None,2246.9329802529974,None,2249.1664246969995,None,2249.1664246969995,None,2249.1664246969995,None,2249.1664246969995,None,,,,,,,,,,,,,,,,,,,,,,,,,,,,,,,,,,,,,,,,,,,,001,170,2020_Feb_25_1449,spring_faces,3.1.5,60.047560791504594,
condition files/Stage2_1.xlsx,,B4,T4,r,"['s', 'r']","['Stratego', 'Risk']","[-0.15, 0.5]","[0.15, 0.5]",1,1,,,,,,,,,,,,,,,,,0,0,0,0,0,4,4,5,,,,,,,,,,,,,,,,,,,,,,,,,,,,,,,,,,,,,,,,,,,,,,,2251.116176354997,None,2251.116176354997,None,2251.116176354997,None,s,0,2.257195984999271,2252.6504166569975,None,2252.6504166569975,None,2252.6504166569975,None,2254.9663428819986,None,2254.9663428819986,None,2254.9663428819986,None,2254.9663428819986,None,,,,,,,,,,,,,,,,,,,,,,,,,,,,,,,,,,,,,,,,,,,,001,170,2020_Feb_25_1449,spring_faces,3.1.5,60.047560791504594,
condition files/Stage2_1.xlsx,,T3,B3,s,"['s', 'r']","['Stratego', 'Risk']","[-0.15, 0.5]","[0.15, 0.5]",1,1,,,,,,,,,,,,,,,,,0,0,0,0,0,5,5,4,,,,,,,,,,,,,,,,,,,,,,,,,,,,,,,,,,,,,,,,,,,,,,,2256.9322157459974,None,2256.9322157459974,None,2256.9322157459974,None,r,0,1.08040062299915,2258.4671536749993,None,2258.4671536749993,None,2258.4671536749993,None,2259.598980450999,None,2259.598980450999,None,2259.598980450999,None,2259.598980450999,None,,,,,,,,,,,,,,,,,,,,,,,,,,,,,,,,,,,,,,,,,,,,001,170,2020_Feb_25_1449,spring_faces,3.1.5,60.047560791504594,
condition files/Stage2_2.xlsx,,T2,B2,r,"['s', 'r']","['Stratego', 'Risk']","[-0.15, 0.5]","[0.15, 0.5]",1,1,,,,,,,,,,,,,,,,,0,1,1,1,0,0,0,3,,,,,,,,,,,,,,,,,,,,,,,,,,,,,,,,,,,,,,,,,,,,,,,2261.582587556997,None,2261.582587556997,None,2261.582587556997,None,r,1,0.3985146730010456,2263.1170452980004,None,2263.1170452980004,None,2263.1170452980004,None,2263.5831646499973,None,2263.5831646499973,None,2263.5831646499973,None,2263.5831646499973,None,,,,,,,,,,,,,,,,,,,,,,,,,,,,,,,,,,,,,,,,,,,,001,170,2020_Feb_25_1449,spring_faces,3.1.5,60.047560791504594,
condition files/Stage2_2.xlsx,,T4,B4,r,"['s', 'r']","['Stratego', 'Risk']","[-0.15, 0.5]","[0.15, 0.5]",1,1,,,,,,,,,,,,,,,,,0,1,1,1,0,1,1,5,,,,,,,,,,,,,,,,,,,,,,,,,,,,,,,,,,,,,,,,,,,,,,,2265.532853081,None,2265.532853081,None,2265.532853081,None,r,1,1.0887635239996598,2267.0827836129974,None,2267.0827836129974,None,2267.0827836129974,None,2268.2325715029983,None,2268.2325715029983,None,2268.2325715029983,None,2268.2325715029983,None,,,,,,,,,,,,,,,,,,,,,,,,,,,,,,,,,,,,,,,,,,,,001,170,2020_Feb_25_1449,spring_faces,3.1.5,60.047560791504594,
condition files/Stage2_2.xlsx,,B1,T1,s,"['s', 'r']","['Stratego', 'Risk']","[-0.15, 0.5]","[0.15, 0.5]",1,1,,,,,,,,,,,,,,,,,0,1,1,1,0,2,2,2,,,,,,,,,,,,,,,,,,,,,,,,,,,,,,,,,,,,,,,,,,,,,,,2270.1996499889974,None,2270.1996499889974,None,2270.1996499889974,None,s,1,1.0477114069981326,2271.7319975969986,None,2271.7319975969986,None,2271.7319975969986,None,2272.849701343999,None,2272.849701343999,None,2272.849701343999,None,2272.849701343999,None,,,,,,,,,,,,,,,,,,,,,,,,,,,,,,,,,,,,,,,,,,,,001,170,2020_Feb_25_1449,spring_faces,3.1.5,60.047560791504594,
condition files/Stage2_2.xlsx,,B3,T3,s,"['s', 'r']","['Stratego', 'Risk']","[-0.15, 0.5]","[0.15, 0.5]",1,1,,,,,,,,,,,,,,,,,0,1,1,1,0,3,3,4,,,,,,,,,,,,,,,,,,,,,,,,,,,,,,,,,,,,,,,,,,,,,,,2274.799591032999,None,2274.799591032999,None,2274.799591032999,None,r,0,1.2308183559980534,2276.332735091997,None,2276.332735091997,None,2276.332735091997,None,2277.61620063,None,2277.61620063,None,2277.61620063,None,2277.61620063,None,,,,,,,,,,,,,,,,,,,,,,,,,,,,,,,,,,,,,,,,,,,,001,170,2020_Feb_25_1449,spring_faces,3.1.5,60.047560791504594,
condition files/Stage2_2.xlsx,,T6,B6,r,"['s', 'r']","['Stratego', 'Risk']","[-0.15, 0.5]","[0.15, 0.5]",1,1,,,,,,,,,,,,,,,,,0,1,1,1,0,4,4,1,,,,,,,,,,,,,,,,,,,,,,,,,,,,,,,,,,,,,,,,,,,,,,,2279.582882442999,None,2279.582882442999,None,2279.582882442999,None,r,1,1.9809439960008604,2281.118608200999,None,2281.118608200999,None,2281.118608200999,None,2283.1663841189984,None,2283.1663841189984,None,2283.1663841189984,None,2283.1663841189984,None,,,,,,,,,,,,,,,,,,,,,,,,,,,,,,,,,,,,,,,,,,,,001,170,2020_Feb_25_1449,spring_faces,3.1.5,60.047560791504594,
condition files/Stage2_2.xlsx,,B5,T5,s,"['s', 'r']","['Stratego', 'Risk']","[-0.15, 0.5]","[0.15, 0.5]",1,1,,,,,,,,,,,,,,,,,0,1,1,1,0,5,5,0,,,,,,,,,,,,,,,,,,,,,,,,,,,,,,,,,,,,,,,,,,,,,,,2285.1156386209987,None,2285.1156386209987,None,2285.1156386209987,None,r,0,1.3449002820016176,2286.6506422019993,None,2286.6506422019993,None,2286.6506422019993,None,2288.0664238579993,None,2288.0664238579993,None,2288.0664238579993,None,2288.0664238579993,None,,,,,,,,,,,,,,,,,,,,,,,,,,,,,,,,,,,,,,,,,,,,001,170,2020_Feb_25_1449,spring_faces,3.1.5,60.047560791504594,
condition files/Stage2_1.xlsx,,T5,B5,s,"['s', 'r']","['Stratego', 'Risk']","[-0.15, 0.5]","[0.15, 0.5]",1,1,,,,,,,,,,,,,,,,,0,2,2,2,0,0,0,0,,,,,,,,,,,,,,,,,,,,,,,,,,,,,,,,,,,,,,,,,,,,,,,2290.033027316,None,2290.033027316,None,2290.033027316,None,s,1,0.732113294001465,2291.5674475039996,None,2291.5674475039996,None,2291.5674475039996,None,2292.3492244619993,None,2292.3492244619993,None,2292.3492244619993,None,2292.3492244619993,None,,,,,,,,,,,,,,,,,,,,,,,,,,,,,,,,,,,,,,,,,,,,001,170,2020_Feb_25_1449,spring_faces,3.1.5,60.047560791504594,
condition files/Stage2_1.xlsx,,B4,T4,r,"['s', 'r']","['Stratego', 'Risk']","[-0.15, 0.5]","[0.15, 0.5]",1,1,,,,,,,,,,,,,,,,,0,2,2,2,0,1,1,5,,,,,,,,,,,,,,,,,,,,,,,,,,,,,,,,,,,,,,,,,,,,,,,2294.316017085999,None,2294.316017085999,None,2294.316017085999,None,r,1,1.6314314769988414,2295.852093483998,None,2295.852093483998,None,2295.852093483998,None,2297.5493306339995,None,2297.5493306339995,None,2297.5493306339995,None,2297.5493306339995,None,,,,,,,,,,,,,,,,,,,,,,,,,,,,,,,,,,,,,,,,,,,,001,170,2020_Feb_25_1449,spring_faces,3.1.5,60.047560791504594,
condition files/Stage2_1.xlsx,,B6,T6,r,"['s', 'r']","['Stratego', 'Risk']","[-0.15, 0.5]","[0.15, 0.5]",1,1,,,,,,,,,,,,,,,,,0,2,2,2,0,2,2,1,,,,,,,,,,,,,,,,,,,,,,,,,,,,,,,,,,,,,,,,,,,,,,,2299.516154844998,None,2299.516154844998,None,2299.516154844998,None,r,1,1.215310016003059,2301.052211195998,None,2301.052211195998,None,2301.052211195998,None,2302.3324980920006,None,2302.3324980920006,None,2302.3324980920006,None,2302.3324980920006,None,,,,,,,,,,,,,,,,,,,,,,,,,,,,,,,,,,,,,,,,,,,,001,170,2020_Feb_25_1449,spring_faces,3.1.5,60.047560791504594,
condition files/Stage2_1.xlsx,,T3,B3,s,"['s', 'r']","['Stratego', 'Risk']","[-0.15, 0.5]","[0.15, 0.5]",1,1,,,,,,,,,,,,,,,,,0,2,2,2,0,3,3,4,,,,,,,,,,,,,,,,,,,,,,,,,,,,,,,,,,,,,,,,,,,,,,,2304.2995667409996,None,2304.2995667409996,None,2304.2995667409996,None,r,0,1.5227081880002515,2305.8328498230003,None,2305.8328498230003,None,2305.8328498230003,None,2307.4186128479996,None,2307.4186128479996,None,2307.4186128479996,None,2307.4186128479996,None,,,,,,,,,,,,,,,,,,,,,,,,,,,,,,,,,,,,,,,,,,,,001,170,2020_Feb_25_1449,spring_faces,3.1.5,60.047560791504594,
condition files/Stage2_1.xlsx,,B2,T2,r,"['s', 'r']","['Stratego', 'Risk']","[-0.15, 0.5]","[0.15, 0.5]",1,1,,,,,,,,,,,,,,,,,0,2,2,2,0,4,4,3,,,,,,,,,,,,,,,,,,,,,,,,,,,,,,,,,,,,,,,,,,,,,,,2309.3828129680005,None,2309.3828129680005,None,2309.3828129680005,None,r,1,1.1597678369980713,2310.915873973998,None,2310.915873973998,None,2310.915873973998,None,2312.133041920999,None,2312.133041920999,None,2312.133041920999,None,2312.133041920999,None,,,,,,,,,,,,,,,,,,,,,,,,,,,,,,,,,,,,,,,,,,,,001,170,2020_Feb_25_1449,spring_faces,3.1.5,60.047560791504594,
condition files/Stage2_1.xlsx,,T1,B1,s,"['s', 'r']","['Stratego', 'Risk']","[-0.15, 0.5]","[0.15, 0.5]",1,1,,,,,,,,,,,,,,,,,0,2,2,2,0,5,5,2,,,,,,,,,,,,,,,,,,,,,,,,,,,,,,,,,,,,,,,,,,,,,,,2314.0992193519996,None,2314.0992193519996,None,2314.0992193519996,None,s,1,1.370994086999417,2315.6325613359986,None,2315.6325613359986,None,2315.6325613359986,None,2317.0658374749983,None,2317.0658374749983,None,2317.0658374749983,None,2317.0658374749983,None,,,,,,,,,,,,,,,,,,,,,,,,,,,,,,,,,,,,,,,,,,,,001,170,2020_Feb_25_1449,spring_faces,3.1.5,60.047560791504594,
condition files/Stage2_2.xlsx,,T6,B6,r,"['s', 'r']","['Stratego', 'Risk']","[-0.15, 0.5]","[0.15, 0.5]",1,1,,,,,,,,,,,,,,,,,0,3,3,3,0,0,0,1,,,,,,,,,,,,,,,,,,,,,,,,,,,,,,,,,,,,,,,,,,,,,,,2319.049611238999,None,2319.049611238999,None,2319.049611238999,None,r,1,1.9890561129977868,2320.5825108009994,None,2320.5825108009994,None,2320.5825108009994,None,2322.633596432999,None,2322.633596432999,None,2322.633596432999,None,2322.633596432999,None,,,,,,,,,,,,,,,,,,,,,,,,,,,,,,,,,,,,,,,,,,,,001,170,2020_Feb_25_1449,spring_faces,3.1.5,60.047560791504594,
condition files/Stage2_2.xlsx,,T4,B4,r,"['s', 'r']","['Stratego', 'Risk']","[-0.15, 0.5]","[0.15, 0.5]",1,1,,,,,,,,,,,,,,,,,0,3,3,3,0,1,1,5,,,,,,,,,,,,,,,,,,,,,,,,,,,,,,,,,,,,,,,,,,,,,,,2324.599073690999,None,2324.599073690999,None,2324.599073690999,None,r,1,1.238695583997469,2326.1328682549974,None,2326.1328682549974,None,2326.1328682549974,None,2327.433140318997,None,2327.433140318997,None,2327.433140318997,None,2327.433140318997,None,,,,,,,,,,,,,,,,,,,,,,,,,,,,,,,,,,,,,,,,,,,,001,170,2020_Feb_25_1449,spring_faces,3.1.5,60.047560791504594,
condition files/Stage2_2.xlsx,,B3,T3,s,"['s', 'r']","['Stratego', 'Risk']","[-0.15, 0.5]","[0.15, 0.5]",1,1,,,,,,,,,,,,,,,,,0,3,3,3,0,2,2,4,,,,,,,,,,,,,,,,,,,,,,,,,,,,,,,,,,,,,,,,,,,,,,,2329.399311000998,None,2329.399311000998,None,2329.399311000998,None,s,1,2.5804450180003187,2330.9351099630003,None,2330.9351099630003,None,2330.9351099630003,None,2333.567647533,None,2333.567647533,None,2333.567647533,None,2333.567647533,None,,,,,,,,,,,,,,,,,,,,,,,,,,,,,,,,,,,,,,,,,,,,001,170,2020_Feb_25_1449,spring_faces,3.1.5,60.047560791504594,
condition files/Stage2_2.xlsx,,B1,T1,s,"['s', 'r']","['Stratego', 'Risk']","[-0.15, 0.5]","[0.15, 0.5]",1,1,,,,,,,,,,,,,,,,,0,3,3,3,0,3,3,2,,,,,,,,,,,,,,,,,,,,,,,,,,,,,,,,,,,,,,,,,,,,,,,2335.5322901590007,None,2335.5322901590007,None,2335.5322901590007,None,s,1,1.216260240002157,2337.067257857998,None,2337.067257857998,None,2337.067257857998,None,2338.349454365998,None,2338.349454365998,None,2338.349454365998,None,2338.349454365998,None,,,,,,,,,,,,,,,,,,,,,,,,,,,,,,,,,,,,,,,,,,,,001,170,2020_Feb_25_1449,spring_faces,3.1.5,60.047560791504594,
condition files/Stage2_2.xlsx,,T2,B2,r,"['s', 'r']","['Stratego', 'Risk']","[-0.15, 0.5]","[0.15, 0.5]",1,1,,,,,,,,,,,,,,,,,0,3,3,3,0,4,4,3,,,,,,,,,,,,,,,,,,,,,,,,,,,,,,,,,,,,,,,,,,,,,,,2340.3161534459978,None,2340.3161534459978,None,2340.3161534459978,None,r,1,1.3128478230028122,2341.8507066579987,None,2341.8507066579987,None,2341.8507066579987,None,2343.217393855997,None,2343.217393855997,None,2343.217393855997,None,2343.217393855997,None,,,,,,,,,,,,,,,,,,,,,,,,,,,,,,,,,,,,,,,,,,,,001,170,2020_Feb_25_1449,spring_faces,3.1.5,60.047560791504594,
condition files/Stage2_2.xlsx,,B5,T5,s,"['s', 'r']","['Stratego', 'Risk']","[-0.15, 0.5]","[0.15, 0.5]",1,1,,,,,,,,,,,,,,,,,0,3,3,3,0,5,5,0,,,,,,,,,,,,,,,,,,,,,,,,,,,,,,,,,,,,,,,,,,,,,,,2345.1828544069976,None,2345.1828544069976,None,2345.1828544069976,None,r,0,1.0071251090012083,2346.716509253998,None,2346.716509253998,None,2346.716509253998,None,2347.7826137919983,None,2347.7826137919983,None,2347.7826137919983,None,2347.7826137919983,None,,,,,,,,,,,,,,,,,,,,,,,,,,,,,,,,,,,,,,,,,,,,001,170,2020_Feb_25_1449,spring_faces,3.1.5,60.047560791504594,
condition files/Stage2_1.xlsx,,B6,T6,r,"['s', 'r']","['Stratego', 'Risk']","[-0.15, 0.5]","[0.15, 0.5]",1,1,,,,,,,,,,,,,,,,,0,4,4,4,0,0,0,1,,,,,,,,,,,,,,,,,,,,,,,,,,,,,,,,,,,,,,,,,,,,,,,2349.7661045669993,None,2349.7661045669993,None,2349.7661045669993,None,r,1,1.3354123570024967,2351.3001608759987,None,2351.3001608759987,None,2351.3001608759987,None,2352.7165878649976,None,2352.7165878649976,None,2352.7165878649976,None,2352.7165878649976,None,,,,,,,,,,,,,,,,,,,,,,,,,,,,,,,,,,,,,,,,,,,,001,170,2020_Feb_25_1449,spring_faces,3.1.5,60.047560791504594,
condition files/Stage2_1.xlsx,,T5,B5,s,"['s', 'r']","['Stratego', 'Risk']","[-0.15, 0.5]","[0.15, 0.5]",1,1,,,,,,,,,,,,,,,,,0,4,4,4,0,1,1,0,,,,,,,,,,,,,,,,,,,,,,,,,,,,,,,,,,,,,,,,,,,,,,,2354.66607897,None,2354.66607897,None,2354.66607897,None,s,1,1.7479622930004552,2356.199595242,None,2356.199595242,None,2356.199595242,None,2358.015838340998,None,2358.015838340998,None,2358.015838340998,None,2358.015838340998,None,,,,,,,,,,,,,,,,,,,,,,,,,,,,,,,,,,,,,,,,,,,,001,170,2020_Feb_25_1449,spring_faces,3.1.5,60.047560791504594,
