condsFile,subStage,cue1,cue2,correct,responseKeys,responseNames,cue1Position,cue2Position,cue1Opacity,cue2Opacity,stageLoop0.thisRepN,stageLoop0.thisTrialN,stageLoop0.thisN,stageLoop0.thisIndex,blockLoop0.thisRepN,blockLoop0.thisTrialN,blockLoop0.thisN,blockLoop0.thisIndex,stage1Loop.thisRepN,stage1Loop.thisTrialN,stage1Loop.thisN,stage1Loop.thisIndex,blockLoop1.thisRepN,blockLoop1.thisTrialN,blockLoop1.thisN,blockLoop1.thisIndex,stage2Loop.thisRepN,stage2Loop.thisTrialN,stage2Loop.thisN,stage2Loop.thisIndex,blockLoop2.thisRepN,blockLoop2.thisTrialN,blockLoop2.thisN,blockLoop2.thisIndex,testLoop.thisRepN,testLoop.thisTrialN,testLoop.thisN,testLoop.thisIndex,blockLoopTest.thisRepN,blockLoopTest.thisTrialN,blockLoopTest.thisN,blockLoopTest.thisIndex,cuePics,id_instr_text.started,id_instr_text.stopped,space_to_continue_2.started,space_to_continue_2.stopped,end_instructions_resp_3.keys,end_instructions_resp_3.rt,end_instructions_resp_3.started,end_instructions_resp_3.stopped,id_input_instr.started,id_input_instr.stopped,id_input_rect.started,id_input_rect.stopped,id_input_resp.keys,id_input_resp.rt,id_input_resp.started,id_input_resp.stopped,sonaID,id_input_text.started,id_input_text.stopped,final_text.started,final_text.stopped,instructions.started,instructions.stopped,end_instructions_resp.keys,end_instructions_resp.rt,end_instructions_resp.started,end_instructions_resp.stopped,space_to_continue.started,space_to_continue.stopped,instructions_stage0.started,instructions_stage0.stopped,end_instructions_resp_stage0.keys,end_instructions_resp_stage0.rt,end_instructions_resp_stage0.started,end_instructions_resp_stage0.stopped,space_to_continue_stage0.started,space_to_continue_stage0.stopped,text.started,text.stopped,resp_text1.started,resp_text1.stopped,resp_text2.started,resp_text2.stopped,trial_resp.keys,trial_resp.corr,trial_resp.rt,trial_resp.started,trial_resp.stopped,cue1Image.started,cue1Image.stopped,cue2Image.started,cue2Image.stopped,cue1Image_fb.started,cue1Image_fb.stopped,cue2Image_fb.started,cue2Image_fb.stopped,fb_text_answer.started,fb_text_answer.stopped,feedback_image.started,feedback_image.stopped,instructions_stage1.started,instructions_stage1.stopped,end_instructions_resp_stage1.keys,end_instructions_resp_stage1.rt,end_instructions_resp_stage1.started,end_instructions_resp_stage1.stopped,space_to_continue_stage1.started,space_to_continue_stage1.stopped,instructions_2.started,instructions_2.stopped,end_instructions_resp_2.keys,end_instructions_resp_2.rt,end_instructions_resp_2.started,end_instructions_resp_2.stopped,press_space_to_continue_stage2.started,press_space_to_continue_stage2.stopped,instructions_testStage1.started,instructions_testStage1.stopped,end_instructions_resp_test1.keys,end_instructions_resp_test1.rt,end_instructions_resp_test1.started,end_instructions_resp_test1.stopped,press_space_to_continue_test1.started,press_space_to_continue_test1.stopped,cue1Image_testChoice.started,cue1Image_testChoice.stopped,cue2Image_testChoice.started,cue2Image_testChoice.stopped,test_resp.keys,test_resp.corr,test_resp.rt,test_resp.started,test_resp.stopped,cue1Image_testConf.started,cue1Image_testConf.stopped,cue2Image_testConf.started,cue2Image_testConf.stopped,conf_reminder.started,conf_reminder.stopped,conf_rating.response,conf_rating.rt,conf_rating.started,conf_rating.stopped,session,participant,date,expName,psychopyVersion,frameRate,
,,,,,,,,,,,,,,,,,,,,,,,,,,,,,,,,,,,,,,,,,,,"{'none': 'pictures/20M_AN_C.png', 'alpha': 'pictures/SHINEd_apple.png', 'beta': 'pictures/SHINEd_melon.png', 'theta': 'pictures/SHINEd_pepper.png', 'phi': 'pictures/SHINEd_pear.png', 'T1': 'pictures/32M_AN_C.png', 'T2': 'pictures/34M_AN_C.png', 'T3': 'pictures/36M_AN_C.png', 'T4': 'pictures/38M_AN_C.png', 'T5': 'pictures/26M_AN_C.png', 'T6': 'pictures/31M_AN_C.png', 'B1': 'pictures/33M_NE_C.png', 'B2': 'pictures/37M_NE_C.png', 'B3': 'pictures/23M_NE_C.png', 'B4': 'pictures/25M_NE_C.png', 'B5': 'pictures/20M_NE_C.png', 'B6': 'pictures/22M_NE_C.png'}",25.571910322999884,None,30.571383349999905,None,space,23.82347638400006,30.571383349999905,None,,,,,,,,,,,,,,,,,,,,,,,,,,,,,,,,,,,,,,,,,,,,,,,,,,,,,,,,,,,,,,,,,,,,,,,,,,,,,,,,,,,,,,,,,,,,,,,,001,173,2020_Feb_27_0934,spring_faces,3.1.5,59.9445352397029,
,,,,,,,,,,,,,,,,,,,,,,,,,,,,,,,,,,,,,,,,,,,,,,,,,,,,54.77367205199971,None,54.77367205199971,None,"['0', '0', 'backspace', '3', '1', '6', 'd', 'u', 'h', 'e', 'r', '0', '3', '1', '6', 'z', 'h', 'u', 'h', 'e', 'r', 'backspace', '0', '3', '1', '6', 'd', 'u', 'h', 'e', 'r']","[7.237132403000032, 7.3811115969997445, 8.501120681999964, 9.413133859000027, 30.213119436999932, 30.5971240519998, 34.50113173999989, 34.725188392999826, 36.85312158199986, 37.01312348800002, 37.10913506299994, 45.30111417399985, 45.46112890299992, 46.053138771999784, 46.501120499999615, 48.389142548999644, 48.5971200619997, 48.75719201699985, 50.101123035, 50.24509309599989, 50.37319125199974, 56.86913322300006, 57.78111928299995, 58.053141995999795, 58.64513559699981, 59.09310612199988, 61.81312170000001, 62.117070758999944, 63.36505546299986, 63.49308953799982, 63.63714077399982]",54.77367205199971,None,,,,,,,,,,,,,,,,,,,,,,,,,,,,,,,,,,,,,,,,,,,,,,,,,,,,,,,,,,,,,,,,,,,,,,,,,,,,,,,,,,,,,,,,001,173,2020_Feb_27_0934,spring_faces,3.1.5,59.9445352397029,
,,,,,,,,,,,,,,,,,,,,,,,,,,,,,,,,,,,,,,,,,,,,,,,,,,,,,,,,,,,,0316duher,54.77367205199971,None,54.77367205199971,None,123.4891485889998,None,space,5.618048886999986,128.4887006869999,None,,,,,,,,,,,,,,,,,,,,,,,,,,,,,,,,,,,,,,,,,,,,,,,,,,,,,,,,,,,,,,,,,,,,,,,,,,,,,001,173,2020_Feb_27_0934,spring_faces,3.1.5,59.9445352397029,
,,,,,,,,,,,,,,,,,,,,,,,,,,,,,,,,,,,,,,,,,,,,,,,,,,,,,,,,,,,,,,,,,,,,,,,128.4887006869999,None,134.15546596700005,None,space,45.31953449399998,139.15526934699983,None,,,,,,,,,,,,,,,,,,,,,,,,,,,,,,,,,,,,,,,,,,,,,,,,,,,,,,,,,,,,,,,,,,,,,001,173,2020_Feb_27_0934,spring_faces,3.1.5,59.9445352397029,
condition files/Stage0a.xlsx,0a,alpha,none,h,"['h', 'g']","['Chess', 'Go']","[0, 0.5]","[0, 0]",1,0,0,0,0,0,0,0,0,0,,,,,,,,,,,,,,,,,,,,,,,,,,,,,,,,,,,,,,,,,,,,,,,,,,,,,,,,,,,,,139.15526934699983,None,184.53886041099986,None,184.53886041099986,None,184.53886041099986,None,h,1,4.543567980000262,186.12321783700008,None,186.12321783700008,None,186.12321783700008,None,190.738746558,None,190.738746558,None,190.738746558,None,190.738746558,None,,,,,,,,,,,,,,,,,,,,,,,,,,,,,,,,,,,,,,,,,,,,001,173,2020_Feb_27_0934,spring_faces,3.1.5,59.9445352397029,
condition files/Stage0a.xlsx,0a,beta,none,g,"['h', 'g']","['Chess', 'Go']","[0, 0.5]","[0, 0]",1,0,0,0,0,0,0,1,1,1,,,,,,,,,,,,,,,,,,,,,,,,,,,,,,,,,,,,,,,,,,,,,,,,,,,,,,,,,,,,,,,192.68852912300008,None,192.68852912300008,None,192.68852912300008,None,h,0,2.4610897019997537,194.22174952399973,None,194.22174952399973,None,194.22174952399973,None,196.7387063199999,None,196.7387063199999,None,196.7387063199999,None,196.7387063199999,None,,,,,,,,,,,,,,,,,,,,,,,,,,,,,,,,,,,,,,,,,,,,001,173,2020_Feb_27_0934,spring_faces,3.1.5,59.9445352397029,
condition files/Stage0a.xlsx,0a,beta,none,g,"['h', 'g']","['Chess', 'Go']","[0, 0.5]","[0, 0]",1,0,0,1,1,1,0,0,0,1,,,,,,,,,,,,,,,,,,,,,,,,,,,,,,,,,,,,,,,,,,,,,,,,,,,,,,,,,,,,,,,198.72231404800004,None,198.72231404800004,None,198.72231404800004,None,g,1,0.8600213009999607,200.2547721269998,None,200.2547721269998,None,200.2547721269998,None,201.1720493869998,None,201.1720493869998,None,201.1720493869998,None,201.1720493869998,None,,,,,,,,,,,,,,,,,,,,,,,,,,,,,,,,,,,,,,,,,,,,001,173,2020_Feb_27_0934,spring_faces,3.1.5,59.9445352397029,
condition files/Stage0a.xlsx,0a,alpha,none,h,"['h', 'g']","['Chess', 'Go']","[0, 0.5]","[0, 0]",1,0,0,1,1,1,0,1,1,0,,,,,,,,,,,,,,,,,,,,,,,,,,,,,,,,,,,,,,,,,,,,,,,,,,,,,,,,,,,,,,,203.1384732319998,None,203.1384732319998,None,203.1384732319998,None,h,1,0.8424902290003047,204.67228430299974,None,204.67228430299974,None,204.67228430299974,None,205.5718386479998,None,205.5718386479998,None,205.5718386479998,None,205.5718386479998,None,,,,,,,,,,,,,,,,,,,,,,,,,,,,,,,,,,,,,,,,,,,,001,173,2020_Feb_27_0934,spring_faces,3.1.5,59.9445352397029,
condition files/Stage0a.xlsx,0a,beta,none,g,"['h', 'g']","['Chess', 'Go']","[0, 0.5]","[0, 0]",1,0,0,2,2,2,0,0,0,1,,,,,,,,,,,,,,,,,,,,,,,,,,,,,,,,,,,,,,,,,,,,,,,,,,,,,,,,,,,,,,,207.555357619,None,207.555357619,None,207.555357619,None,g,1,0.5699642920003498,209.08883207200006,None,209.08883207200006,None,209.08883207200006,None,209.72182576099976,None,209.72182576099976,None,209.72182576099976,None,209.72182576099976,None,,,,,,,,,,,,,,,,,,,,,,,,,,,,,,,,,,,,,,,,,,,,001,173,2020_Feb_27_0934,spring_faces,3.1.5,59.9445352397029,
condition files/Stage0a.xlsx,0a,alpha,none,h,"['h', 'g']","['Chess', 'Go']","[0, 0.5]","[0, 0]",1,0,0,2,2,2,0,1,1,0,,,,,,,,,,,,,,,,,,,,,,,,,,,,,,,,,,,,,,,,,,,,,,,,,,,,,,,,,,,,,,,211.68862712200007,None,211.68862712200007,None,211.68862712200007,None,h,1,0.45234646000017165,213.22243336199972,None,213.22243336199972,None,213.22243336199972,None,213.73887640799967,None,213.73887640799967,None,213.73887640799967,None,213.73887640799967,None,,,,,,,,,,,,,,,,,,,,,,,,,,,,,,,,,,,,,,,,,,,,001,173,2020_Feb_27_0934,spring_faces,3.1.5,59.9445352397029,
condition files/Stage0a.xlsx,0a,alpha,none,h,"['h', 'g']","['Chess', 'Go']","[0, 0.5]","[0, 0]",1,0,0,3,3,3,0,0,0,0,,,,,,,,,,,,,,,,,,,,,,,,,,,,,,,,,,,,,,,,,,,,,,,,,,,,,,,,,,,,,,,215.72242442900006,None,215.72242442900006,None,215.72242442900006,None,g,0,0.4831600739998976,217.25563219900005,None,217.25563219900005,None,217.25563219900005,None,217.78901111799996,None,217.78901111799996,None,217.78901111799996,None,217.78901111799996,None,,,,,,,,,,,,,,,,,,,,,,,,,,,,,,,,,,,,,,,,,,,,001,173,2020_Feb_27_0934,spring_faces,3.1.5,59.9445352397029,
condition files/Stage0a.xlsx,0a,beta,none,g,"['h', 'g']","['Chess', 'Go']","[0, 0.5]","[0, 0]",1,0,0,3,3,3,0,1,1,1,,,,,,,,,,,,,,,,,,,,,,,,,,,,,,,,,,,,,,,,,,,,,,,,,,,,,,,,,,,,,,,219.75522661800005,None,219.75522661800005,None,219.75522661800005,None,g,1,0.8662882109997554,221.28847532400005,None,221.28847532400005,None,221.28847532400005,None,222.20578248099991,None,222.20578248099991,None,222.20578248099991,None,222.20578248099991,None,,,,,,,,,,,,,,,,,,,,,,,,,,,,,,,,,,,,,,,,,,,,001,173,2020_Feb_27_0934,spring_faces,3.1.5,59.9445352397029,
condition files/Stage0a.xlsx,0a,alpha,none,h,"['h', 'g']","['Chess', 'Go']","[0, 0.5]","[0, 0]",1,0,0,4,4,4,0,0,0,0,,,,,,,,,,,,,,,,,,,,,,,,,,,,,,,,,,,,,,,,,,,,,,,,,,,,,,,,,,,,,,,224.18903622599964,None,224.18903622599964,None,224.18903622599964,None,h,1,0.592574187000082,225.72222814099996,None,225.72222814099996,None,225.72222814099996,None,226.37183133200006,None,226.37183133200006,None,226.37183133200006,None,226.37183133200006,None,,,,,,,,,,,,,,,,,,,,,,,,,,,,,,,,,,,,,,,,,,,,001,173,2020_Feb_27_0934,spring_faces,3.1.5,59.9445352397029,
condition files/Stage0a.xlsx,0a,beta,none,g,"['h', 'g']","['Chess', 'Go']","[0, 0.5]","[0, 0]",1,0,0,4,4,4,0,1,1,1,,,,,,,,,,,,,,,,,,,,,,,,,,,,,,,,,,,,,,,,,,,,,,,,,,,,,,,,,,,,,,,228.33854129099973,None,228.33854129099973,None,228.33854129099973,None,g,1,0.714980659000048,229.8718223609999,None,229.8718223609999,None,229.8718223609999,None,230.63822867999988,None,230.63822867999988,None,230.63822867999988,None,230.63822867999988,None,,,,,,,,,,,,,,,,,,,,,,,,,,,,,,,,,,,,,,,,,,,,001,173,2020_Feb_27_0934,spring_faces,3.1.5,59.9445352397029,
condition files/Stage0a.xlsx,0a,alpha,none,h,"['h', 'g']","['Chess', 'Go']","[0, 0.5]","[0, 0]",1,0,0,5,5,5,0,0,0,0,,,,,,,,,,,,,,,,,,,,,,,,,,,,,,,,,,,,,,,,,,,,,,,,,,,,,,,,,,,,,,,232.6220513909998,None,232.6220513909998,None,232.6220513909998,None,h,1,0.6721231310002622,234.15466143999993,None,234.15466143999993,None,234.15466143999993,None,234.88847629999964,None,234.88847629999964,None,234.88847629999964,None,234.88847629999964,None,,,,,,,,,,,,,,,,,,,,,,,,,,,,,,,,,,,,,,,,,,,,001,173,2020_Feb_27_0934,spring_faces,3.1.5,59.9445352397029,
condition files/Stage0a.xlsx,0a,beta,none,g,"['h', 'g']","['Chess', 'Go']","[0, 0.5]","[0, 0]",1,0,0,5,5,5,0,1,1,1,,,,,,,,,,,,,,,,,,,,,,,,,,,,,,,,,,,,,,,,,,,,,,,,,,,,,,,,,,,,,,,236.85515925599975,None,236.85515925599975,None,236.85515925599975,None,g,1,0.8699438700000428,238.3888431309997,None,238.3888431309997,None,238.3888431309997,None,239.32237752399988,None,239.32237752399988,None,239.32237752399988,None,239.32237752399988,None,,,,,,,,,,,,,,,,,,,,,,,,,,,,,,,,,,,,,,,,,,,,001,173,2020_Feb_27_0934,spring_faces,3.1.5,59.9445352397029,
condition files/Stage0b_1.xlsx,0b,none,beta,g,"['h', 'g']","['Chess', 'Go']","[-0.15, 0.5]","[0.15, 0.5]",0,1,0,6,6,6,0,0,0,1,,,,,,,,,,,,,,,,,,,,,,,,,,,,,,,,,,,,,,,,,,,,,,,,,,,,,,,,,,,,,,,241.30524072399976,None,241.30524072399976,None,241.30524072399976,None,g,1,0.8352913239996269,242.855442777,None,242.855442777,None,242.855442777,None,243.75552970599983,None,243.75552970599983,None,243.75552970599983,None,243.75552970599983,None,,,,,,,,,,,,,,,,,,,,,,,,,,,,,,,,,,,,,,,,,,,,001,173,2020_Feb_27_0934,spring_faces,3.1.5,59.9445352397029,
condition files/Stage0b_1.xlsx,0b,alpha,none,h,"['h', 'g']","['Chess', 'Go']","[-0.15, 0.5]","[0.15, 0.5]",1,0,0,6,6,6,0,1,1,0,,,,,,,,,,,,,,,,,,,,,,,,,,,,,,,,,,,,,,,,,,,,,,,,,,,,,,,,,,,,,,,245.72202113000003,None,245.72202113000003,None,245.72202113000003,None,h,1,0.9742635940001492,247.26052754800003,None,247.26052754800003,None,247.26052754800003,None,248.2899859629997,None,248.2899859629997,None,248.2899859629997,None,248.2899859629997,None,,,,,,,,,,,,,,,,,,,,,,,,,,,,,,,,,,,,,,,,,,,,001,173,2020_Feb_27_0934,spring_faces,3.1.5,59.9445352397029,
condition files/Stage0b_2.xlsx,0b,beta,none,g,"['h', 'g']","['Chess', 'Go']","[-0.15, 0.5]","[0.15, 0.5]",1,0,0,7,7,7,0,0,0,1,,,,,,,,,,,,,,,,,,,,,,,,,,,,,,,,,,,,,,,,,,,,,,,,,,,,,,,,,,,,,,,250.27202568099983,None,250.27202568099983,None,250.27202568099983,None,g,1,0.6531487739998738,251.80563708,None,251.80563708,None,251.80563708,None,252.522121298,None,252.522121298,None,252.522121298,None,252.522121298,None,,,,,,,,,,,,,,,,,,,,,,,,,,,,,,,,,,,,,,,,,,,,001,173,2020_Feb_27_0934,spring_faces,3.1.5,59.9445352397029,
condition files/Stage0b_2.xlsx,0b,none,alpha,h,"['h', 'g']","['Chess', 'Go']","[-0.15, 0.5]","[0.15, 0.5]",0,1,0,7,7,7,0,1,1,0,,,,,,,,,,,,,,,,,,,,,,,,,,,,,,,,,,,,,,,,,,,,,,,,,,,,,,,,,,,,,,,254.48829092899996,None,254.48829092899996,None,254.48829092899996,None,h,1,0.560068030000366,256.026719255,None,256.026719255,None,256.026719255,None,256.64090286300006,None,256.64090286300006,None,256.64090286300006,None,256.64090286300006,None,,,,,,,,,,,,,,,,,,,,,,,,,,,,,,,,,,,,,,,,,,,,001,173,2020_Feb_27_0934,spring_faces,3.1.5,59.9445352397029,
condition files/Stage0b_1.xlsx,0b,none,beta,g,"['h', 'g']","['Chess', 'Go']","[-0.15, 0.5]","[0.15, 0.5]",0,1,0,8,8,8,0,0,0,1,,,,,,,,,,,,,,,,,,,,,,,,,,,,,,,,,,,,,,,,,,,,,,,,,,,,,,,,,,,,,,,258.6221156739998,None,258.6221156739998,None,258.6221156739998,None,g,1,0.6070187079999414,260.1558311959998,None,260.1558311959998,None,260.1558311959998,None,260.82149956700005,None,260.82149956700005,None,260.82149956700005,None,260.82149956700005,None,,,,,,,,,,,,,,,,,,,,,,,,,,,,,,,,,,,,,,,,,,,,001,173,2020_Feb_27_0934,spring_faces,3.1.5,59.9445352397029,
condition files/Stage0b_1.xlsx,0b,alpha,none,h,"['h', 'g']","['Chess', 'Go']","[-0.15, 0.5]","[0.15, 0.5]",1,0,0,8,8,8,0,1,1,0,,,,,,,,,,,,,,,,,,,,,,,,,,,,,,,,,,,,,,,,,,,,,,,,,,,,,,,,,,,,,,,262.7884991189999,None,262.7884991189999,None,262.7884991189999,None,h,1,0.8403660050003054,264.33848456999976,None,264.33848456999976,None,264.33848456999976,None,265.24127268999973,None,265.24127268999973,None,265.24127268999973,None,265.24127268999973,None,,,,,,,,,,,,,,,,,,,,,,,,,,,,,,,,,,,,,,,,,,,,001,173,2020_Feb_27_0934,spring_faces,3.1.5,59.9445352397029,
condition files/Stage0b_2.xlsx,0b,beta,none,g,"['h', 'g']","['Chess', 'Go']","[-0.15, 0.5]","[0.15, 0.5]",1,0,0,9,9,9,0,0,0,1,,,,,,,,,,,,,,,,,,,,,,,,,,,,,,,,,,,,,,,,,,,,,,,,,,,,,,,,,,,,,,,267.22190954300004,None,267.22190954300004,None,267.22190954300004,None,g,1,0.9515507060000346,268.7552439440001,None,268.7552439440001,None,268.7552439440001,None,269.7721562070001,None,269.7721562070001,None,269.7721562070001,None,269.7721562070001,None,,,,,,,,,,,,,,,,,,,,,,,,,,,,,,,,,,,,,,,,,,,,001,173,2020_Feb_27_0934,spring_faces,3.1.5,59.9445352397029,
condition files/Stage0b_2.xlsx,0b,none,alpha,h,"['h', 'g']","['Chess', 'Go']","[-0.15, 0.5]","[0.15, 0.5]",0,1,0,9,9,9,0,1,1,0,,,,,,,,,,,,,,,,,,,,,,,,,,,,,,,,,,,,,,,,,,,,,,,,,,,,,,,,,,,,,,,271.73852759099964,None,271.73852759099964,None,271.73852759099964,None,h,1,0.8337947109998822,273.28895329399984,None,273.28895329399984,None,273.28895329399984,None,274.19410814799994,None,274.19410814799994,None,274.19410814799994,None,274.19410814799994,None,,,,,,,,,,,,,,,,,,,,,,,,,,,,,,,,,,,,,,,,,,,,001,173,2020_Feb_27_0934,spring_faces,3.1.5,59.9445352397029,
condition files/Stage0b_1.xlsx,0b,none,beta,g,"['h', 'g']","['Chess', 'Go']","[-0.15, 0.5]","[0.15, 0.5]",0,1,0,10,10,10,0,0,0,1,,,,,,,,,,,,,,,,,,,,,,,,,,,,,,,,,,,,,,,,,,,,,,,,,,,,,,,,,,,,,,,276.17222985599983,None,276.17222985599983,None,276.17222985599983,None,g,1,0.6739875849998498,277.70486558799985,None,277.70486558799985,None,277.70486558799985,None,278.43833750999966,None,278.43833750999966,None,278.43833750999966,None,278.43833750999966,None,,,,,,,,,,,,,,,,,,,,,,,,,,,,,,,,,,,,,,,,,,,,001,173,2020_Feb_27_0934,spring_faces,3.1.5,59.9445352397029,
condition files/Stage0b_1.xlsx,0b,alpha,none,h,"['h', 'g']","['Chess', 'Go']","[-0.15, 0.5]","[0.15, 0.5]",1,0,0,10,10,10,0,1,1,0,,,,,,,,,,,,,,,,,,,,,,,,,,,,,,,,,,,,,,,,,,,,,,,,,,,,,,,,,,,,,,,280.4042653050001,None,280.4042653050001,None,280.4042653050001,None,h,1,0.805906376999701,281.94095758699996,None,281.94095758699996,None,281.94095758699996,None,282.8095094639998,None,282.8095094639998,None,282.8095094639998,None,282.8095094639998,None,,,,,,,,,,,,,,,,,,,,,,,,,,,,,,,,,,,,,,,,,,,,001,173,2020_Feb_27_0934,spring_faces,3.1.5,59.9445352397029,
condition files/Stage0b_2.xlsx,0b,none,alpha,h,"['h', 'g']","['Chess', 'Go']","[-0.15, 0.5]","[0.15, 0.5]",0,1,0,11,11,11,0,0,0,0,,,,,,,,,,,,,,,,,,,,,,,,,,,,,,,,,,,,,,,,,,,,,,,,,,,,,,,,,,,,,,,284.78851580699984,None,284.78851580699984,None,284.78851580699984,None,h,1,0.7926057329996183,286.32219770699976,None,286.32219770699976,None,286.32219770699976,None,287.17193176699993,None,287.17193176699993,None,287.17193176699993,None,287.17193176699993,None,,,,,,,,,,,,,,,,,,,,,,,,,,,,,,,,,,,,,,,,,,,,001,173,2020_Feb_27_0934,spring_faces,3.1.5,59.9445352397029,
condition files/Stage0b_2.xlsx,0b,beta,none,g,"['h', 'g']","['Chess', 'Go']","[-0.15, 0.5]","[0.15, 0.5]",1,0,0,11,11,11,0,1,1,1,,,,,,,,,,,,,,,,,,,,,,,,,,,,,,,,,,,,,,,,,,,,,,,,,,,,,,,,,,,,,,,289.1385620179999,None,289.1385620179999,None,289.1385620179999,None,g,1,0.6188942220001081,290.67186289799974,None,290.67186289799974,None,290.67186289799974,None,291.354811361,None,291.354811361,None,291.354811361,None,291.354811361,None,,,,,,,,,,,,,,,,,,,,,,,,,,,,,,,,,,,,,,,,,,,,001,173,2020_Feb_27_0934,spring_faces,3.1.5,59.9445352397029,
condition files/Stage0c_1.xlsx,0c,beta,theta,g,"['h', 'g']","['Chess', 'Go']","[-0.15, 0.5]","[0.15, 0.5]",1,1,0,12,12,12,0,0,0,2,,,,,,,,,,,,,,,,,,,,,,,,,,,,,,,,,,,,,,,,,,,,,,,,,,,,,,,,,,,,,,,293.33830509499967,None,293.33830509499967,None,293.33830509499967,None,g,1,1.6343282140001065,294.87243262899983,None,294.87243262899983,None,294.87243262899983,None,296.57221169900004,None,296.57221169900004,None,296.57221169900004,None,296.57221169900004,None,,,,,,,,,,,,,,,,,,,,,,,,,,,,,,,,,,,,,,,,,,,,001,173,2020_Feb_27_0934,spring_faces,3.1.5,59.9445352397029,
condition files/Stage0c_1.xlsx,0c,phi,beta,g,"['h', 'g']","['Chess', 'Go']","[-0.15, 0.5]","[0.15, 0.5]",1,1,0,12,12,12,0,1,1,3,,,,,,,,,,,,,,,,,,,,,,,,,,,,,,,,,,,,,,,,,,,,,,,,,,,,,,,,,,,,,,,298.53862497599994,None,298.53862497599994,None,298.53862497599994,None,g,1,1.2029037100001005,300.07189756599973,None,300.07189756599973,None,300.07189756599973,None,301.3385987749998,None,301.3385987749998,None,301.3385987749998,None,301.3385987749998,None,,,,,,,,,,,,,,,,,,,,,,,,,,,,,,,,,,,,,,,,,,,,001,173,2020_Feb_27_0934,spring_faces,3.1.5,59.9445352397029,
condition files/Stage0c_1.xlsx,0c,theta,alpha,h,"['h', 'g']","['Chess', 'Go']","[-0.15, 0.5]","[0.15, 0.5]",1,1,0,12,12,12,0,2,2,0,,,,,,,,,,,,,,,,,,,,,,,,,,,,,,,,,,,,,,,,,,,,,,,,,,,,,,,,,,,,,,,303.30495008499975,None,303.30495008499975,None,303.30495008499975,None,h,1,0.7401260880001246,304.838651177,None,304.838651177,None,304.838651177,None,305.6383451309998,None,305.6383451309998,None,305.6383451309998,None,305.6383451309998,None,,,,,,,,,,,,,,,,,,,,,,,,,,,,,,,,,,,,,,,,,,,,001,173,2020_Feb_27_0934,spring_faces,3.1.5,59.9445352397029,
condition files/Stage0c_1.xlsx,0c,alpha,phi,h,"['h', 'g']","['Chess', 'Go']","[-0.15, 0.5]","[0.15, 0.5]",1,1,0,12,12,12,0,3,3,1,,,,,,,,,,,,,,,,,,,,,,,,,,,,,,,,,,,,,,,,,,,,,,,,,,,,,,,,,,,,,,,307.60519477399976,None,307.60519477399976,None,307.60519477399976,None,h,1,1.1764160399998218,309.1383721709999,None,309.1383721709999,None,309.1383721709999,None,310.37207191499965,None,310.37207191499965,None,310.37207191499965,None,310.37207191499965,None,,,,,,,,,,,,,,,,,,,,,,,,,,,,,,,,,,,,,,,,,,,,001,173,2020_Feb_27_0934,spring_faces,3.1.5,59.9445352397029,
condition files/Stage0c_2.xlsx,0c,theta,beta,g,"['h', 'g']","['Chess', 'Go']","[-0.15, 0.5]","[0.15, 0.5]",1,1,0,13,13,13,0,0,0,2,,,,,,,,,,,,,,,,,,,,,,,,,,,,,,,,,,,,,,,,,,,,,,,,,,,,,,,,,,,,,,,312.35511056099995,None,312.35511056099995,None,312.35511056099995,None,g,1,0.9704337570001371,313.8883725769997,None,313.8883725769997,None,313.8883725769997,None,314.9219498309999,None,314.9219498309999,None,314.9219498309999,None,314.9219498309999,None,,,,,,,,,,,,,,,,,,,,,,,,,,,,,,,,,,,,,,,,,,,,001,173,2020_Feb_27_0934,spring_faces,3.1.5,59.9445352397029,
condition files/Stage0c_2.xlsx,0c,beta,phi,g,"['h', 'g']","['Chess', 'Go']","[-0.15, 0.5]","[0.15, 0.5]",1,1,0,13,13,13,0,1,1,3,,,,,,,,,,,,,,,,,,,,,,,,,,,,,,,,,,,,,,,,,,,,,,,,,,,,,,,,,,,,,,,316.88868408200005,None,316.88868408200005,None,316.88868408200005,None,g,1,1.3967501839997567,318.4221411509998,None,318.4221411509998,None,318.4221411509998,None,319.8571342539999,None,319.8571342539999,None,319.8571342539999,None,319.8571342539999,None,,,,,,,,,,,,,,,,,,,,,,,,,,,,,,,,,,,,,,,,,,,,001,173,2020_Feb_27_0934,spring_faces,3.1.5,59.9445352397029,
condition files/Stage0c_2.xlsx,0c,phi,alpha,h,"['h', 'g']","['Chess', 'Go']","[-0.15, 0.5]","[0.15, 0.5]",1,1,0,13,13,13,0,2,2,1,,,,,,,,,,,,,,,,,,,,,,,,,,,,,,,,,,,,,,,,,,,,,,,,,,,,,,,,,,,,,,,321.83805550199986,None,321.83805550199986,None,321.83805550199986,None,h,1,1.1350409319998107,323.3717185639998,None,323.3717185639998,None,323.3717185639998,None,324.5719462349998,None,324.5719462349998,None,324.5719462349998,None,324.5719462349998,None,,,,,,,,,,,,,,,,,,,,,,,,,,,,,,,,,,,,,,,,,,,,001,173,2020_Feb_27_0934,spring_faces,3.1.5,59.9445352397029,
condition files/Stage0c_2.xlsx,0c,alpha,theta,h,"['h', 'g']","['Chess', 'Go']","[-0.15, 0.5]","[0.15, 0.5]",1,1,0,13,13,13,0,3,3,0,,,,,,,,,,,,,,,,,,,,,,,,,,,,,,,,,,,,,,,,,,,,,,,,,,,,,,,,,,,,,,,326.5385692199998,None,326.5385692199998,None,326.5385692199998,None,g,0,1.2186840230001508,328.0721006429999,None,328.0721006429999,None,328.0721006429999,None,329.34109121599977,None,329.34109121599977,None,329.34109121599977,None,329.34109121599977,None,,,,,,,,,,,,,,,,,,,,,,,,,,,,,,,,,,,,,,,,,,,,001,173,2020_Feb_27_0934,spring_faces,3.1.5,59.9445352397029,
condition files/Stage0c_1.xlsx,0c,beta,theta,g,"['h', 'g']","['Chess', 'Go']","[-0.15, 0.5]","[0.15, 0.5]",1,1,0,14,14,14,0,0,0,2,,,,,,,,,,,,,,,,,,,,,,,,,,,,,,,,,,,,,,,,,,,,,,,,,,,,,,,,,,,,,,,331.33894536599973,None,331.33894536599973,None,331.33894536599973,None,g,1,1.5706607209999675,332.87214279599993,None,332.87214279599993,None,332.87214279599993,None,334.50539891399967,None,334.50539891399967,None,334.50539891399967,None,334.50539891399967,None,,,,,,,,,,,,,,,,,,,,,,,,,,,,,,,,,,,,,,,,,,,,001,173,2020_Feb_27_0934,spring_faces,3.1.5,59.9445352397029,
condition files/Stage0c_1.xlsx,0c,phi,beta,g,"['h', 'g']","['Chess', 'Go']","[-0.15, 0.5]","[0.15, 0.5]",1,1,0,14,14,14,0,1,1,3,,,,,,,,,,,,,,,,,,,,,,,,,,,,,,,,,,,,,,,,,,,,,,,,,,,,,,,,,,,,,,,336.4716320759999,None,336.4716320759999,None,336.4716320759999,None,g,1,2.3738312670002415,338.00494110599993,None,338.00494110599993,None,338.00494110599993,None,340.4235021579998,None,340.4235021579998,None,340.4235021579998,None,340.4235021579998,None,,,,,,,,,,,,,,,,,,,,,,,,,,,,,,,,,,,,,,,,,,,,001,173,2020_Feb_27_0934,spring_faces,3.1.5,59.9445352397029,
condition files/Stage0c_1.xlsx,0c,theta,alpha,h,"['h', 'g']","['Chess', 'Go']","[-0.15, 0.5]","[0.15, 0.5]",1,1,0,14,14,14,0,2,2,0,,,,,,,,,,,,,,,,,,,,,,,,,,,,,,,,,,,,,,,,,,,,,,,,,,,,,,,,,,,,,,,342.4053092889999,None,342.4053092889999,None,342.4053092889999,None,h,1,1.4483410820002973,343.93843419799987,None,343.93843419799987,None,343.93843419799987,None,345.4385834939999,None,345.4385834939999,None,345.4385834939999,None,345.4385834939999,None,,,,,,,,,,,,,,,,,,,,,,,,,,,,,,,,,,,,,,,,,,,,001,173,2020_Feb_27_0934,spring_faces,3.1.5,59.9445352397029,
condition files/Stage0c_1.xlsx,0c,alpha,phi,h,"['h', 'g']","['Chess', 'Go']","[-0.15, 0.5]","[0.15, 0.5]",1,1,0,14,14,14,0,3,3,1,,,,,,,,,,,,,,,,,,,,,,,,,,,,,,,,,,,,,,,,,,,,,,,,,,,,,,,,,,,,,,,347.40536421199977,None,347.40536421199977,None,347.40536421199977,None,h,1,2.0326249390000157,348.9381627499997,None,348.9381627499997,None,348.9381627499997,None,351.00775515099986,None,351.00775515099986,None,351.00775515099986,None,351.00775515099986,None,,,,,,,,,,,,,,,,,,,,,,,,,,,,,,,,,,,,,,,,,,,,001,173,2020_Feb_27_0934,spring_faces,3.1.5,59.9445352397029,
condition files/Stage0c_2.xlsx,0c,phi,alpha,h,"['h', 'g']","['Chess', 'Go']","[-0.15, 0.5]","[0.15, 0.5]",1,1,0,15,15,15,0,0,0,1,,,,,,,,,,,,,,,,,,,,,,,,,,,,,,,,,,,,,,,,,,,,,,,,,,,,,,,,,,,,,,,353.0052641279999,None,353.0052641279999,None,353.0052641279999,None,h,1,1.4558611900001779,354.53895130599994,None,354.53895130599994,None,354.53895130599994,None,356.04001734099984,None,356.04001734099984,None,356.04001734099984,None,356.04001734099984,None,,,,,,,,,,,,,,,,,,,,,,,,,,,,,,,,,,,,,,,,,,,,001,173,2020_Feb_27_0934,spring_faces,3.1.5,59.9445352397029,
condition files/Stage0c_2.xlsx,0c,theta,beta,g,"['h', 'g']","['Chess', 'Go']","[-0.15, 0.5]","[0.15, 0.5]",1,1,0,15,15,15,0,1,1,2,,,,,,,,,,,,,,,,,,,,,,,,,,,,,,,,,,,,,,,,,,,,,,,,,,,,,,,,,,,,,,,358.02183105899985,None,358.02183105899985,None,358.02183105899985,None,g,1,1.927569505000065,359.5552257639997,None,359.5552257639997,None,359.5552257639997,None,361.5388714349997,None,361.5388714349997,None,361.5388714349997,None,361.5388714349997,None,,,,,,,,,,,,,,,,,,,,,,,,,,,,,,,,,,,,,,,,,,,,001,173,2020_Feb_27_0934,spring_faces,3.1.5,59.9445352397029,
condition files/Stage0c_2.xlsx,0c,beta,phi,g,"['h', 'g']","['Chess', 'Go']","[-0.15, 0.5]","[0.15, 0.5]",1,1,0,15,15,15,0,2,2,3,,,,,,,,,,,,,,,,,,,,,,,,,,,,,,,,,,,,,,,,,,,,,,,,,,,,,,,,,,,,,,,363.505215702,None,363.505215702,None,363.505215702,None,g,1,1.3078796370000418,365.0389613839998,None,365.0389613839998,None,365.0389613839998,None,366.3891410729998,None,366.3891410729998,None,366.3891410729998,None,366.3891410729998,None,,,,,,,,,,,,,,,,,,,,,,,,,,,,,,,,,,,,,,,,,,,,001,173,2020_Feb_27_0934,spring_faces,3.1.5,59.9445352397029,
condition files/Stage0c_2.xlsx,0c,alpha,theta,h,"['h', 'g']","['Chess', 'Go']","[-0.15, 0.5]","[0.15, 0.5]",1,1,0,15,15,15,0,3,3,0,,,,,,,,,,,,,,,,,,,,,,,,,,,,,,,,,,,,,,,,,,,,,,,,,,,,,,,,,,,,,,,368.37203230099976,None,368.37203230099976,None,368.37203230099976,None,h,1,1.1934806110002683,369.9053703479999,None,369.9053703479999,None,369.9053703479999,None,371.15509149499985,None,371.15509149499985,None,371.15509149499985,None,371.15509149499985,None,,,,,,,,,,,,,,,,,,,,,,,,,,,,,,,,,,,,,,,,,,,,001,173,2020_Feb_27_0934,spring_faces,3.1.5,59.9445352397029,
condition files/Stage0c_1.xlsx,0c,theta,alpha,h,"['h', 'g']","['Chess', 'Go']","[-0.15, 0.5]","[0.15, 0.5]",1,1,0,16,16,16,0,0,0,0,,,,,,,,,,,,,,,,,,,,,,,,,,,,,,,,,,,,,,,,,,,,,,,,,,,,,,,,,,,,,,,373.13848292099965,None,373.13848292099965,None,373.13848292099965,None,h,1,1.5792588129997966,374.67152531500005,None,374.67152531500005,None,374.67152531500005,None,376.2881913460001,None,376.2881913460001,None,376.2881913460001,None,376.2881913460001,None,,,,,,,,,,,,,,,,,,,,,,,,,,,,,,,,,,,,,,,,,,,,001,173,2020_Feb_27_0934,spring_faces,3.1.5,59.9445352397029,
condition files/Stage0c_1.xlsx,0c,alpha,phi,h,"['h', 'g']","['Chess', 'Go']","[-0.15, 0.5]","[0.15, 0.5]",1,1,0,16,16,16,0,1,1,1,,,,,,,,,,,,,,,,,,,,,,,,,,,,,,,,,,,,,,,,,,,,,,,,,,,,,,,,,,,,,,,378.27195047199984,None,378.27195047199984,None,378.27195047199984,None,h,1,1.1653854349997346,379.80538789,None,379.80538789,None,379.80538789,None,381.00608968200004,None,381.00608968200004,None,381.00608968200004,None,381.00608968200004,None,,,,,,,,,,,,,,,,,,,,,,,,,,,,,,,,,,,,,,,,,,,,001,173,2020_Feb_27_0934,spring_faces,3.1.5,59.9445352397029,
condition files/Stage0c_1.xlsx,0c,beta,theta,g,"['h', 'g']","['Chess', 'Go']","[-0.15, 0.5]","[0.15, 0.5]",1,1,0,16,16,16,0,2,2,2,,,,,,,,,,,,,,,,,,,,,,,,,,,,,,,,,,,,,,,,,,,,,,,,,,,,,,,,,,,,,,,382.9883318389998,None,382.9883318389998,None,382.9883318389998,None,g,1,0.8326489500000207,384.52213625099967,None,384.52213625099967,None,384.52213625099967,None,385.4055248239997,None,385.4055248239997,None,385.4055248239997,None,385.4055248239997,None,,,,,,,,,,,,,,,,,,,,,,,,,,,,,,,,,,,,,,,,,,,,001,173,2020_Feb_27_0934,spring_faces,3.1.5,59.9445352397029,
condition files/Stage0c_1.xlsx,0c,phi,beta,g,"['h', 'g']","['Chess', 'Go']","[-0.15, 0.5]","[0.15, 0.5]",1,1,0,16,16,16,0,3,3,3,,,,,,,,,,,,,,,,,,,,,,,,,,,,,,,,,,,,,,,,,,,,,,,,,,,,,,,,,,,,,,,387.37191828000005,None,387.37191828000005,None,387.37191828000005,None,g,1,1.23353308500009,388.90521268099974,None,388.90521268099974,None,388.90521268099974,None,390.188896486,None,390.188896486,None,390.188896486,None,390.188896486,None,,,,,,,,,,,,,,,,,,,,,,,,,,,,,,,,,,,,,,,,,,,,001,173,2020_Feb_27_0934,spring_faces,3.1.5,59.9445352397029,
condition files/Stage0c_2.xlsx,0c,alpha,theta,h,"['h', 'g']","['Chess', 'Go']","[-0.15, 0.5]","[0.15, 0.5]",1,1,0,17,17,17,0,0,0,0,,,,,,,,,,,,,,,,,,,,,,,,,,,,,,,,,,,,,,,,,,,,,,,,,,,,,,,,,,,,,,,392.17209375799985,None,392.17209375799985,None,392.17209375799985,None,h,1,1.0575492959997064,393.70531166499995,None,393.70531166499995,None,393.70531166499995,None,394.82214036999994,None,394.82214036999994,None,394.82214036999994,None,394.82214036999994,None,,,,,,,,,,,,,,,,,,,,,,,,,,,,,,,,,,,,,,,,,,,,001,173,2020_Feb_27_0934,spring_faces,3.1.5,59.9445352397029,
condition files/Stage0c_2.xlsx,0c,phi,alpha,h,"['h', 'g']","['Chess', 'Go']","[-0.15, 0.5]","[0.15, 0.5]",1,1,0,17,17,17,0,1,1,1,,,,,,,,,,,,,,,,,,,,,,,,,,,,,,,,,,,,,,,,,,,,,,,,,,,,,,,,,,,,,,,396.78877336100004,None,396.78877336100004,None,396.78877336100004,None,h,1,1.032309024999904,398.322470994,None,398.322470994,None,398.322470994,None,399.3902046999997,None,399.3902046999997,None,399.3902046999997,None,399.3902046999997,None,,,,,,,,,,,,,,,,,,,,,,,,,,,,,,,,,,,,,,,,,,,,001,173,2020_Feb_27_0934,spring_faces,3.1.5,59.9445352397029,
condition files/Stage0c_2.xlsx,0c,beta,phi,g,"['h', 'g']","['Chess', 'Go']","[-0.15, 0.5]","[0.15, 0.5]",1,1,0,17,17,17,0,2,2,3,,,,,,,,,,,,,,,,,,,,,,,,,,,,,,,,,,,,,,,,,,,,,,,,,,,,,,,,,,,,,,,401.371842773,None,401.371842773,None,401.371842773,None,g,1,0.9293454849998852,402.905389605,None,402.905389605,None,402.905389605,None,403.88831470800005,None,403.88831470800005,None,403.88831470800005,None,403.88831470800005,None,,,,,,,,,,,,,,,,,,,,,,,,,,,,,,,,,,,,,,,,,,,,001,173,2020_Feb_27_0934,spring_faces,3.1.5,59.9445352397029,
condition files/Stage0c_2.xlsx,0c,theta,beta,g,"['h', 'g']","['Chess', 'Go']","[-0.15, 0.5]","[0.15, 0.5]",1,1,0,17,17,17,0,3,3,2,,,,,,,,,,,,,,,,,,,,,,,,,,,,,,,,,,,,,,,,,,,,,,,,,,,,,,,,,,,,,,,405.85689401399986,None,405.85689401399986,None,405.85689401399986,None,g,1,1.5023415430000568,407.38845359499965,None,407.38845359499965,None,407.38845359499965,None,408.93997321000006,None,408.93997321000006,None,408.93997321000006,None,408.93997321000006,None,,,,,,,,,,,,,,,,,,,,,,,,,,,,,,,,,,,,,,,,,,,,001,173,2020_Feb_27_0934,spring_faces,3.1.5,59.9445352397029,
,,,,,,,,,,,,,,,,,,,,,,,,,,,,,,,,,,,,,,,,,,,,,,,,,,,,,,,,,,,,,,,,,,,,,,,,,,,,,,,,,,,,,,,,,,,,,,,,,,,,,,,,410.9390471239999,None,space,6.264257543999975,415.93854176199966,None,,,,,,,,,,,,,,,,,,,,,,,,,,,,,,,,,,,,,,001,173,2020_Feb_27_0934,spring_faces,3.1.5,59.9445352397029,
condition files/Stage1_1.xlsx,,B1,T2,c,"['c', 'm']","['Clue', 'Monopoly']","[-0.15, 0.5]","[0.15, 0.5]",1,1,,,,,,,,,0,0,0,0,0,0,0,1,,,,,,,,,,,,,,,,,,,,,,,,,,,,,,,,,,,,,,,,,,,,,,,,,,,,,,,422.2552367149997,None,422.2552367149997,None,422.2552367149997,None,m,0,6.060039047999908,423.83884880100004,None,423.83884880100004,None,423.83884880100004,None,429.971836229,None,429.971836229,None,429.971836229,None,429.971836229,None,,,,,,,415.93854176199966,None,,,,,,,,,,,,,,,,,,,,,,,,,,,,,,,,,,,,001,173,2020_Feb_27_0934,spring_faces,3.1.5,59.9445352397029,
condition files/Stage1_1.xlsx,,T4,B3,m,"['c', 'm']","['Clue', 'Monopoly']","[-0.15, 0.5]","[0.15, 0.5]",1,1,,,,,,,,,0,0,0,0,0,1,1,6,,,,,,,,,,,,,,,,,,,,,,,,,,,,,,,,,,,,,,,,,,,,,,,,,,,,,,,431.92162223199966,None,431.92162223199966,None,431.92162223199966,None,m,1,1.7545299340004021,433.4722590739998,None,433.4722590739998,None,433.4722590739998,None,435.28832700099974,None,435.28832700099974,None,435.28832700099974,None,435.28832700099974,None,,,,,,,,,,,,,,,,,,,,,,,,,,,,,,,,,,,,,,,,,,,,001,173,2020_Feb_27_0934,spring_faces,3.1.5,59.9445352397029,
condition files/Stage1_1.xlsx,,T1,B1,c,"['c', 'm']","['Clue', 'Monopoly']","[-0.15, 0.5]","[0.15, 0.5]",1,1,,,,,,,,,0,0,0,0,0,2,2,0,,,,,,,,,,,,,,,,,,,,,,,,,,,,,,,,,,,,,,,,,,,,,,,,,,,,,,,437.25520459599966,None,437.25520459599966,None,437.25520459599966,None,m,0,2.3566510189998553,438.82219745899965,None,438.82219745899965,None,438.82219745899965,None,441.2555407340001,None,441.2555407340001,None,441.2555407340001,None,441.2555407340001,None,,,,,,,,,,,,,,,,,,,,,,,,,,,,,,,,,,,,,,,,,,,,001,173,2020_Feb_27_0934,spring_faces,3.1.5,59.9445352397029,
condition files/Stage1_1.xlsx,,B3,T3,c,"['c', 'm']","['Clue', 'Monopoly']","[-0.15, 0.5]","[0.15, 0.5]",1,1,,,,,,,,,0,0,0,0,0,3,3,4,,,,,,,,,,,,,,,,,,,,,,,,,,,,,,,,,,,,,,,,,,,,,,,,,,,,,,,443.2052307419999,None,443.2052307419999,None,443.2052307419999,None,c,1,2.568761192999773,444.7379966839999,None,444.7379966839999,None,444.7379966839999,None,447.37177985499966,None,447.37177985499966,None,447.37177985499966,None,447.37177985499966,None,,,,,,,,,,,,,,,,,,,,,,,,,,,,,,,,,,,,,,,,,,,,001,173,2020_Feb_27_0934,spring_faces,3.1.5,59.9445352397029,
condition files/Stage1_1.xlsx,,T3,B4,c,"['c', 'm']","['Clue', 'Monopoly']","[-0.15, 0.5]","[0.15, 0.5]",1,1,,,,,,,,,0,0,0,0,0,4,4,5,,,,,,,,,,,,,,,,,,,,,,,,,,,,,,,,,,,,,,,,,,,,,,,,,,,,,,,449.33811609899976,None,449.33811609899976,None,449.33811609899976,None,c,1,1.9528708570001072,450.92192203700006,None,450.92192203700006,None,450.92192203700006,None,452.9388781570001,None,452.9388781570001,None,452.9388781570001,None,452.9388781570001,None,,,,,,,,,,,,,,,,,,,,,,,,,,,,,,,,,,,,,,,,,,,,001,173,2020_Feb_27_0934,spring_faces,3.1.5,59.9445352397029,
condition files/Stage1_1.xlsx,,T2,B2,m,"['c', 'm']","['Clue', 'Monopoly']","[-0.15, 0.5]","[0.15, 0.5]",1,1,,,,,,,,,0,0,0,0,0,5,5,3,,,,,,,,,,,,,,,,,,,,,,,,,,,,,,,,,,,,,,,,,,,,,,,,,,,,,,,454.9051822309998,None,454.9051822309998,None,454.9051822309998,None,c,0,4.259987865999847,456.43886299999986,None,456.43886299999986,None,456.43886299999986,None,460.77218966500004,None,460.77218966500004,None,460.77218966500004,None,460.77218966500004,None,,,,,,,,,,,,,,,,,,,,,,,,,,,,,,,,,,,,,,,,,,,,001,173,2020_Feb_27_0934,spring_faces,3.1.5,59.9445352397029,
condition files/Stage1_1.xlsx,,B2,T1,m,"['c', 'm']","['Clue', 'Monopoly']","[-0.15, 0.5]","[0.15, 0.5]",1,1,,,,,,,,,0,0,0,0,0,6,6,2,,,,,,,,,,,,,,,,,,,,,,,,,,,,,,,,,,,,,,,,,,,,,,,,,,,,,,,462.721875447,None,462.721875447,None,462.721875447,None,c,0,2.5553474690000257,464.25545906399975,None,464.25545906399975,None,464.25545906399975,None,466.87227605399994,None,466.87227605399994,None,466.87227605399994,None,466.87227605399994,None,,,,,,,,,,,,,,,,,,,,,,,,,,,,,,,,,,,,,,,,,,,,001,173,2020_Feb_27_0934,spring_faces,3.1.5,59.9445352397029,
condition files/Stage1_1.xlsx,,B4,T4,m,"['c', 'm']","['Clue', 'Monopoly']","[-0.15, 0.5]","[0.15, 0.5]",1,1,,,,,,,,,0,0,0,0,0,7,7,7,,,,,,,,,,,,,,,,,,,,,,,,,,,,,,,,,,,,,,,,,,,,,,,,,,,,,,,468.838185522,None,468.838185522,None,468.838185522,None,m,1,2.0393168740001784,470.3714722149998,None,470.3714722149998,None,470.3714722149998,None,472.4719598739998,None,472.4719598739998,None,472.4719598739998,None,472.4719598739998,None,,,,,,,,,,,,,,,,,,,,,,,,,,,,,,,,,,,,,,,,,,,,001,173,2020_Feb_27_0934,spring_faces,3.1.5,59.9445352397029,
condition files/Stage1_2.xlsx,,B1,T1,c,"['c', 'm']","['Clue', 'Monopoly']","[-0.15, 0.5]","[0.15, 0.5]",1,1,,,,,,,,,0,1,1,1,0,0,0,0,,,,,,,,,,,,,,,,,,,,,,,,,,,,,,,,,,,,,,,,,,,,,,,,,,,,,,,474.45535508600005,None,474.45535508600005,None,474.45535508600005,None,m,0,2.0701607980004155,475.98865566099994,None,475.98865566099994,None,475.98865566099994,None,478.12144585299984,None,478.12144585299984,None,478.12144585299984,None,478.12144585299984,None,,,,,,,,,,,,,,,,,,,,,,,,,,,,,,,,,,,,,,,,,,,,001,173,2020_Feb_27_0934,spring_faces,3.1.5,59.9445352397029,
condition files/Stage1_2.xlsx,,T1,B2,m,"['c', 'm']","['Clue', 'Monopoly']","[-0.15, 0.5]","[0.15, 0.5]",1,1,,,,,,,,,0,1,1,1,0,1,1,2,,,,,,,,,,,,,,,,,,,,,,,,,,,,,,,,,,,,,,,,,,,,,,,,,,,,,,,480.0885668189999,None,480.0885668189999,None,480.0885668189999,None,c,0,1.9404963530000714,481.6223719740001,None,481.6223719740001,None,481.6223719740001,None,483.62287929299964,None,483.62287929299964,None,483.62287929299964,None,483.62287929299964,None,,,,,,,,,,,,,,,,,,,,,,,,,,,,,,,,,,,,,,,,,,,,001,173,2020_Feb_27_0934,spring_faces,3.1.5,59.9445352397029,
condition files/Stage1_2.xlsx,,B3,T4,m,"['c', 'm']","['Clue', 'Monopoly']","[-0.15, 0.5]","[0.15, 0.5]",1,1,,,,,,,,,0,1,1,1,0,2,2,6,,,,,,,,,,,,,,,,,,,,,,,,,,,,,,,,,,,,,,,,,,,,,,,,,,,,,,,485.58803403499996,None,485.58803403499996,None,485.58803403499996,None,c,0,1.7370099859999755,487.121787821,None,487.121787821,None,487.121787821,None,488.92173698099987,None,488.92173698099987,None,488.92173698099987,None,488.92173698099987,None,,,,,,,,,,,,,,,,,,,,,,,,,,,,,,,,,,,,,,,,,,,,001,173,2020_Feb_27_0934,spring_faces,3.1.5,59.9445352397029,
condition files/Stage1_2.xlsx,,T2,B1,c,"['c', 'm']","['Clue', 'Monopoly']","[-0.15, 0.5]","[0.15, 0.5]",1,1,,,,,,,,,0,1,1,1,0,3,3,1,,,,,,,,,,,,,,,,,,,,,,,,,,,,,,,,,,,,,,,,,,,,,,,,,,,,,,,490.888541797,None,490.888541797,None,490.888541797,None,c,1,1.3007865009999477,492.4219626519998,None,492.4219626519998,None,492.4219626519998,None,493.80516445199964,None,493.80516445199964,None,493.80516445199964,None,493.80516445199964,None,,,,,,,,,,,,,,,,,,,,,,,,,,,,,,,,,,,,,,,,,,,,001,173,2020_Feb_27_0934,spring_faces,3.1.5,59.9445352397029,
condition files/Stage1_2.xlsx,,B2,T2,m,"['c', 'm']","['Clue', 'Monopoly']","[-0.15, 0.5]","[0.15, 0.5]",1,1,,,,,,,,,0,1,1,1,0,4,4,3,,,,,,,,,,,,,,,,,,,,,,,,,,,,,,,,,,,,,,,,,,,,,,,,,,,,,,,495.7546725789998,None,495.7546725789998,None,495.7546725789998,None,c,0,1.3781916279999677,497.2885642639999,None,497.2885642639999,None,497.2885642639999,None,498.7233290039999,None,498.7233290039999,None,498.7233290039999,None,498.7233290039999,None,,,,,,,,,,,,,,,,,,,,,,,,,,,,,,,,,,,,,,,,,,,,001,173,2020_Feb_27_0934,spring_faces,3.1.5,59.9445352397029,
condition files/Stage1_2.xlsx,,T4,B4,m,"['c', 'm']","['Clue', 'Monopoly']","[-0.15, 0.5]","[0.15, 0.5]",1,1,,,,,,,,,0,1,1,1,0,5,5,7,,,,,,,,,,,,,,,,,,,,,,,,,,,,,,,,,,,,,,,,,,,,,,,,,,,,,,,500.6880659899998,None,500.6880659899998,None,500.6880659899998,None,c,0,1.5643979199999194,502.23837730299965,None,502.23837730299965,None,502.23837730299965,None,503.85487054899977,None,503.85487054899977,None,503.85487054899977,None,503.85487054899977,None,,,,,,,,,,,,,,,,,,,,,,,,,,,,,,,,,,,,,,,,,,,,001,173,2020_Feb_27_0934,spring_faces,3.1.5,59.9445352397029,
condition files/Stage1_2.xlsx,,T3,B3,c,"['c', 'm']","['Clue', 'Monopoly']","[-0.15, 0.5]","[0.15, 0.5]",1,1,,,,,,,,,0,1,1,1,0,6,6,4,,,,,,,,,,,,,,,,,,,,,,,,,,,,,,,,,,,,,,,,,,,,,,,,,,,,,,,505.82185918100004,None,505.82185918100004,None,505.82185918100004,None,m,0,2.718969490999825,507.35583493800004,None,507.35583493800004,None,507.35583493800004,None,510.1406210700002,None,510.1406210700002,None,510.1406210700002,None,510.1406210700002,None,,,,,,,,,,,,,,,,,,,,,,,,,,,,,,,,,,,,,,,,,,,,001,173,2020_Feb_27_0934,spring_faces,3.1.5,59.9445352397029,
condition files/Stage1_2.xlsx,,B4,T3,c,"['c', 'm']","['Clue', 'Monopoly']","[-0.15, 0.5]","[0.15, 0.5]",1,1,,,,,,,,,0,1,1,1,0,7,7,5,,,,,,,,,,,,,,,,,,,,,,,,,,,,,,,,,,,,,,,,,,,,,,,,,,,,,,,512.1051598889994,None,512.1051598889994,None,512.1051598889994,None,c,1,0.9956381940000938,513.6391621079997,None,513.6391621079997,None,513.6391621079997,None,514.6883437419997,None,514.6883437419997,None,514.6883437419997,None,514.6883437419997,None,,,,,,,,,,,,,,,,,,,,,,,,,,,,,,,,,,,,,,,,,,,,001,173,2020_Feb_27_0934,spring_faces,3.1.5,59.9445352397029,
condition files/Stage1_1.xlsx,,B2,T1,m,"['c', 'm']","['Clue', 'Monopoly']","[-0.15, 0.5]","[0.15, 0.5]",1,1,,,,,,,,,0,2,2,2,0,0,0,2,,,,,,,,,,,,,,,,,,,,,,,,,,,,,,,,,,,,,,,,,,,,,,,,,,,,,,,516.6720285859997,None,516.6720285859997,None,516.6720285859997,None,m,1,1.3235033020000628,518.2073650329999,None,518.2073650329999,None,518.2073650329999,None,519.5909644999997,None,519.5909644999997,None,519.5909644999997,None,519.5909644999997,None,,,,,,,,,,,,,,,,,,,,,,,,,,,,,,,,,,,,,,,,,,,,001,173,2020_Feb_27_0934,spring_faces,3.1.5,59.9445352397029,
condition files/Stage1_1.xlsx,,T1,B1,c,"['c', 'm']","['Clue', 'Monopoly']","[-0.15, 0.5]","[0.15, 0.5]",1,1,,,,,,,,,0,2,2,2,0,1,1,0,,,,,,,,,,,,,,,,,,,,,,,,,,,,,,,,,,,,,,,,,,,,,,,,,,,,,,,521.5551681740003,None,521.5551681740003,None,521.5551681740003,None,c,1,1.9463557110002512,523.0884360939995,None,523.0884360939995,None,523.0884360939995,None,525.0890926770003,None,525.0890926770003,None,525.0890926770003,None,525.0890926770003,None,,,,,,,,,,,,,,,,,,,,,,,,,,,,,,,,,,,,,,,,,,,,001,173,2020_Feb_27_0934,spring_faces,3.1.5,59.9445352397029,
condition files/Stage1_1.xlsx,,B4,T4,m,"['c', 'm']","['Clue', 'Monopoly']","[-0.15, 0.5]","[0.15, 0.5]",1,1,,,,,,,,,0,2,2,2,0,2,2,7,,,,,,,,,,,,,,,,,,,,,,,,,,,,,,,,,,,,,,,,,,,,,,,,,,,,,,,527.0552490469995,None,527.0552490469995,None,527.0552490469995,None,m,1,1.8064677710008255,528.5884013399996,None,528.5884013399996,None,528.5884013399996,None,530.4579514849997,None,530.4579514849997,None,530.4579514849997,None,530.4579514849997,None,,,,,,,,,,,,,,,,,,,,,,,,,,,,,,,,,,,,,,,,,,,,001,173,2020_Feb_27_0934,spring_faces,3.1.5,59.9445352397029,
condition files/Stage1_1.xlsx,,T4,B3,m,"['c', 'm']","['Clue', 'Monopoly']","[-0.15, 0.5]","[0.15, 0.5]",1,1,,,,,,,,,0,2,2,2,0,3,3,6,,,,,,,,,,,,,,,,,,,,,,,,,,,,,,,,,,,,,,,,,,,,,,,,,,,,,,,532.4216722489996,None,532.4216722489996,None,532.4216722489996,None,m,1,2.9491986729999553,533.9575743720002,None,533.9575743720002,None,533.9575743720002,None,536.9717161519998,None,536.9717161519998,None,536.9717161519998,None,536.9717161519998,None,,,,,,,,,,,,,,,,,,,,,,,,,,,,,,,,,,,,,,,,,,,,001,173,2020_Feb_27_0934,spring_faces,3.1.5,59.9445352397029,
condition files/Stage1_1.xlsx,,B3,T3,c,"['c', 'm']","['Clue', 'Monopoly']","[-0.15, 0.5]","[0.15, 0.5]",1,1,,,,,,,,,0,2,2,2,0,4,4,4,,,,,,,,,,,,,,,,,,,,,,,,,,,,,,,,,,,,,,,,,,,,,,,,,,,,,,,538.9387179820001,None,538.9387179820001,None,538.9387179820001,None,c,1,2.307227934000366,540.4716504169996,None,540.4716504169996,None,540.4716504169996,None,542.8391161140003,None,542.8391161140003,None,542.8391161140003,None,542.8391161140003,None,,,,,,,,,,,,,,,,,,,,,,,,,,,,,,,,,,,,,,,,,,,,001,173,2020_Feb_27_0934,spring_faces,3.1.5,59.9445352397029,
condition files/Stage1_1.xlsx,,T3,B4,c,"['c', 'm']","['Clue', 'Monopoly']","[-0.15, 0.5]","[0.15, 0.5]",1,1,,,,,,,,,0,2,2,2,0,5,5,5,,,,,,,,,,,,,,,,,,,,,,,,,,,,,,,,,,,,,,,,,,,,,,,,,,,,,,,544.8054053800001,None,544.8054053800001,None,544.8054053800001,None,m,0,3.9271633170001223,546.3555945040002,None,546.3555945040002,None,546.3555945040002,None,550.3384481540002,None,550.3384481540002,None,550.3384481540002,None,550.3384481540002,None,,,,,,,,,,,,,,,,,,,,,,,,,,,,,,,,,,,,,,,,,,,,001,173,2020_Feb_27_0934,spring_faces,3.1.5,59.9445352397029,
condition files/Stage1_1.xlsx,,T2,B2,m,"['c', 'm']","['Clue', 'Monopoly']","[-0.15, 0.5]","[0.15, 0.5]",1,1,,,,,,,,,0,2,2,2,0,6,6,3,,,,,,,,,,,,,,,,,,,,,,,,,,,,,,,,,,,,,,,,,,,,,,,,,,,,,,,552.305207678,None,552.305207678,None,552.305207678,None,m,1,2.380302128999574,553.8384081159998,None,553.8384081159998,None,553.8384081159998,None,556.2886379469996,None,556.2886379469996,None,556.2886379469996,None,556.2886379469996,None,,,,,,,,,,,,,,,,,,,,,,,,,,,,,,,,,,,,,,,,,,,,001,173,2020_Feb_27_0934,spring_faces,3.1.5,59.9445352397029,
condition files/Stage1_1.xlsx,,B1,T2,c,"['c', 'm']","['Clue', 'Monopoly']","[-0.15, 0.5]","[0.15, 0.5]",1,1,,,,,,,,,0,2,2,2,0,7,7,1,,,,,,,,,,,,,,,,,,,,,,,,,,,,,,,,,,,,,,,,,,,,,,,,,,,,,,,558.238088302,None,558.238088302,None,558.238088302,None,c,1,1.9505718450000131,559.7722040499998,None,559.7722040499998,None,559.7722040499998,None,561.7896296049998,None,561.7896296049998,None,561.7896296049998,None,561.7896296049998,None,,,,,,,,,,,,,,,,,,,,,,,,,,,,,,,,,,,,,,,,,,,,001,173,2020_Feb_27_0934,spring_faces,3.1.5,59.9445352397029,
condition files/Stage1_2.xlsx,,T3,B3,c,"['c', 'm']","['Clue', 'Monopoly']","[-0.15, 0.5]","[0.15, 0.5]",1,1,,,,,,,,,0,3,3,3,0,0,0,4,,,,,,,,,,,,,,,,,,,,,,,,,,,,,,,,,,,,,,,,,,,,,,,,,,,,,,,563.7721335470001,None,563.7721335470001,None,563.7721335470001,None,m,0,1.8414785960003428,565.305407542,None,565.305407542,None,565.305407542,None,567.2054780009998,None,567.2054780009998,None,567.2054780009998,None,567.2054780009998,None,,,,,,,,,,,,,,,,,,,,,,,,,,,,,,,,,,,,,,,,,,,,001,173,2020_Feb_27_0934,spring_faces,3.1.5,59.9445352397029,
condition files/Stage1_2.xlsx,,T1,B2,m,"['c', 'm']","['Clue', 'Monopoly']","[-0.15, 0.5]","[0.15, 0.5]",1,1,,,,,,,,,0,3,3,3,0,1,1,2,,,,,,,,,,,,,,,,,,,,,,,,,,,,,,,,,,,,,,,,,,,,,,,,,,,,,,,569.1719665850001,None,569.1719665850001,None,569.1719665850001,None,m,1,1.0645946109998476,570.722198205,None,570.722198205,None,570.722198205,None,571.8382888179999,None,571.8382888179999,None,571.8382888179999,None,571.8382888179999,None,,,,,,,,,,,,,,,,,,,,,,,,,,,,,,,,,,,,,,,,,,,,001,173,2020_Feb_27_0934,spring_faces,3.1.5,59.9445352397029,
condition files/Stage1_2.xlsx,,B3,T4,m,"['c', 'm']","['Clue', 'Monopoly']","[-0.15, 0.5]","[0.15, 0.5]",1,1,,,,,,,,,0,3,3,3,0,2,2,6,,,,,,,,,,,,,,,,,,,,,,,,,,,,,,,,,,,,,,,,,,,,,,,,,,,,,,,573.8054033679996,None,573.8054033679996,None,573.8054033679996,None,m,1,1.2967649600004734,575.3380255569996,None,575.3380255569996,None,575.3380255569996,None,576.6889959659998,None,576.6889959659998,None,576.6889959659998,None,576.6889959659998,None,,,,,,,,,,,,,,,,,,,,,,,,,,,,,,,,,,,,,,,,,,,,001,173,2020_Feb_27_0934,spring_faces,3.1.5,59.9445352397029,
condition files/Stage1_2.xlsx,,B1,T1,c,"['c', 'm']","['Clue', 'Monopoly']","[-0.15, 0.5]","[0.15, 0.5]",1,1,,,,,,,,,0,3,3,3,0,3,3,0,,,,,,,,,,,,,,,,,,,,,,,,,,,,,,,,,,,,,,,,,,,,,,,,,,,,,,,578.6554571659995,None,578.6554571659995,None,578.6554571659995,None,m,0,0.8308948659996531,580.1880055669994,None,580.1880055669994,None,580.1880055669994,None,581.074458996,None,581.074458996,None,581.074458996,None,581.074458996,None,,,,,,,,,,,,,,,,,,,,,,,,,,,,,,,,,,,,,,,,,,,,001,173,2020_Feb_27_0934,spring_faces,3.1.5,59.9445352397029,
condition files/Stage1_2.xlsx,,B4,T3,c,"['c', 'm']","['Clue', 'Monopoly']","[-0.15, 0.5]","[0.15, 0.5]",1,1,,,,,,,,,0,3,3,3,0,4,4,5,,,,,,,,,,,,,,,,,,,,,,,,,,,,,,,,,,,,,,,,,,,,,,,,,,,,,,,583.0386180959999,None,583.0386180959999,None,583.0386180959999,None,c,1,7.086836630000107,584.5719793570001,None,584.5719793570001,None,584.5719793570001,None,591.721961787,None,591.721961787,None,591.721961787,None,591.721961787,None,,,,,,,,,,,,,,,,,,,,,,,,,,,,,,,,,,,,,,,,,,,,001,173,2020_Feb_27_0934,spring_faces,3.1.5,59.9445352397029,
condition files/Stage1_2.xlsx,,T4,B4,m,"['c', 'm']","['Clue', 'Monopoly']","[-0.15, 0.5]","[0.15, 0.5]",1,1,,,,,,,,,0,3,3,3,0,5,5,7,,,,,,,,,,,,,,,,,,,,,,,,,,,,,,,,,,,,,,,,,,,,,,,,,,,,,,,593.6885622610002,None,593.6885622610002,None,593.6885622610002,None,c,0,2.405035513999792,595.2217674839999,None,595.2217674839999,None,595.2217674839999,None,597.7059070139999,None,597.7059070139999,None,597.7059070139999,None,597.7059070139999,None,,,,,,,,,,,,,,,,,,,,,,,,,,,,,,,,,,,,,,,,,,,,001,173,2020_Feb_27_0934,spring_faces,3.1.5,59.9445352397029,
condition files/Stage1_2.xlsx,,B2,T2,m,"['c', 'm']","['Clue', 'Monopoly']","[-0.15, 0.5]","[0.15, 0.5]",1,1,,,,,,,,,0,3,3,3,0,6,6,3,,,,,,,,,,,,,,,,,,,,,,,,,,,,,,,,,,,,,,,,,,,,,,,,,,,,,,,599.6551673219997,None,599.6551673219997,None,599.6551673219997,None,c,0,2.0052420069996515,601.2055564629995,None,601.2055564629995,None,601.2055564629995,None,603.2723304349997,None,603.2723304349997,None,603.2723304349997,None,603.2723304349997,None,,,,,,,,,,,,,,,,,,,,,,,,,,,,,,,,,,,,,,,,,,,,001,173,2020_Feb_27_0934,spring_faces,3.1.5,59.9445352397029,
condition files/Stage1_2.xlsx,,T2,B1,c,"['c', 'm']","['Clue', 'Monopoly']","[-0.15, 0.5]","[0.15, 0.5]",1,1,,,,,,,,,0,3,3,3,0,7,7,1,,,,,,,,,,,,,,,,,,,,,,,,,,,,,,,,,,,,,,,,,,,,,,,,,,,,,,,605.238626369,None,605.238626369,None,605.238626369,None,c,1,3.428498113000387,606.7742982389996,None,606.7742982389996,None,606.7742982389996,None,610.254720636,None,610.254720636,None,610.254720636,None,610.254720636,None,,,,,,,,,,,,,,,,,,,,,,,,,,,,,,,,,,,,,,,,,,,,001,173,2020_Feb_27_0934,spring_faces,3.1.5,59.9445352397029,
condition files/Stage1_1.xlsx,,B1,T2,c,"['c', 'm']","['Clue', 'Monopoly']","[-0.15, 0.5]","[0.15, 0.5]",1,1,,,,,,,,,0,4,4,4,0,0,0,1,,,,,,,,,,,,,,,,,,,,,,,,,,,,,,,,,,,,,,,,,,,,,,,,,,,,,,,612.2389408909999,None,612.2389408909999,None,612.2389408909999,None,m,0,2.6873173470003167,613.7715033769996,None,613.7715033769996,None,613.7715033769996,None,616.5223503679995,None,616.5223503679995,None,616.5223503679995,None,616.5223503679995,None,,,,,,,,,,,,,,,,,,,,,,,,,,,,,,,,,,,,,,,,,,,,001,173,2020_Feb_27_0934,spring_faces,3.1.5,59.9445352397029,
condition files/Stage1_1.xlsx,,T4,B3,m,"['c', 'm']","['Clue', 'Monopoly']","[-0.15, 0.5]","[0.15, 0.5]",1,1,,,,,,,,,0,4,4,4,0,1,1,6,,,,,,,,,,,,,,,,,,,,,,,,,,,,,,,,,,,,,,,,,,,,,,,,,,,,,,,618.4887401129995,None,618.4887401129995,None,618.4887401129995,None,m,1,5.605057523000141,620.0217622449995,None,620.0217622449995,None,620.0217622449995,None,625.7054592929994,None,625.7054592929994,None,625.7054592929994,None,625.7054592929994,None,,,,,,,,,,,,,,,,,,,,,,,,,,,,,,,,,,,,,,,,,,,,001,173,2020_Feb_27_0934,spring_faces,3.1.5,59.9445352397029,
condition files/Stage1_1.xlsx,,T2,B2,m,"['c', 'm']","['Clue', 'Monopoly']","[-0.15, 0.5]","[0.15, 0.5]",1,1,,,,,,,,,0,4,4,4,0,2,2,3,,,,,,,,,,,,,,,,,,,,,,,,,,,,,,,,,,,,,,,,,,,,,,,,,,,,,,,627.6551769980001,None,627.6551769980001,None,627.6551769980001,None,c,0,0.9817704480001339,629.1890393030003,None,629.1890393030003,None,629.1890393030003,None,630.2222532129995,None,630.2222532129995,None,630.2222532129995,None,630.2222532129995,None,,,,,,,,,,,,,,,,,,,,,,,,,,,,,,,,,,,,,,,,,,,,001,173,2020_Feb_27_0934,spring_faces,3.1.5,59.9445352397029,
condition files/Stage1_1.xlsx,,T1,B1,c,"['c', 'm']","['Clue', 'Monopoly']","[-0.15, 0.5]","[0.15, 0.5]",1,1,,,,,,,,,0,4,4,4,0,3,3,0,,,,,,,,,,,,,,,,,,,,,,,,,,,,,,,,,,,,,,,,,,,,,,,,,,,,,,,632.1887187770003,None,632.1887187770003,None,632.1887187770003,None,c,1,3.5370249829993554,633.7218001229999,None,633.7218001229999,None,633.7218001229999,None,637.3242071909995,None,637.3242071909995,None,637.3242071909995,None,637.3242071909995,None,,,,,,,,,,,,,,,,,,,,,,,,,,,,,,,,,,,,,,,,,,,,001,173,2020_Feb_27_0934,spring_faces,3.1.5,59.9445352397029,
condition files/Stage1_1.xlsx,,B3,T3,c,"['c', 'm']","['Clue', 'Monopoly']","[-0.15, 0.5]","[0.15, 0.5]",1,1,,,,,,,,,0,4,4,4,0,4,4,4,,,,,,,,,,,,,,,,,,,,,,,,,,,,,,,,,,,,,,,,,,,,,,,,,,,,,,,639.2882667239996,None,639.2882667239996,None,639.2882667239996,None,c,1,2.1147679349996906,640.8240436439996,None,640.8240436439996,None,640.8240436439996,None,642.9887568620002,None,642.9887568620002,None,642.9887568620002,None,642.9887568620002,None,,,,,,,,,,,,,,,,,,,,,,,,,,,,,,,,,,,,,,,,,,,,001,173,2020_Feb_27_0934,spring_faces,3.1.5,59.9445352397029,
condition files/Stage1_1.xlsx,,T3,B4,c,"['c', 'm']","['Clue', 'Monopoly']","[-0.15, 0.5]","[0.15, 0.5]",1,1,,,,,,,,,0,4,4,4,0,5,5,5,,,,,,,,,,,,,,,,,,,,,,,,,,,,,,,,,,,,,,,,,,,,,,,,,,,,,,,644.9549075829996,None,644.9549075829996,None,644.9549075829996,None,m,0,2.2741928910008937,646.4885461600002,None,646.4885461600002,None,646.4885461600002,None,648.8221387210001,None,648.8221387210001,None,648.8221387210001,None,648.8221387210001,None,,,,,,,,,,,,,,,,,,,,,,,,,,,,,,,,,,,,,,,,,,,,001,173,2020_Feb_27_0934,spring_faces,3.1.5,59.9445352397029,
condition files/Stage1_1.xlsx,,B2,T1,m,"['c', 'm']","['Clue', 'Monopoly']","[-0.15, 0.5]","[0.15, 0.5]",1,1,,,,,,,,,0,4,4,4,0,6,6,2,,,,,,,,,,,,,,,,,,,,,,,,,,,,,,,,,,,,,,,,,,,,,,,,,,,,,,,650.7882958819996,None,650.7882958819996,None,650.7882958819996,None,m,1,20.63178612200045,652.3389987149999,None,652.3389987149999,None,652.3389987149999,None,673.023422068,None,673.023422068,None,673.023422068,None,673.023422068,None,,,,,,,,,,,,,,,,,,,,,,,,,,,,,,,,,,,,,,,,,,,,001,173,2020_Feb_27_0934,spring_faces,3.1.5,59.9445352397029,
condition files/Stage1_1.xlsx,,B4,T4,m,"['c', 'm']","['Clue', 'Monopoly']","[-0.15, 0.5]","[0.15, 0.5]",1,1,,,,,,,,,0,4,4,4,0,7,7,7,,,,,,,,,,,,,,,,,,,,,,,,,,,,,,,,,,,,,,,,,,,,,,,,,,,,,,,674.9883268509998,None,674.9883268509998,None,674.9883268509998,None,m,1,3.4559315920005247,676.5229493430002,None,676.5229493430002,None,676.5229493430002,None,680.0386774920003,None,680.0386774920003,None,680.0386774920003,None,680.0386774920003,None,,,,,,,,,,,,,,,,,,,,,,,,,,,,,,,,,,,,,,,,,,,,001,173,2020_Feb_27_0934,spring_faces,3.1.5,59.9445352397029,
condition files/Stage1_2.xlsx,,T3,B3,c,"['c', 'm']","['Clue', 'Monopoly']","[-0.15, 0.5]","[0.15, 0.5]",1,1,,,,,,,,,0,5,5,5,0,0,0,4,,,,,,,,,,,,,,,,,,,,,,,,,,,,,,,,,,,,,,,,,,,,,,,,,,,,,,,682.0222310249997,None,682.0222310249997,None,682.0222310249997,None,m,0,1.6393563970004834,683.5555313270002,None,683.5555313270002,None,683.5555313270002,None,685.2558590889998,None,685.2558590889998,None,685.2558590889998,None,685.2558590889998,None,,,,,,,,,,,,,,,,,,,,,,,,,,,,,,,,,,,,,,,,,,,,001,173,2020_Feb_27_0934,spring_faces,3.1.5,59.9445352397029,
condition files/Stage1_2.xlsx,,B1,T1,c,"['c', 'm']","['Clue', 'Monopoly']","[-0.15, 0.5]","[0.15, 0.5]",1,1,,,,,,,,,0,5,5,5,0,1,1,0,,,,,,,,,,,,,,,,,,,,,,,,,,,,,,,,,,,,,,,,,,,,,,,,,,,,,,,687.2213165429998,None,687.2213165429998,None,687.2213165429998,None,m,0,2.247088079000605,688.7717839049997,None,688.7717839049997,None,688.7717839049997,None,691.0726155369998,None,691.0726155369998,None,691.0726155369998,None,691.0726155369998,None,,,,,,,,,,,,,,,,,,,,,,,,,,,,,,,,,,,,,,,,,,,,001,173,2020_Feb_27_0934,spring_faces,3.1.5,59.9445352397029,
condition files/Stage1_2.xlsx,,T4,B4,m,"['c', 'm']","['Clue', 'Monopoly']","[-0.15, 0.5]","[0.15, 0.5]",1,1,,,,,,,,,0,5,5,5,0,2,2,7,,,,,,,,,,,,,,,,,,,,,,,,,,,,,,,,,,,,,,,,,,,,,,,,,,,,,,,693.0387789749998,None,693.0387789749998,None,693.0387789749998,None,m,1,1.4054652069999065,694.5734590689995,None,694.5734590689995,None,694.5734590689995,None,696.0404464329999,None,696.0404464329999,None,696.0404464329999,None,696.0404464329999,None,,,,,,,,,,,,,,,,,,,,,,,,,,,,,,,,,,,,,,,,,,,,001,173,2020_Feb_27_0934,spring_faces,3.1.5,59.9445352397029,
condition files/Stage1_2.xlsx,,B4,T3,c,"['c', 'm']","['Clue', 'Monopoly']","[-0.15, 0.5]","[0.15, 0.5]",1,1,,,,,,,,,0,5,5,5,0,3,3,5,,,,,,,,,,,,,,,,,,,,,,,,,,,,,,,,,,,,,,,,,,,,,,,,,,,,,,,698.0052810379998,None,698.0052810379998,None,698.0052810379998,None,c,1,2.2948733410003115,699.5559250419997,None,699.5559250419997,None,699.5559250419997,None,701.90610221,None,701.90610221,None,701.90610221,None,701.90610221,None,,,,,,,,,,,,,,,,,,,,,,,,,,,,,,,,,,,,,,,,,,,,001,173,2020_Feb_27_0934,spring_faces,3.1.5,59.9445352397029,
condition files/Stage1_2.xlsx,,T1,B2,m,"['c', 'm']","['Clue', 'Monopoly']","[-0.15, 0.5]","[0.15, 0.5]",1,1,,,,,,,,,0,5,5,5,0,4,4,2,,,,,,,,,,,,,,,,,,,,,,,,,,,,,,,,,,,,,,,,,,,,,,,,,,,,,,,703.871932865,None,703.871932865,None,703.871932865,None,m,1,1.8688216010004908,705.4219445630001,None,705.4219445630001,None,705.4219445630001,None,707.3716478880001,None,707.3716478880001,None,707.3716478880001,None,707.3716478880001,None,,,,,,,,,,,,,,,,,,,,,,,,,,,,,,,,,,,,,,,,,,,,001,173,2020_Feb_27_0934,spring_faces,3.1.5,59.9445352397029,
condition files/Stage1_2.xlsx,,B2,T2,m,"['c', 'm']","['Clue', 'Monopoly']","[-0.15, 0.5]","[0.15, 0.5]",1,1,,,,,,,,,0,5,5,5,0,5,5,3,,,,,,,,,,,,,,,,,,,,,,,,,,,,,,,,,,,,,,,,,,,,,,,,,,,,,,,709.3217311369995,None,709.3217311369995,None,709.3217311369995,None,c,0,1.5703662010000699,710.8564512190001,None,710.8564512190001,None,710.8564512190001,None,712.4886361960002,None,712.4886361960002,None,712.4886361960002,None,712.4886361960002,None,,,,,,,,,,,,,,,,,,,,,,,,,,,,,,,,,,,,,,,,,,,,001,173,2020_Feb_27_0934,spring_faces,3.1.5,59.9445352397029,
condition files/Stage1_2.xlsx,,T2,B1,c,"['c', 'm']","['Clue', 'Monopoly']","[-0.15, 0.5]","[0.15, 0.5]",1,1,,,,,,,,,0,5,5,5,0,6,6,1,,,,,,,,,,,,,,,,,,,,,,,,,,,,,,,,,,,,,,,,,,,,,,,,,,,,,,,714.4551686,None,714.4551686,None,714.4551686,None,c,1,2.8064385340003355,715.988439147,None,715.988439147,None,715.988439147,None,718.8554741749999,None,718.8554741749999,None,718.8554741749999,None,718.8554741749999,None,,,,,,,,,,,,,,,,,,,,,,,,,,,,,,,,,,,,,,,,,,,,001,173,2020_Feb_27_0934,spring_faces,3.1.5,59.9445352397029,
condition files/Stage1_2.xlsx,,B3,T4,m,"['c', 'm']","['Clue', 'Monopoly']","[-0.15, 0.5]","[0.15, 0.5]",1,1,,,,,,,,,0,5,5,5,0,7,7,6,,,,,,,,,,,,,,,,,,,,,,,,,,,,,,,,,,,,,,,,,,,,,,,,,,,,,,,720.8209525139996,None,720.8209525139996,None,720.8209525139996,None,c,0,2.120265388000007,722.3545442210002,None,722.3545442210002,None,722.3545442210002,None,724.5401027510002,None,724.5401027510002,None,724.5401027510002,None,724.5401027510002,None,,,,,,,,,,,,,,,,,,,,,,,,,,,,,,,,,,,,,,,,,,,,001,173,2020_Feb_27_0934,spring_faces,3.1.5,59.9445352397029,
condition files/Stage1_1.xlsx,,B3,T3,c,"['c', 'm']","['Clue', 'Monopoly']","[-0.15, 0.5]","[0.15, 0.5]",1,1,,,,,,,,,0,6,6,6,0,0,0,4,,,,,,,,,,,,,,,,,,,,,,,,,,,,,,,,,,,,,,,,,,,,,,,,,,,,,,,726.5216857330001,None,726.5216857330001,None,726.5216857330001,None,m,0,0.9793763710003986,728.0554382189998,None,728.0554382189998,None,728.0554382189998,None,729.0911765879996,None,729.0911765879996,None,729.0911765879996,None,729.0911765879996,None,,,,,,,,,,,,,,,,,,,,,,,,,,,,,,,,,,,,,,,,,,,,001,173,2020_Feb_27_0934,spring_faces,3.1.5,59.9445352397029,
condition files/Stage1_1.xlsx,,B2,T1,m,"['c', 'm']","['Clue', 'Monopoly']","[-0.15, 0.5]","[0.15, 0.5]",1,1,,,,,,,,,0,6,6,6,0,1,1,2,,,,,,,,,,,,,,,,,,,,,,,,,,,,,,,,,,,,,,,,,,,,,,,,,,,,,,,731.0553813749998,None,731.0553813749998,None,731.0553813749998,None,m,1,3.261874923000505,732.5889270060002,None,732.5889270060002,None,732.5889270060002,None,735.9077482239995,None,735.9077482239995,None,735.9077482239995,None,735.9077482239995,None,,,,,,,,,,,,,,,,,,,,,,,,,,,,,,,,,,,,,,,,,,,,001,173,2020_Feb_27_0934,spring_faces,3.1.5,59.9445352397029,
condition files/Stage1_1.xlsx,,T3,B4,c,"['c', 'm']","['Clue', 'Monopoly']","[-0.15, 0.5]","[0.15, 0.5]",1,1,,,,,,,,,0,6,6,6,0,2,2,5,,,,,,,,,,,,,,,,,,,,,,,,,,,,,,,,,,,,,,,,,,,,,,,,,,,,,,,737.8714119639994,None,737.8714119639994,None,737.8714119639994,None,m,0,1.5172583940002369,739.405524415,None,739.405524415,None,739.405524415,None,741.0057324499999,None,741.0057324499999,None,741.0057324499999,None,741.0057324499999,None,,,,,,,,,,,,,,,,,,,,,,,,,,,,,,,,,,,,,,,,,,,,001,173,2020_Feb_27_0934,spring_faces,3.1.5,59.9445352397029,
condition files/Stage1_1.xlsx,,T4,B3,m,"['c', 'm']","['Clue', 'Monopoly']","[-0.15, 0.5]","[0.15, 0.5]",1,1,,,,,,,,,0,6,6,6,0,3,3,6,,,,,,,,,,,,,,,,,,,,,,,,,,,,,,,,,,,,,,,,,,,,,,,,,,,,,,,742.9552232589999,None,742.9552232589999,None,742.9552232589999,None,m,1,2.305370750000293,744.5054313260002,None,744.5054313260002,None,744.5054313260002,None,746.8888209029997,None,746.8888209029997,None,746.8888209029997,None,746.8888209029997,None,,,,,,,,,,,,,,,,,,,,,,,,,,,,,,,,,,,,,,,,,,,,001,173,2020_Feb_27_0934,spring_faces,3.1.5,59.9445352397029,
condition files/Stage1_1.xlsx,,B4,T4,m,"['c', 'm']","['Clue', 'Monopoly']","[-0.15, 0.5]","[0.15, 0.5]",1,1,,,,,,,,,0,6,6,6,0,4,4,7,,,,,,,,,,,,,,,,,,,,,,,,,,,,,,,,,,,,,,,,,,,,,,,,,,,,,,,748.8384559430001,None,748.8384559430001,None,748.8384559430001,None,m,1,1.4616665249996004,750.3731455889997,None,750.3731455889997,None,750.3731455889997,None,751.8888907289997,None,751.8888907289997,None,751.8888907289997,None,751.8888907289997,None,,,,,,,,,,,,,,,,,,,,,,,,,,,,,,,,,,,,,,,,,,,,001,173,2020_Feb_27_0934,spring_faces,3.1.5,59.9445352397029,
condition files/Stage1_1.xlsx,,T1,B1,c,"['c', 'm']","['Clue', 'Monopoly']","[-0.15, 0.5]","[0.15, 0.5]",1,1,,,,,,,,,0,6,6,6,0,5,5,0,,,,,,,,,,,,,,,,,,,,,,,,,,,,,,,,,,,,,,,,,,,,,,,,,,,,,,,753.8551701559995,None,753.8551701559995,None,753.8551701559995,None,m,0,1.421404591999817,755.3894131989996,None,755.3894131989996,None,755.3894131989996,None,756.872139177,None,756.872139177,None,756.872139177,None,756.872139177,None,,,,,,,,,,,,,,,,,,,,,,,,,,,,,,,,,,,,,,,,,,,,001,173,2020_Feb_27_0934,spring_faces,3.1.5,59.9445352397029,
condition files/Stage1_1.xlsx,,B1,T2,c,"['c', 'm']","['Clue', 'Monopoly']","[-0.15, 0.5]","[0.15, 0.5]",1,1,,,,,,,,,0,6,6,6,0,6,6,1,,,,,,,,,,,,,,,,,,,,,,,,,,,,,,,,,,,,,,,,,,,,,,,,,,,,,,,758.8382814940001,None,758.8382814940001,None,758.8382814940001,None,m,0,1.1903767659996447,760.3725108559997,None,760.3725108559997,None,760.3725108559997,None,761.6214636909995,None,761.6214636909995,None,761.6214636909995,None,761.6214636909995,None,,,,,,,,,,,,,,,,,,,,,,,,,,,,,,,,,,,,,,,,,,,,001,173,2020_Feb_27_0934,spring_faces,3.1.5,59.9445352397029,
condition files/Stage1_1.xlsx,,T2,B2,m,"['c', 'm']","['Clue', 'Monopoly']","[-0.15, 0.5]","[0.15, 0.5]",1,1,,,,,,,,,0,6,6,6,0,7,7,3,,,,,,,,,,,,,,,,,,,,,,,,,,,,,,,,,,,,,,,,,,,,,,,,,,,,,,,763.5887724219997,None,763.5887724219997,None,763.5887724219997,None,m,1,1.672846075999587,765.1219567069998,None,765.1219567069998,None,765.1219567069998,None,766.8577105270001,None,766.8577105270001,None,766.8577105270001,None,766.8577105270001,None,,,,,,,,,,,,,,,,,,,,,,,,,,,,,,,,,,,,,,,,,,,,001,173,2020_Feb_27_0934,spring_faces,3.1.5,59.9445352397029,
condition files/Stage1_2.xlsx,,T4,B4,m,"['c', 'm']","['Clue', 'Monopoly']","[-0.15, 0.5]","[0.15, 0.5]",1,1,,,,,,,,,0,7,7,7,0,0,0,7,,,,,,,,,,,,,,,,,,,,,,,,,,,,,,,,,,,,,,,,,,,,,,,,,,,,,,,768.8388031219997,None,768.8388031219997,None,768.8388031219997,None,m,1,1.3980235910003103,770.3887754909997,None,770.3887754909997,None,770.3887754909997,None,771.8392281709998,None,771.8392281709998,None,771.8392281709998,None,771.8392281709998,None,,,,,,,,,,,,,,,,,,,,,,,,,,,,,,,,,,,,,,,,,,,,001,173,2020_Feb_27_0934,spring_faces,3.1.5,59.9445352397029,
condition files/Stage1_2.xlsx,,B3,T4,m,"['c', 'm']","['Clue', 'Monopoly']","[-0.15, 0.5]","[0.15, 0.5]",1,1,,,,,,,,,0,7,7,7,0,1,1,6,,,,,,,,,,,,,,,,,,,,,,,,,,,,,,,,,,,,,,,,,,,,,,,,,,,,,,,773.8052769559995,None,773.8052769559995,None,773.8052769559995,None,m,1,1.5832459330003985,775.3555494529996,None,775.3555494529996,None,775.3555494529996,None,776.9890518569996,None,776.9890518569996,None,776.9890518569996,None,776.9890518569996,None,,,,,,,,,,,,,,,,,,,,,,,,,,,,,,,,,,,,,,,,,,,,001,173,2020_Feb_27_0934,spring_faces,3.1.5,59.9445352397029,
condition files/Stage1_2.xlsx,,B2,T2,m,"['c', 'm']","['Clue', 'Monopoly']","[-0.15, 0.5]","[0.15, 0.5]",1,1,,,,,,,,,0,7,7,7,0,2,2,3,,,,,,,,,,,,,,,,,,,,,,,,,,,,,,,,,,,,,,,,,,,,,,,,,,,,,,,778.9550148359999,None,778.9550148359999,None,778.9550148359999,None,c,0,1.1371661759994822,780.5056243109998,None,780.5056243109998,None,780.5056243109998,None,781.7053922800001,None,781.7053922800001,None,781.7053922800001,None,781.7053922800001,None,,,,,,,,,,,,,,,,,,,,,,,,,,,,,,,,,,,,,,,,,,,,001,173,2020_Feb_27_0934,spring_faces,3.1.5,59.9445352397029,
condition files/Stage1_2.xlsx,,T1,B2,m,"['c', 'm']","['Clue', 'Monopoly']","[-0.15, 0.5]","[0.15, 0.5]",1,1,,,,,,,,,0,7,7,7,0,3,3,2,,,,,,,,,,,,,,,,,,,,,,,,,,,,,,,,,,,,,,,,,,,,,,,,,,,,,,,783.6719060330001,None,783.6719060330001,None,783.6719060330001,None,c,0,1.7180428619994927,785.2047410330001,None,785.2047410330001,None,785.2047410330001,None,786.9893297670001,None,786.9893297670001,None,786.9893297670001,None,786.9893297670001,None,,,,,,,,,,,,,,,,,,,,,,,,,,,,,,,,,,,,,,,,,,,,001,173,2020_Feb_27_0934,spring_faces,3.1.5,59.9445352397029,
condition files/Stage1_2.xlsx,,B1,T1,c,"['c', 'm']","['Clue', 'Monopoly']","[-0.15, 0.5]","[0.15, 0.5]",1,1,,,,,,,,,0,7,7,7,0,4,4,0,,,,,,,,,,,,,,,,,,,,,,,,,,,,,,,,,,,,,,,,,,,,,,,,,,,,,,,788.9551965340002,None,788.9551965340002,None,788.9551965340002,None,c,1,1.1214810369992847,790.4893397279998,None,790.4893397279998,None,790.4893397279998,None,791.6739739829995,None,791.6739739829995,None,791.6739739829995,None,791.6739739829995,None,,,,,,,,,,,,,,,,,,,,,,,,,,,,,,,,,,,,,,,,,,,,001,173,2020_Feb_27_0934,spring_faces,3.1.5,59.9445352397029,
condition files/Stage1_2.xlsx,,T3,B3,c,"['c', 'm']","['Clue', 'Monopoly']","[-0.15, 0.5]","[0.15, 0.5]",1,1,,,,,,,,,0,7,7,7,0,5,5,4,,,,,,,,,,,,,,,,,,,,,,,,,,,,,,,,,,,,,,,,,,,,,,,,,,,,,,,793.6386201780001,None,793.6386201780001,None,793.6386201780001,None,m,0,2.2460505819999526,795.1887343789999,None,795.1887343789999,None,795.1887343789999,None,797.4887836450002,None,797.4887836450002,None,797.4887836450002,None,797.4887836450002,None,,,,,,,,,,,,,,,,,,,,,,,,,,,,,,,,,,,,,,,,,,,,001,173,2020_Feb_27_0934,spring_faces,3.1.5,59.9445352397029,
condition files/Stage1_2.xlsx,,T2,B1,c,"['c', 'm']","['Clue', 'Monopoly']","[-0.15, 0.5]","[0.15, 0.5]",1,1,,,,,,,,,0,7,7,7,0,6,6,1,,,,,,,,,,,,,,,,,,,,,,,,,,,,,,,,,,,,,,,,,,,,,,,,,,,,,,,799.455165842,None,799.455165842,None,799.455165842,None,m,0,2.1748232729996744,800.988045865,None,800.988045865,None,800.988045865,None,803.2221967310002,None,803.2221967310002,None,803.2221967310002,None,803.2221967310002,None,,,,,,,,,,,,,,,,,,,,,,,,,,,,,,,,,,,,,,,,,,,,001,173,2020_Feb_27_0934,spring_faces,3.1.5,59.9445352397029,
condition files/Stage1_2.xlsx,,B4,T3,c,"['c', 'm']","['Clue', 'Monopoly']","[-0.15, 0.5]","[0.15, 0.5]",1,1,,,,,,,,,0,7,7,7,0,7,7,5,,,,,,,,,,,,,,,,,,,,,,,,,,,,,,,,,,,,,,,,,,,,,,,,,,,,,,,805.1883152790001,None,805.1883152790001,None,805.1883152790001,None,m,0,0.9358075350000945,806.7389864649999,None,806.7389864649999,None,806.7389864649999,None,807.7388817169999,None,807.7388817169999,None,807.7388817169999,None,807.7388817169999,None,,,,,,,,,,,,,,,,,,,,,,,,,,,,,,,,,,,,,,,,,,,,001,173,2020_Feb_27_0934,spring_faces,3.1.5,59.9445352397029,
condition files/Stage1_1.xlsx,,B3,T3,c,"['c', 'm']","['Clue', 'Monopoly']","[-0.15, 0.5]","[0.15, 0.5]",1,1,,,,,,,,,0,8,8,8,0,0,0,4,,,,,,,,,,,,,,,,,,,,,,,,,,,,,,,,,,,,,,,,,,,,,,,,,,,,,,,809.7222156100001,None,809.7222156100001,None,809.7222156100001,None,m,0,1.1719403079996482,811.2548719000001,None,811.2548719000001,None,811.2548719000001,None,812.4891262240003,None,812.4891262240003,None,812.4891262240003,None,812.4891262240003,None,,,,,,,,,,,,,,,,,,,,,,,,,,,,,,,,,,,,,,,,,,,,001,173,2020_Feb_27_0934,spring_faces,3.1.5,59.9445352397029,
condition files/Stage1_1.xlsx,,T3,B4,c,"['c', 'm']","['Clue', 'Monopoly']","[-0.15, 0.5]","[0.15, 0.5]",1,1,,,,,,,,,0,8,8,8,0,1,1,5,,,,,,,,,,,,,,,,,,,,,,,,,,,,,,,,,,,,,,,,,,,,,,,,,,,,,,,814.4551830099995,None,814.4551830099995,None,814.4551830099995,None,m,0,1.046809691000817,815.9880442079998,None,815.9880442079998,None,815.9880442079998,None,817.0881324999996,None,817.0881324999996,None,817.0881324999996,None,817.0881324999996,None,,,,,,,,,,,,,,,,,,,,,,,,,,,,,,,,,,,,,,,,,,,,001,173,2020_Feb_27_0934,spring_faces,3.1.5,59.9445352397029,
condition files/Stage1_1.xlsx,,T1,B1,c,"['c', 'm']","['Clue', 'Monopoly']","[-0.15, 0.5]","[0.15, 0.5]",1,1,,,,,,,,,0,8,8,8,0,2,2,0,,,,,,,,,,,,,,,,,,,,,,,,,,,,,,,,,,,,,,,,,,,,,,,,,,,,,,,819.0552269610002,None,819.0552269610002,None,819.0552269610002,None,m,0,1.1339477060000718,820.5888093190001,None,820.5888093190001,None,820.5888093190001,None,821.788681128,None,821.788681128,None,821.788681128,None,821.788681128,None,,,,,,,,,,,,,,,,,,,,,,,,,,,,,,,,,,,,,,,,,,,,001,173,2020_Feb_27_0934,spring_faces,3.1.5,59.9445352397029,
condition files/Stage1_1.xlsx,,B1,T2,c,"['c', 'm']","['Clue', 'Monopoly']","[-0.15, 0.5]","[0.15, 0.5]",1,1,,,,,,,,,0,8,8,8,0,3,3,1,,,,,,,,,,,,,,,,,,,,,,,,,,,,,,,,,,,,,,,,,,,,,,,,,,,,,,,823.7548237420001,None,823.7548237420001,None,823.7548237420001,None,c,1,0.3854078370004572,825.2893874910001,None,825.2893874910001,None,825.2893874910001,None,825.738725578,None,825.738725578,None,825.738725578,None,825.738725578,None,,,,,,,,,,,,,,,,,,,,,,,,,,,,,,,,,,,,,,,,,,,,001,173,2020_Feb_27_0934,spring_faces,3.1.5,59.9445352397029,
condition files/Stage1_1.xlsx,,B2,T1,m,"['c', 'm']","['Clue', 'Monopoly']","[-0.15, 0.5]","[0.15, 0.5]",1,1,,,,,,,,,0,8,8,8,0,4,4,2,,,,,,,,,,,,,,,,,,,,,,,,,,,,,,,,,,,,,,,,,,,,,,,,,,,,,,,827.7058487950003,None,827.7058487950003,None,827.7058487950003,None,c,0,1.2983782349992907,829.2403868799997,None,829.2403868799997,None,829.2403868799997,None,830.5888895319999,None,830.5888895319999,None,830.5888895319999,None,830.5888895319999,None,,,,,,,,,,,,,,,,,,,,,,,,,,,,,,,,,,,,,,,,,,,,001,173,2020_Feb_27_0934,spring_faces,3.1.5,59.9445352397029,
condition files/Stage1_1.xlsx,,B4,T4,m,"['c', 'm']","['Clue', 'Monopoly']","[-0.15, 0.5]","[0.15, 0.5]",1,1,,,,,,,,,0,8,8,8,0,5,5,7,,,,,,,,,,,,,,,,,,,,,,,,,,,,,,,,,,,,,,,,,,,,,,,,,,,,,,,832.5548993199995,None,832.5548993199995,None,832.5548993199995,None,m,1,0.45038729699990654,834.0884296150002,None,834.0884296150002,None,834.0884296150002,None,834.588894088,None,834.588894088,None,834.588894088,None,834.588894088,None,,,,,,,,,,,,,,,,,,,,,,,,,,,,,,,,,,,,,,,,,,,,001,173,2020_Feb_27_0934,spring_faces,3.1.5,59.9445352397029,
condition files/Stage1_1.xlsx,,T2,B2,m,"['c', 'm']","['Clue', 'Monopoly']","[-0.15, 0.5]","[0.15, 0.5]",1,1,,,,,,,,,0,8,8,8,0,6,6,3,,,,,,,,,,,,,,,,,,,,,,,,,,,,,,,,,,,,,,,,,,,,,,,,,,,,,,,836.555389271,None,836.555389271,None,836.555389271,None,c,0,0.3542643880000469,838.088541134,None,838.088541134,None,838.088541134,None,838.504972065,None,838.504972065,None,838.504972065,None,838.504972065,None,,,,,,,,,,,,,,,,,,,,,,,,,,,,,,,,,,,,,,,,,,,,001,173,2020_Feb_27_0934,spring_faces,3.1.5,59.9445352397029,
condition files/Stage1_1.xlsx,,T4,B3,m,"['c', 'm']","['Clue', 'Monopoly']","[-0.15, 0.5]","[0.15, 0.5]",1,1,,,,,,,,,0,8,8,8,0,7,7,6,,,,,,,,,,,,,,,,,,,,,,,,,,,,,,,,,,,,,,,,,,,,,,,,,,,,,,,840.471866073,None,840.471866073,None,840.471866073,None,m,1,2.836992298000041,842.005828797,None,842.005828797,None,842.005828797,None,844.9051827859998,None,844.9051827859998,None,844.9051827859998,None,844.9051827859998,None,,,,,,,,,,,,,,,,,,,,,,,,,,,,,,,,,,,,,,,,,,,,001,173,2020_Feb_27_0934,spring_faces,3.1.5,59.9445352397029,
condition files/Stage1_2.xlsx,,T3,B3,c,"['c', 'm']","['Clue', 'Monopoly']","[-0.15, 0.5]","[0.15, 0.5]",1,1,,,,,,,,,0,9,9,9,0,0,0,4,,,,,,,,,,,,,,,,,,,,,,,,,,,,,,,,,,,,,,,,,,,,,,,,,,,,,,,846.888567814,None,846.888567814,None,846.888567814,None,m,0,2.5811139779998484,848.4216967799998,None,848.4216967799998,None,848.4216967799998,None,851.0552831729997,None,851.0552831729997,None,851.0552831729997,None,851.0552831729997,None,,,,,,,,,,,,,,,,,,,,,,,,,,,,,,,,,,,,,,,,,,,,001,173,2020_Feb_27_0934,spring_faces,3.1.5,59.9445352397029,
condition files/Stage1_2.xlsx,,T4,B4,m,"['c', 'm']","['Clue', 'Monopoly']","[-0.15, 0.5]","[0.15, 0.5]",1,1,,,,,,,,,0,9,9,9,0,1,1,7,,,,,,,,,,,,,,,,,,,,,,,,,,,,,,,,,,,,,,,,,,,,,,,,,,,,,,,853.0213706669997,None,853.0213706669997,None,853.0213706669997,None,m,1,1.3898760299998685,854.5570065910001,None,854.5570065910001,None,854.5570065910001,None,856.0056550229997,None,856.0056550229997,None,856.0056550229997,None,856.0056550229997,None,,,,,,,,,,,,,,,,,,,,,,,,,,,,,,,,,,,,,,,,,,,,001,173,2020_Feb_27_0934,spring_faces,3.1.5,59.9445352397029,
condition files/Stage1_2.xlsx,,T1,B2,m,"['c', 'm']","['Clue', 'Monopoly']","[-0.15, 0.5]","[0.15, 0.5]",1,1,,,,,,,,,0,9,9,9,0,2,2,2,,,,,,,,,,,,,,,,,,,,,,,,,,,,,,,,,,,,,,,,,,,,,,,,,,,,,,,857.971613878,None,857.971613878,None,857.971613878,None,c,0,2.6173105669995493,859.5054344839996,None,859.5054344839996,None,859.5054344839996,None,862.1886615809995,None,862.1886615809995,None,862.1886615809995,None,862.1886615809995,None,,,,,,,,,,,,,,,,,,,,,,,,,,,,,,,,,,,,,,,,,,,,001,173,2020_Feb_27_0934,spring_faces,3.1.5,59.9445352397029,
condition files/Stage1_2.xlsx,,B2,T2,m,"['c', 'm']","['Clue', 'Monopoly']","[-0.15, 0.5]","[0.15, 0.5]",1,1,,,,,,,,,0,9,9,9,0,3,3,3,,,,,,,,,,,,,,,,,,,,,,,,,,,,,,,,,,,,,,,,,,,,,,,,,,,,,,,864.1553956160001,None,864.1553956160001,None,864.1553956160001,None,m,1,2.9936650119998376,865.6891958439996,None,865.6891958439996,None,865.6891958439996,None,868.7389128130003,None,868.7389128130003,None,868.7389128130003,None,868.7389128130003,None,,,,,,,,,,,,,,,,,,,,,,,,,,,,,,,,,,,,,,,,,,,,001,173,2020_Feb_27_0934,spring_faces,3.1.5,59.9445352397029,
condition files/Stage1_2.xlsx,,B1,T1,c,"['c', 'm']","['Clue', 'Monopoly']","[-0.15, 0.5]","[0.15, 0.5]",1,1,,,,,,,,,0,9,9,9,0,4,4,0,,,,,,,,,,,,,,,,,,,,,,,,,,,,,,,,,,,,,,,,,,,,,,,,,,,,,,,870.7054323099997,None,870.7054323099997,None,870.7054323099997,None,c,1,0.8763672670002052,872.2384358739996,None,872.2384358739996,None,872.2384358739996,None,873.1720409960003,None,873.1720409960003,None,873.1720409960003,None,873.1720409960003,None,,,,,,,,,,,,,,,,,,,,,,,,,,,,,,,,,,,,,,,,,,,,001,173,2020_Feb_27_0934,spring_faces,3.1.5,59.9445352397029,
condition files/Stage1_2.xlsx,,B3,T4,m,"['c', 'm']","['Clue', 'Monopoly']","[-0.15, 0.5]","[0.15, 0.5]",1,1,,,,,,,,,0,9,9,9,0,5,5,6,,,,,,,,,,,,,,,,,,,,,,,,,,,,,,,,,,,,,,,,,,,,,,,,,,,,,,,875.1378798549999,None,875.1378798549999,None,875.1378798549999,None,m,1,3.9791383869996935,876.6716714680001,None,876.6716714680001,None,876.6716714680001,None,880.7076748280001,None,880.7076748280001,None,880.7076748280001,None,880.7076748280001,None,,,,,,,,,,,,,,,,,,,,,,,,,,,,,,,,,,,,,,,,,,,,001,173,2020_Feb_27_0934,spring_faces,3.1.5,59.9445352397029,
condition files/Stage1_2.xlsx,,B4,T3,c,"['c', 'm']","['Clue', 'Monopoly']","[-0.15, 0.5]","[0.15, 0.5]",1,1,,,,,,,,,0,9,9,9,0,6,6,5,,,,,,,,,,,,,,,,,,,,,,,,,,,,,,,,,,,,,,,,,,,,,,,,,,,,,,,882.6719885549996,None,882.6719885549996,None,882.6719885549996,None,c,1,3.4675551459995404,884.2072532380002,None,884.2072532380002,None,884.2072532380002,None,887.7413671789996,None,887.7413671789996,None,887.7413671789996,None,887.7413671789996,None,,,,,,,,,,,,,,,,,,,,,,,,,,,,,,,,,,,,,,,,,,,,001,173,2020_Feb_27_0934,spring_faces,3.1.5,59.9445352397029,
condition files/Stage1_2.xlsx,,T2,B1,c,"['c', 'm']","['Clue', 'Monopoly']","[-0.15, 0.5]","[0.15, 0.5]",1,1,,,,,,,,,0,9,9,9,0,7,7,1,,,,,,,,,,,,,,,,,,,,,,,,,,,,,,,,,,,,,,,,,,,,,,,,,,,,,,,889.7049232969998,None,889.7049232969998,None,889.7049232969998,None,c,1,3.220280991999971,891.2385341419999,None,891.2385341419999,None,891.2385341419999,None,894.5216760500002,None,894.5216760500002,None,894.5216760500002,None,894.5216760500002,None,,,,,,,,,,,,,,,,,,,,,,,,,,,,,,,,,,,,,,,,,,,,001,173,2020_Feb_27_0934,spring_faces,3.1.5,59.9445352397029,
condition files/Stage1_1.xlsx,,B2,T1,m,"['c', 'm']","['Clue', 'Monopoly']","[-0.15, 0.5]","[0.15, 0.5]",1,1,,,,,,,,,0,10,10,10,0,0,0,2,,,,,,,,,,,,,,,,,,,,,,,,,,,,,,,,,,,,,,,,,,,,,,,,,,,,,,,896.5053324249998,None,896.5053324249998,None,896.5053324249998,None,m,1,1.81101787300031,898.0557689120001,None,898.0557689120001,None,898.0557689120001,None,899.9387444879999,None,899.9387444879999,None,899.9387444879999,None,899.9387444879999,None,,,,,,,,,,,,,,,,,,,,,,,,,,,,,,,,,,,,,,,,,,,,001,173,2020_Feb_27_0934,spring_faces,3.1.5,59.9445352397029,
condition files/Stage1_1.xlsx,,B1,T2,c,"['c', 'm']","['Clue', 'Monopoly']","[-0.15, 0.5]","[0.15, 0.5]",1,1,,,,,,,,,0,10,10,10,0,1,1,1,,,,,,,,,,,,,,,,,,,,,,,,,,,,,,,,,,,,,,,,,,,,,,,,,,,,,,,901.8885649250001,None,901.8885649250001,None,901.8885649250001,None,m,0,1.5496944289998282,903.4211010719996,None,903.4211010719996,None,903.4211010719996,None,905.0217315389996,None,905.0217315389996,None,905.0217315389996,None,905.0217315389996,None,,,,,,,,,,,,,,,,,,,,,,,,,,,,,,,,,,,,,,,,,,,,001,173,2020_Feb_27_0934,spring_faces,3.1.5,59.9445352397029,
condition files/Stage1_1.xlsx,,T2,B2,m,"['c', 'm']","['Clue', 'Monopoly']","[-0.15, 0.5]","[0.15, 0.5]",1,1,,,,,,,,,0,10,10,10,0,2,2,3,,,,,,,,,,,,,,,,,,,,,,,,,,,,,,,,,,,,,,,,,,,,,,,,,,,,,,,906.988329063,None,906.988329063,None,906.988329063,None,c,0,1.2962514330001795,908.5226535879997,None,908.5226535879997,None,908.5226535879997,None,909.8734007990001,None,909.8734007990001,None,909.8734007990001,None,909.8734007990001,None,,,,,,,,,,,,,,,,,,,,,,,,,,,,,,,,,,,,,,,,,,,,001,173,2020_Feb_27_0934,spring_faces,3.1.5,59.9445352397029,
condition files/Stage1_1.xlsx,,T1,B1,c,"['c', 'm']","['Clue', 'Monopoly']","[-0.15, 0.5]","[0.15, 0.5]",1,1,,,,,,,,,0,10,10,10,0,3,3,0,,,,,,,,,,,,,,,,,,,,,,,,,,,,,,,,,,,,,,,,,,,,,,,,,,,,,,,911.8385525299996,None,911.8385525299996,None,911.8385525299996,None,m,0,0.7671822590000374,913.3716403849999,None,913.3716403849999,None,913.3716403849999,None,914.1908643020001,None,914.1908643020001,None,914.1908643020001,None,914.1908643020001,None,,,,,,,,,,,,,,,,,,,,,,,,,,,,,,,,,,,,,,,,,,,,001,173,2020_Feb_27_0934,spring_faces,3.1.5,59.9445352397029,
condition files/Stage1_1.xlsx,,B3,T3,c,"['c', 'm']","['Clue', 'Monopoly']","[-0.15, 0.5]","[0.15, 0.5]",1,1,,,,,,,,,0,10,10,10,0,4,4,4,,,,,,,,,,,,,,,,,,,,,,,,,,,,,,,,,,,,,,,,,,,,,,,,,,,,,,,916.1552378179999,None,916.1552378179999,None,916.1552378179999,None,m,0,2.09807571500005,917.6887276599996,None,917.6887276599996,None,917.6887276599996,None,919.8392218900003,None,919.8392218900003,None,919.8392218900003,None,919.8392218900003,None,,,,,,,,,,,,,,,,,,,,,,,,,,,,,,,,,,,,,,,,,,,,001,173,2020_Feb_27_0934,spring_faces,3.1.5,59.9445352397029,
condition files/Stage1_1.xlsx,,T4,B3,m,"['c', 'm']","['Clue', 'Monopoly']","[-0.15, 0.5]","[0.15, 0.5]",1,1,,,,,,,,,0,10,10,10,0,5,5,6,,,,,,,,,,,,,,,,,,,,,,,,,,,,,,,,,,,,,,,,,,,,,,,,,,,,,,,921.804838943,None,921.804838943,None,921.804838943,None,c,0,0.9754051949994391,923.3554586739997,None,923.3554586739997,None,923.3554586739997,None,924.4056674150002,None,924.4056674150002,None,924.4056674150002,None,924.4056674150002,None,,,,,,,,,,,,,,,,,,,,,,,,,,,,,,,,,,,,,,,,,,,,001,173,2020_Feb_27_0934,spring_faces,3.1.5,59.9445352397029,
condition files/Stage1_1.xlsx,,T3,B4,c,"['c', 'm']","['Clue', 'Monopoly']","[-0.15, 0.5]","[0.15, 0.5]",1,1,,,,,,,,,0,10,10,10,0,6,6,5,,,,,,,,,,,,,,,,,,,,,,,,,,,,,,,,,,,,,,,,,,,,,,,,,,,,,,,926.3546722380001,None,926.3546722380001,None,926.3546722380001,None,m,0,1.6728442219991848,927.8900372610001,None,927.8900372610001,None,927.8900372610001,None,929.6225881089999,None,929.6225881089999,None,929.6225881089999,None,929.6225881089999,None,,,,,,,,,,,,,,,,,,,,,,,,,,,,,,,,,,,,,,,,,,,,001,173,2020_Feb_27_0934,spring_faces,3.1.5,59.9445352397029,
condition files/Stage1_1.xlsx,,B4,T4,m,"['c', 'm']","['Clue', 'Monopoly']","[-0.15, 0.5]","[0.15, 0.5]",1,1,,,,,,,,,0,10,10,10,0,7,7,7,,,,,,,,,,,,,,,,,,,,,,,,,,,,,,,,,,,,,,,,,,,,,,,,,,,,,,,931.588425642,None,931.588425642,None,931.588425642,None,m,1,0.921157034999851,933.1216629899995,None,933.1216629899995,None,933.1216629899995,None,934.122291225,None,934.122291225,None,934.122291225,None,934.122291225,None,,,,,,,,,,,,,,,,,,,,,,,,,,,,,,,,,,,,,,,,,,,,001,173,2020_Feb_27_0934,spring_faces,3.1.5,59.9445352397029,
condition files/Stage1_2.xlsx,,T4,B4,m,"['c', 'm']","['Clue', 'Monopoly']","[-0.15, 0.5]","[0.15, 0.5]",1,1,,,,,,,,,0,11,11,11,0,0,0,7,,,,,,,,,,,,,,,,,,,,,,,,,,,,,,,,,,,,,,,,,,,,,,,,,,,,,,,936.088859809,None,936.088859809,None,936.088859809,None,m,1,0.8530044219996853,937.6218175239997,None,937.6218175239997,None,937.6218175239997,None,938.5389147359997,None,938.5389147359997,None,938.5389147359997,None,938.5389147359997,None,,,,,,,,,,,,,,,,,,,,,,,,,,,,,,,,,,,,,,,,,,,,001,173,2020_Feb_27_0934,spring_faces,3.1.5,59.9445352397029,
condition files/Stage1_2.xlsx,,B1,T1,c,"['c', 'm']","['Clue', 'Monopoly']","[-0.15, 0.5]","[0.15, 0.5]",1,1,,,,,,,,,0,11,11,11,0,1,1,0,,,,,,,,,,,,,,,,,,,,,,,,,,,,,,,,,,,,,,,,,,,,,,,,,,,,,,,940.5053593409998,None,940.5053593409998,None,940.5053593409998,None,c,1,3.234315873000014,942.0405009359997,None,942.0405009359997,None,942.0405009359997,None,945.3394079269997,None,945.3394079269997,None,945.3394079269997,None,945.3394079269997,None,,,,,,,,,,,,,,,,,,,,,,,,,,,,,,,,,,,,,,,,,,,,001,173,2020_Feb_27_0934,spring_faces,3.1.5,59.9445352397029,
condition files/Stage1_2.xlsx,,T3,B3,c,"['c', 'm']","['Clue', 'Monopoly']","[-0.15, 0.5]","[0.15, 0.5]",1,1,,,,,,,,,0,11,11,11,0,2,2,4,,,,,,,,,,,,,,,,,,,,,,,,,,,,,,,,,,,,,,,,,,,,,,,,,,,,,,,947.3051532180002,None,947.3051532180002,None,947.3051532180002,None,c,1,1.586081698000271,948.8407368809999,None,948.8407368809999,None,948.8407368809999,None,950.4882912600001,None,950.4882912600001,None,950.4882912600001,None,950.4882912600001,None,,,,,,,,,,,,,,,,,,,,,,,,,,,,,,,,,,,,,,,,,,,,001,173,2020_Feb_27_0934,spring_faces,3.1.5,59.9445352397029,
condition files/Stage1_2.xlsx,,B4,T3,c,"['c', 'm']","['Clue', 'Monopoly']","[-0.15, 0.5]","[0.15, 0.5]",1,1,,,,,,,,,0,11,11,11,0,3,3,5,,,,,,,,,,,,,,,,,,,,,,,,,,,,,,,,,,,,,,,,,,,,,,,,,,,,,,,952.4551727060002,None,952.4551727060002,None,952.4551727060002,None,c,1,1.2065978210002868,953.9882604959998,None,953.9882604959998,None,953.9882604959998,None,955.2553522009998,None,955.2553522009998,None,955.2553522009998,None,955.2553522009998,None,,,,,,,,,,,,,,,,,,,,,,,,,,,,,,,,,,,,,,,,,,,,001,173,2020_Feb_27_0934,spring_faces,3.1.5,59.9445352397029,
condition files/Stage1_2.xlsx,,B3,T4,m,"['c', 'm']","['Clue', 'Monopoly']","[-0.15, 0.5]","[0.15, 0.5]",1,1,,,,,,,,,0,11,11,11,0,4,4,6,,,,,,,,,,,,,,,,,,,,,,,,,,,,,,,,,,,,,,,,,,,,,,,,,,,,,,,957.2218709859994,None,957.2218709859994,None,957.2218709859994,None,m,1,2.119947356999546,958.7548702979998,None,958.7548702979998,None,958.7548702979998,None,960.9397685729996,None,960.9397685729996,None,960.9397685729996,None,960.9397685729996,None,,,,,,,,,,,,,,,,,,,,,,,,,,,,,,,,,,,,,,,,,,,,001,173,2020_Feb_27_0934,spring_faces,3.1.5,59.9445352397029,
condition files/Stage1_2.xlsx,,T1,B2,m,"['c', 'm']","['Clue', 'Monopoly']","[-0.15, 0.5]","[0.15, 0.5]",1,1,,,,,,,,,0,11,11,11,0,5,5,2,,,,,,,,,,,,,,,,,,,,,,,,,,,,,,,,,,,,,,,,,,,,,,,,,,,,,,,962.9053336579996,None,962.9053336579996,None,962.9053336579996,None,c,0,1.7142955930003154,964.4405155899999,None,964.4405155899999,None,964.4405155899999,None,966.2058355209997,None,966.2058355209997,None,966.2058355209997,None,966.2058355209997,None,,,,,,,,,,,,,,,,,,,,,,,,,,,,,,,,,,,,,,,,,,,,001,173,2020_Feb_27_0934,spring_faces,3.1.5,59.9445352397029,
condition files/Stage1_2.xlsx,,B2,T2,m,"['c', 'm']","['Clue', 'Monopoly']","[-0.15, 0.5]","[0.15, 0.5]",1,1,,,,,,,,,0,11,11,11,0,6,6,3,,,,,,,,,,,,,,,,,,,,,,,,,,,,,,,,,,,,,,,,,,,,,,,,,,,,,,,968.1717803309998,None,968.1717803309998,None,968.1717803309998,None,m,1,1.1351390529998753,969.7076677210002,None,969.7076677210002,None,969.7076677210002,None,970.9058319949995,None,970.9058319949995,None,970.9058319949995,None,970.9058319949995,None,,,,,,,,,,,,,,,,,,,,,,,,,,,,,,,,,,,,,,,,,,,,001,173,2020_Feb_27_0934,spring_faces,3.1.5,59.9445352397029,
condition files/Stage1_2.xlsx,,T2,B1,c,"['c', 'm']","['Clue', 'Monopoly']","[-0.15, 0.5]","[0.15, 0.5]",1,1,,,,,,,,,0,11,11,11,0,7,7,1,,,,,,,,,,,,,,,,,,,,,,,,,,,,,,,,,,,,,,,,,,,,,,,,,,,,,,,972.8720535629996,None,972.8720535629996,None,972.8720535629996,None,m,0,2.9657251079997877,974.405075868,None,974.405075868,None,974.405075868,None,977.4243903020001,None,977.4243903020001,None,977.4243903020001,None,977.4243903020001,None,,,,,,,,,,,,,,,,,,,,,,,,,,,,,,,,,,,,,,,,,,,,001,173,2020_Feb_27_0934,spring_faces,3.1.5,59.9445352397029,
,,,,,,,,,,,,,,,,,,,,,,,,,,,,,,,,,,,,,,,,,,,,,,,,,,,,,,,,,,,,,,,,,,,,,,,,,,,,,,,,,,,,,,,,,,,,,,,,,,,,,,,,,,,,,,,,979.4054978039999,None,space,6.22939406399928,984.4054332649998,None,,,,,,,,,,,,,,,,,,,,,,,,,,,,,,001,173,2020_Feb_27_0934,spring_faces,3.1.5,59.9445352397029,
condition files/Stage2_1.xlsx,,B6,T6,r,"['s', 'r']","['Stratego', 'Risk']","[-0.15, 0.5]","[0.15, 0.5]",1,1,,,,,,,,,,,,,,,,,0,0,0,0,0,0,0,1,,,,,,,,,,,,,,,,,,,,,,,,,,,,,,,,,,,,,,,,,,,,,,,990.6888190120003,None,990.6888190120003,None,990.6888190120003,None,r,1,4.057643961999929,992.2571871320001,None,992.2571871320001,None,992.2571871320001,None,996.3892212329997,None,996.3892212329997,None,996.3892212329997,None,996.3892212329997,None,,,,,,,,,,,,,,,984.4054332649998,None,,,,,,,,,,,,,,,,,,,,,,,,,,,,001,173,2020_Feb_27_0934,spring_faces,3.1.5,59.9445352397029,
condition files/Stage2_1.xlsx,,B4,T4,r,"['s', 'r']","['Stratego', 'Risk']","[-0.15, 0.5]","[0.15, 0.5]",1,1,,,,,,,,,,,,,,,,,0,0,0,0,0,1,1,5,,,,,,,,,,,,,,,,,,,,,,,,,,,,,,,,,,,,,,,,,,,,,,,998.3385587560001,None,998.3385587560001,None,998.3385587560001,None,s,0,1.3708183019998614,999.872004798,None,999.872004798,None,999.872004798,None,1001.3055542199995,None,1001.3055542199995,None,1001.3055542199995,None,1001.3055542199995,None,,,,,,,,,,,,,,,,,,,,,,,,,,,,,,,,,,,,,,,,,,,,001,173,2020_Feb_27_0934,spring_faces,3.1.5,59.9445352397029,
condition files/Stage2_1.xlsx,,T5,B5,s,"['s', 'r']","['Stratego', 'Risk']","[-0.15, 0.5]","[0.15, 0.5]",1,1,,,,,,,,,,,,,,,,,0,0,0,0,0,2,2,0,,,,,,,,,,,,,,,,,,,,,,,,,,,,,,,,,,,,,,,,,,,,,,,1003.2720831450001,None,1003.2720831450001,None,1003.2720831450001,None,r,0,1.0916765580004721,1004.8551971989996,None,1004.8551971989996,None,1004.8551971989996,None,1006.0066103499998,None,1006.0066103499998,None,1006.0066103499998,None,1006.0066103499998,None,,,,,,,,,,,,,,,,,,,,,,,,,,,,,,,,,,,,,,,,,,,,001,173,2020_Feb_27_0934,spring_faces,3.1.5,59.9445352397029,
condition files/Stage2_1.xlsx,,T3,B3,s,"['s', 'r']","['Stratego', 'Risk']","[-0.15, 0.5]","[0.15, 0.5]",1,1,,,,,,,,,,,,,,,,,0,0,0,0,0,3,3,4,,,,,,,,,,,,,,,,,,,,,,,,,,,,,,,,,,,,,,,,,,,,,,,1007.9718417029994,None,1007.9718417029994,None,1007.9718417029994,None,s,1,2.2328906840002674,1009.5059255009996,None,1009.5059255009996,None,1009.5059255009996,None,1011.7889681259999,None,1011.7889681259999,None,1011.7889681259999,None,1011.7889681259999,None,,,,,,,,,,,,,,,,,,,,,,,,,,,,,,,,,,,,,,,,,,,,001,173,2020_Feb_27_0934,spring_faces,3.1.5,59.9445352397029,
condition files/Stage2_1.xlsx,,B2,T2,r,"['s', 'r']","['Stratego', 'Risk']","[-0.15, 0.5]","[0.15, 0.5]",1,1,,,,,,,,,,,,,,,,,0,0,0,0,0,4,4,3,,,,,,,,,,,,,,,,,,,,,,,,,,,,,,,,,,,,,,,,,,,,,,,1013.7552196129996,None,1013.7552196129996,None,1013.7552196129996,None,r,1,2.082200050999745,1015.288613315,None,1015.288613315,None,1015.288613315,None,1017.4222164339994,None,1017.4222164339994,None,1017.4222164339994,None,1017.4222164339994,None,,,,,,,,,,,,,,,,,,,,,,,,,,,,,,,,,,,,,,,,,,,,001,173,2020_Feb_27_0934,spring_faces,3.1.5,59.9445352397029,
condition files/Stage2_1.xlsx,,T1,B1,s,"['s', 'r']","['Stratego', 'Risk']","[-0.15, 0.5]","[0.15, 0.5]",1,1,,,,,,,,,,,,,,,,,0,0,0,0,0,5,5,2,,,,,,,,,,,,,,,,,,,,,,,,,,,,,,,,,,,,,,,,,,,,,,,1019.3881554839995,None,1019.3881554839995,None,1019.3881554839995,None,r,0,1.8576781639994806,1020.9212061530002,None,1020.9212061530002,None,1020.9212061530002,None,1022.83918761,None,1022.83918761,None,1022.83918761,None,1022.83918761,None,,,,,,,,,,,,,,,,,,,,,,,,,,,,,,,,,,,,,,,,,,,,001,173,2020_Feb_27_0934,spring_faces,3.1.5,59.9445352397029,
condition files/Stage2_2.xlsx,,B3,T3,s,"['s', 'r']","['Stratego', 'Risk']","[-0.15, 0.5]","[0.15, 0.5]",1,1,,,,,,,,,,,,,,,,,0,1,1,1,0,0,0,4,,,,,,,,,,,,,,,,,,,,,,,,,,,,,,,,,,,,,,,,,,,,,,,1024.822278045,None,1024.822278045,None,1024.822278045,None,s,1,1.5431314239995118,1026.3557640799995,None,1026.3557640799995,None,1026.3557640799995,None,1027.9550209650001,None,1027.9550209650001,None,1027.9550209650001,None,1027.9550209650001,None,,,,,,,,,,,,,,,,,,,,,,,,,,,,,,,,,,,,,,,,,,,,001,173,2020_Feb_27_0934,spring_faces,3.1.5,59.9445352397029,
condition files/Stage2_2.xlsx,,B1,T1,s,"['s', 'r']","['Stratego', 'Risk']","[-0.15, 0.5]","[0.15, 0.5]",1,1,,,,,,,,,,,,,,,,,0,1,1,1,0,1,1,2,,,,,,,,,,,,,,,,,,,,,,,,,,,,,,,,,,,,,,,,,,,,,,,1029.9218996530003,None,1029.9218996530003,None,1029.9218996530003,None,s,1,1.4338414370004102,1031.456969495,None,1031.456969495,None,1031.456969495,None,1032.9557240569998,None,1032.9557240569998,None,1032.9557240569998,None,1032.9557240569998,None,,,,,,,,,,,,,,,,,,,,,,,,,,,,,,,,,,,,,,,,,,,,001,173,2020_Feb_27_0934,spring_faces,3.1.5,59.9445352397029,
condition files/Stage2_2.xlsx,,B5,T5,s,"['s', 'r']","['Stratego', 'Risk']","[-0.15, 0.5]","[0.15, 0.5]",1,1,,,,,,,,,,,,,,,,,0,1,1,1,0,2,2,0,,,,,,,,,,,,,,,,,,,,,,,,,,,,,,,,,,,,,,,,,,,,,,,1034.9221307049997,None,1034.9221307049997,None,1034.9221307049997,None,s,1,1.8576622250002401,1036.4571520109998,None,1036.4571520109998,None,1036.4571520109998,None,1038.3723189549996,None,1038.3723189549996,None,1038.3723189549996,None,1038.3723189549996,None,,,,,,,,,,,,,,,,,,,,,,,,,,,,,,,,,,,,,,,,,,,,001,173,2020_Feb_27_0934,spring_faces,3.1.5,59.9445352397029,
condition files/Stage2_2.xlsx,,T4,B4,r,"['s', 'r']","['Stratego', 'Risk']","[-0.15, 0.5]","[0.15, 0.5]",1,1,,,,,,,,,,,,,,,,,0,1,1,1,0,3,3,5,,,,,,,,,,,,,,,,,,,,,,,,,,,,,,,,,,,,,,,,,,,,,,,1040.3379640239996,None,1040.3379640239996,None,1040.3379640239996,None,r,1,2.23497068100005,1041.8717880049994,None,1041.8717880049994,None,1041.8717880049994,None,1044.1737743609997,None,1044.1737743609997,None,1044.1737743609997,None,1044.1737743609997,None,,,,,,,,,,,,,,,,,,,,,,,,,,,,,,,,,,,,,,,,,,,,001,173,2020_Feb_27_0934,spring_faces,3.1.5,59.9445352397029,
condition files/Stage2_2.xlsx,,T2,B2,r,"['s', 'r']","['Stratego', 'Risk']","[-0.15, 0.5]","[0.15, 0.5]",1,1,,,,,,,,,,,,,,,,,0,1,1,1,0,4,4,3,,,,,,,,,,,,,,,,,,,,,,,,,,,,,,,,,,,,,,,,,,,,,,,1046.1383166109995,None,1046.1383166109995,None,1046.1383166109995,None,r,1,1.5699864379994324,1047.68881749,None,1047.68881749,None,1047.68881749,None,1049.3223765979997,None,1049.3223765979997,None,1049.3223765979997,None,1049.3223765979997,None,,,,,,,,,,,,,,,,,,,,,,,,,,,,,,,,,,,,,,,,,,,,001,173,2020_Feb_27_0934,spring_faces,3.1.5,59.9445352397029,
condition files/Stage2_2.xlsx,,T6,B6,r,"['s', 'r']","['Stratego', 'Risk']","[-0.15, 0.5]","[0.15, 0.5]",1,1,,,,,,,,,,,,,,,,,0,1,1,1,0,5,5,1,,,,,,,,,,,,,,,,,,,,,,,,,,,,,,,,,,,,,,,,,,,,,,,1051.288525419,None,1051.288525419,None,1051.288525419,None,r,1,1.1091755930001455,1052.8217071579998,None,1052.8217071579998,None,1052.8217071579998,None,1053.9888386440002,None,1053.9888386440002,None,1053.9888386440002,None,1053.9888386440002,None,,,,,,,,,,,,,,,,,,,,,,,,,,,,,,,,,,,,,,,,,,,,001,173,2020_Feb_27_0934,spring_faces,3.1.5,59.9445352397029,
condition files/Stage2_1.xlsx,,B6,T6,r,"['s', 'r']","['Stratego', 'Risk']","[-0.15, 0.5]","[0.15, 0.5]",1,1,,,,,,,,,,,,,,,,,0,2,2,2,0,0,0,1,,,,,,,,,,,,,,,,,,,,,,,,,,,,,,,,,,,,,,,,,,,,,,,1055.9725129140002,None,1055.9725129140002,None,1055.9725129140002,None,r,1,3.4150952509999115,1057.5076977570002,None,1057.5076977570002,None,1057.5076977570002,None,1060.9887433729996,None,1060.9887433729996,None,1060.9887433729996,None,1060.9887433729996,None,,,,,,,,,,,,,,,,,,,,,,,,,,,,,,,,,,,,,,,,,,,,001,173,2020_Feb_27_0934,spring_faces,3.1.5,59.9445352397029,
condition files/Stage2_1.xlsx,,B4,T4,r,"['s', 'r']","['Stratego', 'Risk']","[-0.15, 0.5]","[0.15, 0.5]",1,1,,,,,,,,,,,,,,,,,0,2,2,2,0,1,1,5,,,,,,,,,,,,,,,,,,,,,,,,,,,,,,,,,,,,,,,,,,,,,,,1062.9551855189998,None,1062.9551855189998,None,1062.9551855189998,None,r,1,6.641144610999618,1064.4897417569996,None,1064.4897417569996,None,1064.4897417569996,None,1071.1881497689997,None,1071.1881497689997,None,1071.1881497689997,None,1071.1881497689997,None,,,,,,,,,,,,,,,,,,,,,,,,,,,,,,,,,,,,,,,,,,,,001,173,2020_Feb_27_0934,spring_faces,3.1.5,59.9445352397029,
condition files/Stage2_1.xlsx,,T5,B5,s,"['s', 'r']","['Stratego', 'Risk']","[-0.15, 0.5]","[0.15, 0.5]",1,1,,,,,,,,,,,,,,,,,0,2,2,2,0,2,2,0,,,,,,,,,,,,,,,,,,,,,,,,,,,,,,,,,,,,,,,,,,,,,,,1073.1549622219995,None,1073.1549622219995,None,1073.1549622219995,None,s,1,10.71216534999985,1074.6906420720002,None,1074.6906420720002,None,1074.6906420720002,None,1085.4560629249995,None,1085.4560629249995,None,1085.4560629249995,None,1085.4560629249995,None,,,,,,,,,,,,,,,,,,,,,,,,,,,,,,,,,,,,,,,,,,,,001,173,2020_Feb_27_0934,spring_faces,3.1.5,59.9445352397029,
condition files/Stage2_1.xlsx,,B2,T2,r,"['s', 'r']","['Stratego', 'Risk']","[-0.15, 0.5]","[0.15, 0.5]",1,1,,,,,,,,,,,,,,,,,0,2,2,2,0,3,3,3,,,,,,,,,,,,,,,,,,,,,,,,,,,,,,,,,,,,,,,,,,,,,,,1087.4218147609995,None,1087.4218147609995,None,1087.4218147609995,None,r,1,1.8385633719999532,1088.9722384599995,None,1088.9722384599995,None,1088.9722384599995,None,1090.8888591749997,None,1090.8888591749997,None,1090.8888591749997,None,1090.8888591749997,None,,,,,,,,,,,,,,,,,,,,,,,,,,,,,,,,,,,,,,,,,,,,001,173,2020_Feb_27_0934,spring_faces,3.1.5,59.9445352397029,
condition files/Stage2_1.xlsx,,T1,B1,s,"['s', 'r']","['Stratego', 'Risk']","[-0.15, 0.5]","[0.15, 0.5]",1,1,,,,,,,,,,,,,,,,,0,2,2,2,0,4,4,2,,,,,,,,,,,,,,,,,,,,,,,,,,,,,,,,,,,,,,,,,,,,,,,1092.8383583179998,None,1092.8383583179998,None,1092.8383583179998,None,s,1,1.3666448030007814,1094.372160462,None,1094.372160462,None,1094.372160462,None,1095.8048257739997,None,1095.8048257739997,None,1095.8048257739997,None,1095.8048257739997,None,,,,,,,,,,,,,,,,,,,,,,,,,,,,,,,,,,,,,,,,,,,,001,173,2020_Feb_27_0934,spring_faces,3.1.5,59.9445352397029,
condition files/Stage2_1.xlsx,,T3,B3,s,"['s', 'r']","['Stratego', 'Risk']","[-0.15, 0.5]","[0.15, 0.5]",1,1,,,,,,,,,,,,,,,,,0,2,2,2,0,5,5,4,,,,,,,,,,,,,,,,,,,,,,,,,,,,,,,,,,,,,,,,,,,,,,,1097.7549836129997,None,1097.7549836129997,None,1097.7549836129997,None,s,1,2.8811138660003053,1099.2897001690003,None,1099.2897001690003,None,1099.2897001690003,None,1102.2222601110002,None,1102.2222601110002,None,1102.2222601110002,None,1102.2222601110002,None,,,,,,,,,,,,,,,,,,,,,,,,,,,,,,,,,,,,,,,,,,,,001,173,2020_Feb_27_0934,spring_faces,3.1.5,59.9445352397029,
condition files/Stage2_2.xlsx,,B3,T3,s,"['s', 'r']","['Stratego', 'Risk']","[-0.15, 0.5]","[0.15, 0.5]",1,1,,,,,,,,,,,,,,,,,0,3,3,3,0,0,0,4,,,,,,,,,,,,,,,,,,,,,,,,,,,,,,,,,,,,,,,,,,,,,,,1104.2047994560003,None,1104.2047994560003,None,1104.2047994560003,None,s,1,1.1683761539998159,1105.738448615,None,1105.738448615,None,1105.738448615,None,1106.9716640700003,None,1106.9716640700003,None,1106.9716640700003,None,1106.9716640700003,None,,,,,,,,,,,,,,,,,,,,,,,,,,,,,,,,,,,,,,,,,,,,001,173,2020_Feb_27_0934,spring_faces,3.1.5,59.9445352397029,
condition files/Stage2_2.xlsx,,B5,T5,s,"['s', 'r']","['Stratego', 'Risk']","[-0.15, 0.5]","[0.15, 0.5]",1,1,,,,,,,,,,,,,,,,,0,3,3,3,0,1,1,0,,,,,,,,,,,,,,,,,,,,,,,,,,,,,,,,,,,,,,,,,,,,,,,1108.938487469,None,1108.938487469,None,1108.938487469,None,s,1,3.185905618999641,1110.4888958759998,None,1110.4888958759998,None,1110.4888958759998,None,1113.7387130840002,None,1113.7387130840002,None,1113.7387130840002,None,1113.7387130840002,None,,,,,,,,,,,,,,,,,,,,,,,,,,,,,,,,,,,,,,,,,,,,001,173,2020_Feb_27_0934,spring_faces,3.1.5,59.9445352397029,
condition files/Stage2_2.xlsx,,T4,B4,r,"['s', 'r']","['Stratego', 'Risk']","[-0.15, 0.5]","[0.15, 0.5]",1,1,,,,,,,,,,,,,,,,,0,3,3,3,0,2,2,5,,,,,,,,,,,,,,,,,,,,,,,,,,,,,,,,,,,,,,,,,,,,,,,1115.7051400229998,None,1115.7051400229998,None,1115.7051400229998,None,r,1,1.810019364999789,1117.2407877310002,None,1117.2407877310002,None,1117.2407877310002,None,1119.1215810279996,None,1119.1215810279996,None,1119.1215810279996,None,1119.1215810279996,None,,,,,,,,,,,,,,,,,,,,,,,,,,,,,,,,,,,,,,,,,,,,001,173,2020_Feb_27_0934,spring_faces,3.1.5,59.9445352397029,
condition files/Stage2_2.xlsx,,T2,B2,r,"['s', 'r']","['Stratego', 'Risk']","[-0.15, 0.5]","[0.15, 0.5]",1,1,,,,,,,,,,,,,,,,,0,3,3,3,0,3,3,3,,,,,,,,,,,,,,,,,,,,,,,,,,,,,,,,,,,,,,,,,,,,,,,1121.0719070129994,None,1121.0719070129994,None,1121.0719070129994,None,r,1,1.803577371000756,1122.6072851799995,None,1122.6072851799995,None,1122.6072851799995,None,1124.471652887,None,1124.471652887,None,1124.471652887,None,1124.471652887,None,,,,,,,,,,,,,,,,,,,,,,,,,,,,,,,,,,,,,,,,,,,,001,173,2020_Feb_27_0934,spring_faces,3.1.5,59.9445352397029,
condition files/Stage2_2.xlsx,,T6,B6,r,"['s', 'r']","['Stratego', 'Risk']","[-0.15, 0.5]","[0.15, 0.5]",1,1,,,,,,,,,,,,,,,,,0,3,3,3,0,4,4,1,,,,,,,,,,,,,,,,,,,,,,,,,,,,,,,,,,,,,,,,,,,,,,,1126.4383582589994,None,1126.4383582589994,None,1126.4383582589994,None,r,1,1.6071712140001182,1127.971686507,None,1127.971686507,None,1127.971686507,None,1129.6389593399995,None,1129.6389593399995,None,1129.6389593399995,None,1129.6389593399995,None,,,,,,,,,,,,,,,,,,,,,,,,,,,,,,,,,,,,,,,,,,,,001,173,2020_Feb_27_0934,spring_faces,3.1.5,59.9445352397029,
condition files/Stage2_2.xlsx,,B1,T1,s,"['s', 'r']","['Stratego', 'Risk']","[-0.15, 0.5]","[0.15, 0.5]",1,1,,,,,,,,,,,,,,,,,0,3,3,3,0,5,5,2,,,,,,,,,,,,,,,,,,,,,,,,,,,,,,,,,,,,,,,,,,,,,,,1131.6053806369996,None,1131.6053806369996,None,1131.6053806369996,None,s,1,1.8323700490000192,1133.138426727,None,1133.138426727,None,1133.138426727,None,1135.023058188,None,1135.023058188,None,1135.023058188,None,1135.023058188,None,,,,,,,,,,,,,,,,,,,,,,,,,,,,,,,,,,,,,,,,,,,,001,173,2020_Feb_27_0934,spring_faces,3.1.5,59.9445352397029,
condition files/Stage2_1.xlsx,,B6,T6,r,"['s', 'r']","['Stratego', 'Risk']","[-0.15, 0.5]","[0.15, 0.5]",1,1,,,,,,,,,,,,,,,,,0,4,4,4,0,0,0,1,,,,,,,,,,,,,,,,,,,,,,,,,,,,,,,,,,,,,,,,,,,,,,,1137.0054366589998,None,1137.0054366589998,None,1137.0054366589998,None,r,1,1.0382288939999853,1138.5406718239997,None,1138.5406718239997,None,1138.5406718239997,None,1139.6409745830001,None,1139.6409745830001,None,1139.6409745830001,None,1139.6409745830001,None,,,,,,,,,,,,,,,,,,,,,,,,,,,,,,,,,,,,,,,,,,,,001,173,2020_Feb_27_0934,spring_faces,3.1.5,59.9445352397029,
condition files/Stage2_1.xlsx,,T1,B1,s,"['s', 'r']","['Stratego', 'Risk']","[-0.15, 0.5]","[0.15, 0.5]",1,1,,,,,,,,,,,,,,,,,0,4,4,4,0,1,1,2,,,,,,,,,,,,,,,,,,,,,,,,,,,,,,,,,,,,,,,,,,,,,,,1141.6051486359997,None,1141.6051486359997,None,1141.6051486359997,None,r,0,2.758649549000438,1143.1402317879997,None,1143.1402317879997,None,1143.1402317879997,None,1145.9562068989994,None,1145.9562068989994,None,1145.9562068989994,None,1145.9562068989994,None,,,,,,,,,,,,,,,,,,,,,,,,,,,,,,,,,,,,,,,,,,,,001,173,2020_Feb_27_0934,spring_faces,3.1.5,59.9445352397029,
condition files/Stage2_1.xlsx,,B4,T4,r,"['s', 'r']","['Stratego', 'Risk']","[-0.15, 0.5]","[0.15, 0.5]",1,1,,,,,,,,,,,,,,,,,0,4,4,4,0,2,2,5,,,,,,,,,,,,,,,,,,,,,,,,,,,,,,,,,,,,,,,,,,,,,,,1147.922008641,None,1147.922008641,None,1147.922008641,None,r,1,1.4513779009994323,1149.4554344120002,None,1149.4554344120002,None,1149.4554344120002,None,1150.9892414849996,None,1150.9892414849996,None,1150.9892414849996,None,1150.9892414849996,None,,,,,,,,,,,,,,,,,,,,,,,,,,,,,,,,,,,,,,,,,,,,001,173,2020_Feb_27_0934,spring_faces,3.1.5,59.9445352397029,
condition files/Stage2_1.xlsx,,B2,T2,r,"['s', 'r']","['Stratego', 'Risk']","[-0.15, 0.5]","[0.15, 0.5]",1,1,,,,,,,,,,,,,,,,,0,4,4,4,0,3,3,3,,,,,,,,,,,,,,,,,,,,,,,,,,,,,,,,,,,,,,,,,,,,,,,1152.9384073710003,None,1152.9384073710003,None,1152.9384073710003,None,r,1,1.2347434989997055,1154.4720330529994,None,1154.4720330529994,None,1154.4720330529994,None,1155.7720391099997,None,1155.7720391099997,None,1155.7720391099997,None,1155.7720391099997,None,,,,,,,,,,,,,,,,,,,,,,,,,,,,,,,,,,,,,,,,,,,,001,173,2020_Feb_27_0934,spring_faces,3.1.5,59.9445352397029,
