condsFile,subStage,cue1,cue2,correct,responseKeys,responseNames,cue1Position,cue2Position,cue1Opacity,cue2Opacity,stageLoop0.thisRepN,stageLoop0.thisTrialN,stageLoop0.thisN,stageLoop0.thisIndex,blockLoop0.thisRepN,blockLoop0.thisTrialN,blockLoop0.thisN,blockLoop0.thisIndex,stage1Loop.thisRepN,stage1Loop.thisTrialN,stage1Loop.thisN,stage1Loop.thisIndex,blockLoop1.thisRepN,blockLoop1.thisTrialN,blockLoop1.thisN,blockLoop1.thisIndex,stage2Loop.thisRepN,stage2Loop.thisTrialN,stage2Loop.thisN,stage2Loop.thisIndex,blockLoop2.thisRepN,blockLoop2.thisTrialN,blockLoop2.thisN,blockLoop2.thisIndex,testLoop.thisRepN,testLoop.thisTrialN,testLoop.thisN,testLoop.thisIndex,blockLoopTest.thisRepN,blockLoopTest.thisTrialN,blockLoopTest.thisN,blockLoopTest.thisIndex,cuePics,id_instr_text.started,id_instr_text.stopped,space_to_continue_2.started,space_to_continue_2.stopped,end_instructions_resp_3.keys,end_instructions_resp_3.rt,end_instructions_resp_3.started,end_instructions_resp_3.stopped,id_input_instr.started,id_input_instr.stopped,id_input_rect.started,id_input_rect.stopped,id_input_resp.keys,id_input_resp.rt,id_input_resp.started,id_input_resp.stopped,sonaID,id_input_text.started,id_input_text.stopped,final_text.started,final_text.stopped,instructions.started,instructions.stopped,end_instructions_resp.keys,end_instructions_resp.rt,end_instructions_resp.started,end_instructions_resp.stopped,space_to_continue.started,space_to_continue.stopped,instructions_stage0.started,instructions_stage0.stopped,end_instructions_resp_stage0.keys,end_instructions_resp_stage0.rt,end_instructions_resp_stage0.started,end_instructions_resp_stage0.stopped,space_to_continue_stage0.started,space_to_continue_stage0.stopped,text.started,text.stopped,resp_text1.started,resp_text1.stopped,resp_text2.started,resp_text2.stopped,trial_resp.keys,trial_resp.corr,trial_resp.rt,trial_resp.started,trial_resp.stopped,cue1Image.started,cue1Image.stopped,cue2Image.started,cue2Image.stopped,cue1Image_fb.started,cue1Image_fb.stopped,cue2Image_fb.started,cue2Image_fb.stopped,fb_text_answer.started,fb_text_answer.stopped,feedback_image.started,feedback_image.stopped,instructions_stage1.started,instructions_stage1.stopped,end_instructions_resp_stage1.keys,end_instructions_resp_stage1.rt,end_instructions_resp_stage1.started,end_instructions_resp_stage1.stopped,space_to_continue_stage1.started,space_to_continue_stage1.stopped,instructions_2.started,instructions_2.stopped,end_instructions_resp_2.keys,end_instructions_resp_2.rt,end_instructions_resp_2.started,end_instructions_resp_2.stopped,press_space_to_continue_stage2.started,press_space_to_continue_stage2.stopped,instructions_testStage1.started,instructions_testStage1.stopped,end_instructions_resp_test1.keys,end_instructions_resp_test1.rt,end_instructions_resp_test1.started,end_instructions_resp_test1.stopped,press_space_to_continue_test1.started,press_space_to_continue_test1.stopped,cue1Image_testChoice.started,cue1Image_testChoice.stopped,cue2Image_testChoice.started,cue2Image_testChoice.stopped,test_resp.keys,test_resp.corr,test_resp.rt,test_resp.started,test_resp.stopped,cue1Image_testConf.started,cue1Image_testConf.stopped,cue2Image_testConf.started,cue2Image_testConf.stopped,conf_reminder.started,conf_reminder.stopped,conf_rating.response,conf_rating.rt,conf_rating.started,conf_rating.stopped,session,participant,date,expName,psychopyVersion,frameRate,
,,,,,,,,,,,,,,,,,,,,,,,,,,,,,,,,,,,,,,,,,,,"{'none': 'pictures/20M_AN_C.png', 'alpha': 'pictures/SHINEd_apple.png', 'beta': 'pictures/SHINEd_pepper.png', 'theta': 'pictures/SHINEd_melon.png', 'phi': 'pictures/SHINEd_pear.png', 'T1': 'pictures/37M_AN_C.png', 'T2': 'pictures/33M_AN_C.png', 'T3': 'pictures/31M_AN_C.png', 'T4': 'pictures/25M_AN_C.png', 'T5': 'pictures/22M_AN_C.png', 'T6': 'pictures/20M_AN_C.png', 'B1': 'pictures/36M_NE_C.png', 'B2': 'pictures/32M_NE_C.png', 'B3': 'pictures/26M_NE_C.png', 'B4': 'pictures/38M_NE_C.png', 'B5': 'pictures/23M_NE_C.png', 'B6': 'pictures/34M_NE_C.png'}",13.45760924699971,None,18.440717626999685,None,space,48.6741837440004,18.440717626999685,None,,,,,,,,,,,,,,,,,,,,,,,,,,,,,,,,,,,,,,,,,,,,,,,,,,,,,,,,,,,,,,,,,,,,,,,,,,,,,,,,,,,,,,,,,,,,,,,,001,176,2020_Feb_27_1000,spring_faces,3.1.5,59.95542649804438,
,,,,,,,,,,,,,,,,,,,,,,,,,,,,,,,,,,,,,,,,,,,,,,,,,,,,67.49079715599964,None,67.49079715599964,None,"['1', '0', '1', '6', 'd', 'e', 's', 'a', 'i', 'backspace', '1', '0', '1', '6', 'd', 'e', 's', 'v', 'h', '1', '0', '1', '6', 'd', 'e', 'v', 'i', 'a']","[10.69602912299979, 11.160092201000225, 19.496039175000078, 20.360102978000214, 26.951980685999843, 27.527965533000497, 38.44003683400024, 38.920030891999886, 39.54404300999977, 44.632038769000246, 54.59997728500002, 54.72796725100034, 57.91202940099993, 58.439984835999894, 63.28803418100051, 63.76800447599999, 65.7999876949998, 66.10404761300015, 66.44008630000008, 85.40002903500044, 85.640043763, 90.19997433400022, 91.17603762199997, 97.9120367760006, 99.73603201100013, 105.48016716300026, 105.81602872700023, 106.6160280160002]",67.49079715599964,None,,,,,,,,,,,,,,,,,,,,,,,,,,,,,,,,,,,,,,,,,,,,,,,,,,,,,,,,,,,,,,,,,,,,,,,,,,,,,,,,,,,,,,,,001,176,2020_Feb_27_1000,spring_faces,3.1.5,59.95542649804438,
,,,,,,,,,,,,,,,,,,,,,,,,,,,,,,,,,,,,,,,,,,,,,,,,,,,,,,,,,,,,1016devia,67.49079715599964,None,67.49079715599964,None,179.1741719319998,None,space,6.812788360999548,184.17403173899947,None,,,,,,,,,,,,,,,,,,,,,,,,,,,,,,,,,,,,,,,,,,,,,,,,,,,,,,,,,,,,,,,,,,,,,,,,,,,,,001,176,2020_Feb_27_1000,spring_faces,3.1.5,59.95542649804438,
,,,,,,,,,,,,,,,,,,,,,,,,,,,,,,,,,,,,,,,,,,,,,,,,,,,,,,,,,,,,,,,,,,,,,,,184.17403173899947,None,191.023858175,None,space,4.322768744999848,196.02413415799947,None,,,,,,,,,,,,,,,,,,,,,,,,,,,,,,,,,,,,,,,,,,,,,,,,,,,,,,,,,,,,,,,,,,,,,001,176,2020_Feb_27_1000,spring_faces,3.1.5,59.95542649804438,
condition files/Stage0a.xlsx,0a,alpha,none,h,"['h', 'g']","['Chess', 'Go']","[0, 0.5]","[0, 0]",1,0,0,0,0,0,0,0,0,0,,,,,,,,,,,,,,,,,,,,,,,,,,,,,,,,,,,,,,,,,,,,,,,,,,,,,,,,,,,,,196.02413415799947,None,200.4072014509993,None,200.4072014509993,None,200.4072014509993,None,h,1,1.8767101109997384,201.97418274499978,None,201.97418274499978,None,201.97418274499978,None,203.92383603300004,None,203.92383603300004,None,203.92383603300004,None,203.92383603300004,None,,,,,,,,,,,,,,,,,,,,,,,,,,,,,,,,,,,,,,,,,,,,001,176,2020_Feb_27_1000,spring_faces,3.1.5,59.95542649804438,
condition files/Stage0a.xlsx,0a,beta,none,g,"['h', 'g']","['Chess', 'Go']","[0, 0.5]","[0, 0]",1,0,0,0,0,0,0,1,1,1,,,,,,,,,,,,,,,,,,,,,,,,,,,,,,,,,,,,,,,,,,,,,,,,,,,,,,,,,,,,,,,205.87423962399953,None,205.87423962399953,None,205.87423962399953,None,g,1,1.3541848249997201,207.40864196599978,None,207.40864196599978,None,207.40864196599978,None,208.8245084049995,None,208.8245084049995,None,208.8245084049995,None,208.8245084049995,None,,,,,,,,,,,,,,,,,,,,,,,,,,,,,,,,,,,,,,,,,,,,001,176,2020_Feb_27_1000,spring_faces,3.1.5,59.95542649804438,
condition files/Stage0a.xlsx,0a,alpha,none,h,"['h', 'g']","['Chess', 'Go']","[0, 0.5]","[0, 0]",1,0,0,1,1,1,0,0,0,0,,,,,,,,,,,,,,,,,,,,,,,,,,,,,,,,,,,,,,,,,,,,,,,,,,,,,,,,,,,,,,,210.80746568299946,None,210.80746568299946,None,210.80746568299946,None,h,1,0.9183399459998327,212.3404505819999,None,212.3404505819999,None,212.3404505819999,None,213.3243936989993,None,213.3243936989993,None,213.3243936989993,None,213.3243936989993,None,,,,,,,,,,,,,,,,,,,,,,,,,,,,,,,,,,,,,,,,,,,,001,176,2020_Feb_27_1000,spring_faces,3.1.5,59.95542649804438,
condition files/Stage0a.xlsx,0a,beta,none,g,"['h', 'g']","['Chess', 'Go']","[0, 0.5]","[0, 0]",1,0,0,1,1,1,0,1,1,1,,,,,,,,,,,,,,,,,,,,,,,,,,,,,,,,,,,,,,,,,,,,,,,,,,,,,,,,,,,,,,,215.2910554909995,None,215.2910554909995,None,215.2910554909995,None,g,1,0.8186746199999106,216.824140963,None,216.824140963,None,216.824140963,None,217.7071797839999,None,217.7071797839999,None,217.7071797839999,None,217.7071797839999,None,,,,,,,,,,,,,,,,,,,,,,,,,,,,,,,,,,,,,,,,,,,,001,176,2020_Feb_27_1000,spring_faces,3.1.5,59.95542649804438,
condition files/Stage0a.xlsx,0a,beta,none,g,"['h', 'g']","['Chess', 'Go']","[0, 0.5]","[0, 0]",1,0,0,2,2,2,0,0,0,1,,,,,,,,,,,,,,,,,,,,,,,,,,,,,,,,,,,,,,,,,,,,,,,,,,,,,,,,,,,,,,,219.69045216999984,None,219.69045216999984,None,219.69045216999984,None,g,1,0.8825648869997167,221.22425053699953,None,221.22425053699953,None,221.22425053699953,None,222.1575582509995,None,222.1575582509995,None,222.1575582509995,None,222.1575582509995,None,,,,,,,,,,,,,,,,,,,,,,,,,,,,,,,,,,,,,,,,,,,,001,176,2020_Feb_27_1000,spring_faces,3.1.5,59.95542649804438,
condition files/Stage0a.xlsx,0a,alpha,none,h,"['h', 'g']","['Chess', 'Go']","[0, 0.5]","[0, 0]",1,0,0,2,2,2,0,1,1,0,,,,,,,,,,,,,,,,,,,,,,,,,,,,,,,,,,,,,,,,,,,,,,,,,,,,,,,,,,,,,,,224.1239078589997,None,224.1239078589997,None,224.1239078589997,None,h,1,0.769722907999494,225.6571108369999,None,225.6571108369999,None,225.6571108369999,None,226.49053704199923,None,226.49053704199923,None,226.49053704199923,None,226.49053704199923,None,,,,,,,,,,,,,,,,,,,,,,,,,,,,,,,,,,,,,,,,,,,,001,176,2020_Feb_27_1000,spring_faces,3.1.5,59.95542649804438,
condition files/Stage0a.xlsx,0a,beta,none,g,"['h', 'g']","['Chess', 'Go']","[0, 0.5]","[0, 0]",1,0,0,3,3,3,0,0,0,1,,,,,,,,,,,,,,,,,,,,,,,,,,,,,,,,,,,,,,,,,,,,,,,,,,,,,,,,,,,,,,,228.47365849800008,None,228.47365849800008,None,228.47365849800008,None,g,1,0.8683912060005241,229.99039516599987,None,229.99039516599987,None,229.99039516599987,None,230.92405747199973,None,230.92405747199973,None,230.92405747199973,None,230.92405747199973,None,,,,,,,,,,,,,,,,,,,,,,,,,,,,,,,,,,,,,,,,,,,,001,176,2020_Feb_27_1000,spring_faces,3.1.5,59.95542649804438,
condition files/Stage0a.xlsx,0a,alpha,none,h,"['h', 'g']","['Chess', 'Go']","[0, 0.5]","[0, 0]",1,0,0,3,3,3,0,1,1,0,,,,,,,,,,,,,,,,,,,,,,,,,,,,,,,,,,,,,,,,,,,,,,,,,,,,,,,,,,,,,,,232.89067908699963,None,232.89067908699963,None,232.89067908699963,None,h,1,0.8829324349999297,234.42387688300005,None,234.42387688300005,None,234.42387688300005,None,235.357171011,None,235.357171011,None,235.357171011,None,235.357171011,None,,,,,,,,,,,,,,,,,,,,,,,,,,,,,,,,,,,,,,,,,,,,001,176,2020_Feb_27_1000,spring_faces,3.1.5,59.95542649804438,
condition files/Stage0a.xlsx,0a,beta,none,g,"['h', 'g']","['Chess', 'Go']","[0, 0.5]","[0, 0]",1,0,0,4,4,4,0,0,0,1,,,,,,,,,,,,,,,,,,,,,,,,,,,,,,,,,,,,,,,,,,,,,,,,,,,,,,,,,,,,,,,237.3405074559996,None,237.3405074559996,None,237.3405074559996,None,g,1,0.7367697709996719,238.87406171099974,None,238.87406171099974,None,238.87406171099974,None,239.67395673200008,None,239.67395673200008,None,239.67395673200008,None,239.67395673200008,None,,,,,,,,,,,,,,,,,,,,,,,,,,,,,,,,,,,,,,,,,,,,001,176,2020_Feb_27_1000,spring_faces,3.1.5,59.95542649804438,
condition files/Stage0a.xlsx,0a,alpha,none,h,"['h', 'g']","['Chess', 'Go']","[0, 0.5]","[0, 0]",1,0,0,4,4,4,0,1,1,0,,,,,,,,,,,,,,,,,,,,,,,,,,,,,,,,,,,,,,,,,,,,,,,,,,,,,,,,,,,,,,,241.64069939099954,None,241.64069939099954,None,241.64069939099954,None,h,1,0.5809264760000588,243.1738841489996,None,243.1738841489996,None,243.1738841489996,None,243.80740909399992,None,243.80740909399992,None,243.80740909399992,None,243.80740909399992,None,,,,,,,,,,,,,,,,,,,,,,,,,,,,,,,,,,,,,,,,,,,,001,176,2020_Feb_27_1000,spring_faces,3.1.5,59.95542649804438,
condition files/Stage0a.xlsx,0a,beta,none,g,"['h', 'g']","['Chess', 'Go']","[0, 0.5]","[0, 0]",1,0,0,5,5,5,0,0,0,1,,,,,,,,,,,,,,,,,,,,,,,,,,,,,,,,,,,,,,,,,,,,,,,,,,,,,,,,,,,,,,,245.79075348900005,None,245.79075348900005,None,245.79075348900005,None,g,1,0.6386870040005306,247.32416639999974,None,247.32416639999974,None,247.32416639999974,None,248.02417356099977,None,248.02417356099977,None,248.02417356099977,None,248.02417356099977,None,,,,,,,,,,,,,,,,,,,,,,,,,,,,,,,,,,,,,,,,,,,,001,176,2020_Feb_27_1000,spring_faces,3.1.5,59.95542649804438,
condition files/Stage0a.xlsx,0a,alpha,none,h,"['h', 'g']","['Chess', 'Go']","[0, 0.5]","[0, 0]",1,0,0,5,5,5,0,1,1,0,,,,,,,,,,,,,,,,,,,,,,,,,,,,,,,,,,,,,,,,,,,,,,,,,,,,,,,,,,,,,,,249.9907334009995,None,249.9907334009995,None,249.9907334009995,None,h,1,0.5355751269999018,251.52319739499944,None,251.52319739499944,None,251.52319739499944,None,252.12355873499928,None,252.12355873499928,None,252.12355873499928,None,252.12355873499928,None,,,,,,,,,,,,,,,,,,,,,,,,,,,,,,,,,,,,,,,,,,,,001,176,2020_Feb_27_1000,spring_faces,3.1.5,59.95542649804438,
condition files/Stage0b_1.xlsx,0b,alpha,none,h,"['h', 'g']","['Chess', 'Go']","[-0.15, 0.5]","[0.15, 0.5]",1,0,0,6,6,6,0,0,0,0,,,,,,,,,,,,,,,,,,,,,,,,,,,,,,,,,,,,,,,,,,,,,,,,,,,,,,,,,,,,,,,254.1075285399993,None,254.1075285399993,None,254.1075285399993,None,h,1,0.6741662919994269,255.64071957099986,None,255.64071957099986,None,255.64071957099986,None,256.3739385359995,None,256.3739385359995,None,256.3739385359995,None,256.3739385359995,None,,,,,,,,,,,,,,,,,,,,,,,,,,,,,,,,,,,,,,,,,,,,001,176,2020_Feb_27_1000,spring_faces,3.1.5,59.95542649804438,
condition files/Stage0b_1.xlsx,0b,none,beta,g,"['h', 'g']","['Chess', 'Go']","[-0.15, 0.5]","[0.15, 0.5]",0,1,0,6,6,6,0,1,1,1,,,,,,,,,,,,,,,,,,,,,,,,,,,,,,,,,,,,,,,,,,,,,,,,,,,,,,,,,,,,,,,258.3403095650001,None,258.3403095650001,None,258.3403095650001,None,g,1,0.5684045320003861,259.8903906709993,None,259.8903906709993,None,259.8903906709993,None,260.5404892099996,None,260.5404892099996,None,260.5404892099996,None,260.5404892099996,None,,,,,,,,,,,,,,,,,,,,,,,,,,,,,,,,,,,,,,,,,,,,001,176,2020_Feb_27_1000,spring_faces,3.1.5,59.95542649804438,
condition files/Stage0b_2.xlsx,0b,beta,none,g,"['h', 'g']","['Chess', 'Go']","[-0.15, 0.5]","[0.15, 0.5]",1,0,0,7,7,7,0,0,0,1,,,,,,,,,,,,,,,,,,,,,,,,,,,,,,,,,,,,,,,,,,,,,,,,,,,,,,,,,,,,,,,262.50745482099956,None,262.50745482099956,None,262.50745482099956,None,g,1,0.6425516760000392,264.0403246899996,None,264.0403246899996,None,264.0403246899996,None,264.7407461339999,None,264.7407461339999,None,264.7407461339999,None,264.7407461339999,None,,,,,,,,,,,,,,,,,,,,,,,,,,,,,,,,,,,,,,,,,,,,001,176,2020_Feb_27_1000,spring_faces,3.1.5,59.95542649804438,
condition files/Stage0b_2.xlsx,0b,none,alpha,h,"['h', 'g']","['Chess', 'Go']","[-0.15, 0.5]","[0.15, 0.5]",0,1,0,7,7,7,0,1,1,0,,,,,,,,,,,,,,,,,,,,,,,,,,,,,,,,,,,,,,,,,,,,,,,,,,,,,,,,,,,,,,,266.70701001399993,None,266.70701001399993,None,266.70701001399993,None,h,1,0.6335680920001323,268.25726232799934,None,268.25726232799934,None,268.25726232799934,None,268.9576924639996,None,268.9576924639996,None,268.9576924639996,None,268.9576924639996,None,,,,,,,,,,,,,,,,,,,,,,,,,,,,,,,,,,,,,,,,,,,,001,176,2020_Feb_27_1000,spring_faces,3.1.5,59.95542649804438,
condition files/Stage0b_1.xlsx,0b,none,beta,g,"['h', 'g']","['Chess', 'Go']","[-0.15, 0.5]","[0.15, 0.5]",0,1,0,8,8,8,0,0,0,1,,,,,,,,,,,,,,,,,,,,,,,,,,,,,,,,,,,,,,,,,,,,,,,,,,,,,,,,,,,,,,,270.9244462229999,None,270.9244462229999,None,270.9244462229999,None,g,1,0.5776988550005626,272.45718263399976,None,272.45718263399976,None,272.45718263399976,None,273.09124843099926,None,273.09124843099926,None,273.09124843099926,None,273.09124843099926,None,,,,,,,,,,,,,,,,,,,,,,,,,,,,,,,,,,,,,,,,,,,,001,176,2020_Feb_27_1000,spring_faces,3.1.5,59.95542649804438,
condition files/Stage0b_1.xlsx,0b,alpha,none,h,"['h', 'g']","['Chess', 'Go']","[-0.15, 0.5]","[0.15, 0.5]",1,0,0,8,8,8,0,1,1,0,,,,,,,,,,,,,,,,,,,,,,,,,,,,,,,,,,,,,,,,,,,,,,,,,,,,,,,,,,,,,,,275.05719738900007,None,275.05719738900007,None,275.05719738900007,None,h,1,0.6030937180003093,276.60773147500004,None,276.60773147500004,None,276.60773147500004,None,277.27651278099984,None,277.27651278099984,None,277.27651278099984,None,277.27651278099984,None,,,,,,,,,,,,,,,,,,,,,,,,,,,,,,,,,,,,,,,,,,,,001,176,2020_Feb_27_1000,spring_faces,3.1.5,59.95542649804438,
condition files/Stage0b_2.xlsx,0b,none,alpha,h,"['h', 'g']","['Chess', 'Go']","[-0.15, 0.5]","[0.15, 0.5]",0,1,0,9,9,9,0,0,0,0,,,,,,,,,,,,,,,,,,,,,,,,,,,,,,,,,,,,,,,,,,,,,,,,,,,,,,,,,,,,,,,279.25703287599936,None,279.25703287599936,None,279.25703287599936,None,h,1,0.6102527019993431,280.7925975479993,None,280.7925975479993,None,280.7925975479993,None,281.4570268819998,None,281.4570268819998,None,281.4570268819998,None,281.4570268819998,None,,,,,,,,,,,,,,,,,,,,,,,,,,,,,,,,,,,,,,,,,,,,001,176,2020_Feb_27_1000,spring_faces,3.1.5,59.95542649804438,
condition files/Stage0b_2.xlsx,0b,beta,none,g,"['h', 'g']","['Chess', 'Go']","[-0.15, 0.5]","[0.15, 0.5]",1,0,0,9,9,9,0,1,1,1,,,,,,,,,,,,,,,,,,,,,,,,,,,,,,,,,,,,,,,,,,,,,,,,,,,,,,,,,,,,,,,283.42377712300004,None,283.42377712300004,None,283.42377712300004,None,g,1,0.8452427140000509,284.95752868899945,None,284.95752868899945,None,284.95752868899945,None,285.86035315999925,None,285.86035315999925,None,285.86035315999925,None,285.86035315999925,None,,,,,,,,,,,,,,,,,,,,,,,,,,,,,,,,,,,,,,,,,,,,001,176,2020_Feb_27_1000,spring_faces,3.1.5,59.95542649804438,
condition files/Stage0b_1.xlsx,0b,alpha,none,h,"['h', 'g']","['Chess', 'Go']","[-0.15, 0.5]","[0.15, 0.5]",1,0,0,10,10,10,0,0,0,0,,,,,,,,,,,,,,,,,,,,,,,,,,,,,,,,,,,,,,,,,,,,,,,,,,,,,,,,,,,,,,,287.84100858500005,None,287.84100858500005,None,287.84100858500005,None,h,1,0.5889464490001046,289.37387959899934,None,289.37387959899934,None,289.37387959899934,None,290.02385477400003,None,290.02385477400003,None,290.02385477400003,None,290.02385477400003,None,,,,,,,,,,,,,,,,,,,,,,,,,,,,,,,,,,,,,,,,,,,,001,176,2020_Feb_27_1000,spring_faces,3.1.5,59.95542649804438,
condition files/Stage0b_1.xlsx,0b,none,beta,g,"['h', 'g']","['Chess', 'Go']","[-0.15, 0.5]","[0.15, 0.5]",0,1,0,10,10,10,0,1,1,1,,,,,,,,,,,,,,,,,,,,,,,,,,,,,,,,,,,,,,,,,,,,,,,,,,,,,,,,,,,,,,,291.989737459,None,291.989737459,None,291.989737459,None,g,1,0.7098149969997394,293.5410651530001,None,293.5410651530001,None,293.5410651530001,None,294.3112506469997,None,294.3112506469997,None,294.3112506469997,None,294.3112506469997,None,,,,,,,,,,,,,,,,,,,,,,,,,,,,,,,,,,,,,,,,,,,,001,176,2020_Feb_27_1000,spring_faces,3.1.5,59.95542649804438,
condition files/Stage0b_2.xlsx,0b,beta,none,g,"['h', 'g']","['Chess', 'Go']","[-0.15, 0.5]","[0.15, 0.5]",1,0,0,11,11,11,0,0,0,1,,,,,,,,,,,,,,,,,,,,,,,,,,,,,,,,,,,,,,,,,,,,,,,,,,,,,,,,,,,,,,,296.2906412989996,None,296.2906412989996,None,296.2906412989996,None,g,1,0.6658309850008663,297.8250044239994,None,297.8250044239994,None,297.8250044239994,None,298.54095556299944,None,298.54095556299944,None,298.54095556299944,None,298.54095556299944,None,,,,,,,,,,,,,,,,,,,,,,,,,,,,,,,,,,,,,,,,,,,,001,176,2020_Feb_27_1000,spring_faces,3.1.5,59.95542649804438,
condition files/Stage0b_2.xlsx,0b,none,alpha,h,"['h', 'g']","['Chess', 'Go']","[-0.15, 0.5]","[0.15, 0.5]",0,1,0,11,11,11,0,1,1,0,,,,,,,,,,,,,,,,,,,,,,,,,,,,,,,,,,,,,,,,,,,,,,,,,,,,,,,,,,,,,,,300.5068241459994,None,300.5068241459994,None,300.5068241459994,None,h,1,0.5149055649999355,302.0399191709994,None,302.0399191709994,None,302.0399191709994,None,302.6069552839999,None,302.6069552839999,None,302.6069552839999,None,302.6069552839999,None,,,,,,,,,,,,,,,,,,,,,,,,,,,,,,,,,,,,,,,,,,,,001,176,2020_Feb_27_1000,spring_faces,3.1.5,59.95542649804438,
condition files/Stage0c_1.xlsx,0c,phi,beta,g,"['h', 'g']","['Chess', 'Go']","[-0.15, 0.5]","[0.15, 0.5]",1,1,0,12,12,12,0,0,0,3,,,,,,,,,,,,,,,,,,,,,,,,,,,,,,,,,,,,,,,,,,,,,,,,,,,,,,,,,,,,,,,304.5902242209995,None,304.5902242209995,None,304.5902242209995,None,h,0,3.2941977290001887,306.12460749599995,None,306.12460749599995,None,306.12460749599995,None,309.47399512299944,None,309.47399512299944,None,309.47399512299944,None,309.47399512299944,None,,,,,,,,,,,,,,,,,,,,,,,,,,,,,,,,,,,,,,,,,,,,001,176,2020_Feb_27_1000,spring_faces,3.1.5,59.95542649804438,
condition files/Stage0c_1.xlsx,0c,alpha,phi,h,"['h', 'g']","['Chess', 'Go']","[-0.15, 0.5]","[0.15, 0.5]",1,1,0,12,12,12,0,1,1,1,,,,,,,,,,,,,,,,,,,,,,,,,,,,,,,,,,,,,,,,,,,,,,,,,,,,,,,,,,,,,,,311.4405666369994,None,311.4405666369994,None,311.4405666369994,None,h,1,1.3086297259997082,312.974234454,None,312.974234454,None,312.974234454,None,314.34060448499986,None,314.34060448499986,None,314.34060448499986,None,314.34060448499986,None,,,,,,,,,,,,,,,,,,,,,,,,,,,,,,,,,,,,,,,,,,,,001,176,2020_Feb_27_1000,spring_faces,3.1.5,59.95542649804438,
condition files/Stage0c_1.xlsx,0c,beta,theta,g,"['h', 'g']","['Chess', 'Go']","[-0.15, 0.5]","[0.15, 0.5]",1,1,0,12,12,12,0,2,2,2,,,,,,,,,,,,,,,,,,,,,,,,,,,,,,,,,,,,,,,,,,,,,,,,,,,,,,,,,,,,,,,316.30726176200005,None,316.30726176200005,None,316.30726176200005,None,g,1,1.4339864880003006,317.84079854599986,None,317.84079854599986,None,317.84079854599986,None,319.34058104999986,None,319.34058104999986,None,319.34058104999986,None,319.34058104999986,None,,,,,,,,,,,,,,,,,,,,,,,,,,,,,,,,,,,,,,,,,,,,001,176,2020_Feb_27_1000,spring_faces,3.1.5,59.95542649804438,
condition files/Stage0c_1.xlsx,0c,theta,alpha,h,"['h', 'g']","['Chess', 'Go']","[-0.15, 0.5]","[0.15, 0.5]",1,1,0,12,12,12,0,3,3,0,,,,,,,,,,,,,,,,,,,,,,,,,,,,,,,,,,,,,,,,,,,,,,,,,,,,,,,,,,,,,,,321.307291741,None,321.307291741,None,321.307291741,None,h,1,1.0420891849998952,322.84079133699925,None,322.84079133699925,None,322.84079133699925,None,323.9403589809999,None,323.9403589809999,None,323.9403589809999,None,323.9403589809999,None,,,,,,,,,,,,,,,,,,,,,,,,,,,,,,,,,,,,,,,,,,,,001,176,2020_Feb_27_1000,spring_faces,3.1.5,59.95542649804438,
condition files/Stage0c_2.xlsx,0c,phi,alpha,h,"['h', 'g']","['Chess', 'Go']","[-0.15, 0.5]","[0.15, 0.5]",1,1,0,13,13,13,0,0,0,1,,,,,,,,,,,,,,,,,,,,,,,,,,,,,,,,,,,,,,,,,,,,,,,,,,,,,,,,,,,,,,,325.9243515069993,None,325.9243515069993,None,325.9243515069993,None,h,1,1.017627160000302,327.457144987,None,327.457144987,None,327.457144987,None,328.5269450099995,None,328.5269450099995,None,328.5269450099995,None,328.5269450099995,None,,,,,,,,,,,,,,,,,,,,,,,,,,,,,,,,,,,,,,,,,,,,001,176,2020_Feb_27_1000,spring_faces,3.1.5,59.95542649804438,
condition files/Stage0c_2.xlsx,0c,theta,beta,g,"['h', 'g']","['Chess', 'Go']","[-0.15, 0.5]","[0.15, 0.5]",1,1,0,13,13,13,0,1,1,2,,,,,,,,,,,,,,,,,,,,,,,,,,,,,,,,,,,,,,,,,,,,,,,,,,,,,,,,,,,,,,,330.50729101199977,None,330.50729101199977,None,330.50729101199977,None,g,1,1.0582627110006797,332.04061918499974,None,332.04061918499974,None,332.04061918499974,None,333.157440338,None,333.157440338,None,333.157440338,None,333.157440338,None,,,,,,,,,,,,,,,,,,,,,,,,,,,,,,,,,,,,,,,,,,,,001,176,2020_Feb_27_1000,spring_faces,3.1.5,59.95542649804438,
condition files/Stage0c_2.xlsx,0c,beta,phi,g,"['h', 'g']","['Chess', 'Go']","[-0.15, 0.5]","[0.15, 0.5]",1,1,0,13,13,13,0,2,2,3,,,,,,,,,,,,,,,,,,,,,,,,,,,,,,,,,,,,,,,,,,,,,,,,,,,,,,,,,,,,,,,335.1237624859996,None,335.1237624859996,None,335.1237624859996,None,g,1,1.1613286539995897,336.6574737109995,None,336.6574737109995,None,336.6574737109995,None,337.8597364119996,None,337.8597364119996,None,337.8597364119996,None,337.8597364119996,None,,,,,,,,,,,,,,,,,,,,,,,,,,,,,,,,,,,,,,,,,,,,001,176,2020_Feb_27_1000,spring_faces,3.1.5,59.95542649804438,
condition files/Stage0c_2.xlsx,0c,alpha,theta,h,"['h', 'g']","['Chess', 'Go']","[-0.15, 0.5]","[0.15, 0.5]",1,1,0,13,13,13,0,3,3,0,,,,,,,,,,,,,,,,,,,,,,,,,,,,,,,,,,,,,,,,,,,,,,,,,,,,,,,,,,,,,,,339.8408220450001,None,339.8408220450001,None,339.8408220450001,None,h,1,0.9887240699999893,341.37409188199945,None,341.37409188199945,None,341.37409188199945,None,342.42412109999987,None,342.42412109999987,None,342.42412109999987,None,342.42412109999987,None,,,,,,,,,,,,,,,,,,,,,,,,,,,,,,,,,,,,,,,,,,,,001,176,2020_Feb_27_1000,spring_faces,3.1.5,59.95542649804438,
condition files/Stage0c_1.xlsx,0c,theta,alpha,h,"['h', 'g']","['Chess', 'Go']","[-0.15, 0.5]","[0.15, 0.5]",1,1,0,14,14,14,0,0,0,0,,,,,,,,,,,,,,,,,,,,,,,,,,,,,,,,,,,,,,,,,,,,,,,,,,,,,,,,,,,,,,,344.4075100989994,None,344.4075100989994,None,344.4075100989994,None,h,1,0.9179906899998969,345.940833355,None,345.940833355,None,345.940833355,None,346.9071885659996,None,346.9071885659996,None,346.9071885659996,None,346.9071885659996,None,,,,,,,,,,,,,,,,,,,,,,,,,,,,,,,,,,,,,,,,,,,,001,176,2020_Feb_27_1000,spring_faces,3.1.5,59.95542649804438,
condition files/Stage0c_1.xlsx,0c,phi,beta,g,"['h', 'g']","['Chess', 'Go']","[-0.15, 0.5]","[0.15, 0.5]",1,1,0,14,14,14,0,1,1,3,,,,,,,,,,,,,,,,,,,,,,,,,,,,,,,,,,,,,,,,,,,,,,,,,,,,,,,,,,,,,,,348.8905080929999,None,348.8905080929999,None,348.8905080929999,None,g,1,0.7064395260003948,350.42434392799987,None,350.42434392799987,None,350.42434392799987,None,351.1906885039998,None,351.1906885039998,None,351.1906885039998,None,351.1906885039998,None,,,,,,,,,,,,,,,,,,,,,,,,,,,,,,,,,,,,,,,,,,,,001,176,2020_Feb_27_1000,spring_faces,3.1.5,59.95542649804438,
condition files/Stage0c_1.xlsx,0c,beta,theta,g,"['h', 'g']","['Chess', 'Go']","[-0.15, 0.5]","[0.15, 0.5]",1,1,0,14,14,14,0,2,2,2,,,,,,,,,,,,,,,,,,,,,,,,,,,,,,,,,,,,,,,,,,,,,,,,,,,,,,,,,,,,,,,353.15710774499985,None,353.15710774499985,None,353.15710774499985,None,g,1,0.728480091000165,354.69032212799993,None,354.69032212799993,None,354.69032212799993,None,355.4581614809995,None,355.4581614809995,None,355.4581614809995,None,355.4581614809995,None,,,,,,,,,,,,,,,,,,,,,,,,,,,,,,,,,,,,,,,,,,,,001,176,2020_Feb_27_1000,spring_faces,3.1.5,59.95542649804438,
condition files/Stage0c_1.xlsx,0c,alpha,phi,h,"['h', 'g']","['Chess', 'Go']","[-0.15, 0.5]","[0.15, 0.5]",1,1,0,14,14,14,0,3,3,1,,,,,,,,,,,,,,,,,,,,,,,,,,,,,,,,,,,,,,,,,,,,,,,,,,,,,,,,,,,,,,,357.4399626579998,None,357.4399626579998,None,357.4399626579998,None,h,1,0.6370544030005476,358.97378095599925,None,358.97378095599925,None,358.97378095599925,None,359.6907094949993,None,359.6907094949993,None,359.6907094949993,None,359.6907094949993,None,,,,,,,,,,,,,,,,,,,,,,,,,,,,,,,,,,,,,,,,,,,,001,176,2020_Feb_27_1000,spring_faces,3.1.5,59.95542649804438,
condition files/Stage0c_2.xlsx,0c,theta,beta,g,"['h', 'g']","['Chess', 'Go']","[-0.15, 0.5]","[0.15, 0.5]",1,1,0,15,15,15,0,0,0,2,,,,,,,,,,,,,,,,,,,,,,,,,,,,,,,,,,,,,,,,,,,,,,,,,,,,,,,,,,,,,,,361.65676416399947,None,361.65676416399947,None,361.65676416399947,None,g,1,0.980590119000226,363.1742195029992,None,363.1742195029992,None,363.1742195029992,None,364.20736232999934,None,364.20736232999934,None,364.20736232999934,None,364.20736232999934,None,,,,,,,,,,,,,,,,,,,,,,,,,,,,,,,,,,,,,,,,,,,,001,176,2020_Feb_27_1000,spring_faces,3.1.5,59.95542649804438,
condition files/Stage0c_2.xlsx,0c,beta,phi,g,"['h', 'g']","['Chess', 'Go']","[-0.15, 0.5]","[0.15, 0.5]",1,1,0,15,15,15,0,1,1,3,,,,,,,,,,,,,,,,,,,,,,,,,,,,,,,,,,,,,,,,,,,,,,,,,,,,,,,,,,,,,,,366.1739658309998,None,366.1739658309998,None,366.1739658309998,None,g,1,0.6234787919993323,367.7072784689999,None,367.7072784689999,None,367.7072784689999,None,368.39088823399925,None,368.39088823399925,None,368.39088823399925,None,368.39088823399925,None,,,,,,,,,,,,,,,,,,,,,,,,,,,,,,,,,,,,,,,,,,,,001,176,2020_Feb_27_1000,spring_faces,3.1.5,59.95542649804438,
condition files/Stage0c_2.xlsx,0c,phi,alpha,h,"['h', 'g']","['Chess', 'Go']","[-0.15, 0.5]","[0.15, 0.5]",1,1,0,15,15,15,0,2,2,1,,,,,,,,,,,,,,,,,,,,,,,,,,,,,,,,,,,,,,,,,,,,,,,,,,,,,,,,,,,,,,,370.35693228799937,None,370.35693228799937,None,370.35693228799937,None,h,1,0.7605224240005555,371.89037872099925,None,371.89037872099925,None,371.89037872099925,None,372.7075656219995,None,372.7075656219995,None,372.7075656219995,None,372.7075656219995,None,,,,,,,,,,,,,,,,,,,,,,,,,,,,,,,,,,,,,,,,,,,,001,176,2020_Feb_27_1000,spring_faces,3.1.5,59.95542649804438,
condition files/Stage0c_2.xlsx,0c,alpha,theta,h,"['h', 'g']","['Chess', 'Go']","[-0.15, 0.5]","[0.15, 0.5]",1,1,0,15,15,15,0,3,3,0,,,,,,,,,,,,,,,,,,,,,,,,,,,,,,,,,,,,,,,,,,,,,,,,,,,,,,,,,,,,,,,374.67350315399926,None,374.67350315399926,None,374.67350315399926,None,h,1,0.7634215680000125,376.2074431430001,None,376.2074431430001,None,376.2074431430001,None,377.0082397769993,None,377.0082397769993,None,377.0082397769993,None,377.0082397769993,None,,,,,,,,,,,,,,,,,,,,,,,,,,,,,,,,,,,,,,,,,,,,001,176,2020_Feb_27_1000,spring_faces,3.1.5,59.95542649804438,
condition files/Stage0c_1.xlsx,0c,beta,theta,g,"['h', 'g']","['Chess', 'Go']","[-0.15, 0.5]","[0.15, 0.5]",1,1,0,16,16,16,0,0,0,2,,,,,,,,,,,,,,,,,,,,,,,,,,,,,,,,,,,,,,,,,,,,,,,,,,,,,,,,,,,,,,,379.00744485199994,None,379.00744485199994,None,379.00744485199994,None,g,1,1.262292709000576,380.5405393329993,None,380.5405393329993,None,380.5405393329993,None,381.8569349829995,None,381.8569349829995,None,381.8569349829995,None,381.8569349829995,None,,,,,,,,,,,,,,,,,,,,,,,,,,,,,,,,,,,,,,,,,,,,001,176,2020_Feb_27_1000,spring_faces,3.1.5,59.95542649804438,
condition files/Stage0c_1.xlsx,0c,theta,alpha,h,"['h', 'g']","['Chess', 'Go']","[-0.15, 0.5]","[0.15, 0.5]",1,1,0,16,16,16,0,1,1,0,,,,,,,,,,,,,,,,,,,,,,,,,,,,,,,,,,,,,,,,,,,,,,,,,,,,,,,,,,,,,,,383.82389062899983,None,383.82389062899983,None,383.82389062899983,None,h,1,0.8138707179996345,385.3570469719998,None,385.3570469719998,None,385.3570469719998,None,386.2245308349993,None,386.2245308349993,None,386.2245308349993,None,386.2245308349993,None,,,,,,,,,,,,,,,,,,,,,,,,,,,,,,,,,,,,,,,,,,,,001,176,2020_Feb_27_1000,spring_faces,3.1.5,59.95542649804438,
condition files/Stage0c_1.xlsx,0c,phi,beta,g,"['h', 'g']","['Chess', 'Go']","[-0.15, 0.5]","[0.15, 0.5]",1,1,0,16,16,16,0,2,2,3,,,,,,,,,,,,,,,,,,,,,,,,,,,,,,,,,,,,,,,,,,,,,,,,,,,,,,,,,,,,,,,388.1903427449997,None,388.1903427449997,None,388.1903427449997,None,g,1,0.8471563769999193,389.7237158170001,None,389.7237158170001,None,389.7237158170001,None,390.623600119,None,390.623600119,None,390.623600119,None,390.623600119,None,,,,,,,,,,,,,,,,,,,,,,,,,,,,,,,,,,,,,,,,,,,,001,176,2020_Feb_27_1000,spring_faces,3.1.5,59.95542649804438,
condition files/Stage0c_1.xlsx,0c,alpha,phi,h,"['h', 'g']","['Chess', 'Go']","[-0.15, 0.5]","[0.15, 0.5]",1,1,0,16,16,16,0,3,3,1,,,,,,,,,,,,,,,,,,,,,,,,,,,,,,,,,,,,,,,,,,,,,,,,,,,,,,,,,,,,,,,392.59019695499956,None,392.59019695499956,None,392.59019695499956,None,h,1,0.686254315000042,394.12457061499936,None,394.12457061499936,None,394.12457061499936,None,394.8736880009992,None,394.8736880009992,None,394.8736880009992,None,394.8736880009992,None,,,,,,,,,,,,,,,,,,,,,,,,,,,,,,,,,,,,,,,,,,,,001,176,2020_Feb_27_1000,spring_faces,3.1.5,59.95542649804438,
condition files/Stage0c_2.xlsx,0c,phi,alpha,h,"['h', 'g']","['Chess', 'Go']","[-0.15, 0.5]","[0.15, 0.5]",1,1,0,17,17,17,0,0,0,1,,,,,,,,,,,,,,,,,,,,,,,,,,,,,,,,,,,,,,,,,,,,,,,,,,,,,,,,,,,,,,,396.8576420929994,None,396.8576420929994,None,396.8576420929994,None,h,1,0.7881915210000443,398.3906465069995,None,398.3906465069995,None,398.3906465069995,None,399.2248874329998,None,399.2248874329998,None,399.2248874329998,None,399.2248874329998,None,,,,,,,,,,,,,,,,,,,,,,,,,,,,,,,,,,,,,,,,,,,,001,176,2020_Feb_27_1000,spring_faces,3.1.5,59.95542649804438,
condition files/Stage0c_2.xlsx,0c,alpha,theta,h,"['h', 'g']","['Chess', 'Go']","[-0.15, 0.5]","[0.15, 0.5]",1,1,0,17,17,17,0,1,1,0,,,,,,,,,,,,,,,,,,,,,,,,,,,,,,,,,,,,,,,,,,,,,,,,,,,,,,,,,,,,,,,401.2072077919993,None,401.2072077919993,None,401.2072077919993,None,h,1,0.8858577999999397,402.74096669199935,None,402.74096669199935,None,402.74096669199935,None,403.67462720099957,None,403.67462720099957,None,403.67462720099957,None,403.67462720099957,None,,,,,,,,,,,,,,,,,,,,,,,,,,,,,,,,,,,,,,,,,,,,001,176,2020_Feb_27_1000,spring_faces,3.1.5,59.95542649804438,
condition files/Stage0c_2.xlsx,0c,beta,phi,g,"['h', 'g']","['Chess', 'Go']","[-0.15, 0.5]","[0.15, 0.5]",1,1,0,17,17,17,0,2,2,3,,,,,,,,,,,,,,,,,,,,,,,,,,,,,,,,,,,,,,,,,,,,,,,,,,,,,,,,,,,,,,,405.65702097899975,None,405.65702097899975,None,405.65702097899975,None,g,1,0.8361910650000937,407.19059532199935,None,407.19059532199935,None,407.19059532199935,None,408.0908919829999,None,408.0908919829999,None,408.0908919829999,None,408.0908919829999,None,,,,,,,,,,,,,,,,,,,,,,,,,,,,,,,,,,,,,,,,,,,,001,176,2020_Feb_27_1000,spring_faces,3.1.5,59.95542649804438,
condition files/Stage0c_2.xlsx,0c,theta,beta,g,"['h', 'g']","['Chess', 'Go']","[-0.15, 0.5]","[0.15, 0.5]",1,1,0,17,17,17,0,3,3,2,,,,,,,,,,,,,,,,,,,,,,,,,,,,,,,,,,,,,,,,,,,,,,,,,,,,,,,,,,,,,,,410.05718516399975,None,410.05718516399975,None,410.05718516399975,None,g,1,0.820285265000166,411.59054983999977,None,411.59054983999977,None,411.59054983999977,None,412.4595611469995,None,412.4595611469995,None,412.4595611469995,None,412.4595611469995,None,,,,,,,,,,,,,,,,,,,,,,,,,,,,,,,,,,,,,,,,,,,,001,176,2020_Feb_27_1000,spring_faces,3.1.5,59.95542649804438,
,,,,,,,,,,,,,,,,,,,,,,,,,,,,,,,,,,,,,,,,,,,,,,,,,,,,,,,,,,,,,,,,,,,,,,,,,,,,,,,,,,,,,,,,,,,,,,,,,,,,,,,,414.45742044799954,None,space,2.8576545519999854,419.4572524949999,None,,,,,,,,,,,,,,,,,,,,,,,,,,,,,,,,,,,,,,001,176,2020_Feb_27_1000,spring_faces,3.1.5,59.95542649804438,
condition files/Stage1_1.xlsx,,B3,T3,c,"['c', 'm']","['Clue', 'Monopoly']","[-0.15, 0.5]","[0.15, 0.5]",1,1,,,,,,,,,0,0,0,0,0,0,0,4,,,,,,,,,,,,,,,,,,,,,,,,,,,,,,,,,,,,,,,,,,,,,,,,,,,,,,,422.3737839709993,None,422.3737839709993,None,422.3737839709993,None,c,1,1.3512178769997263,423.907541388,None,423.907541388,None,423.907541388,None,425.3398267469993,None,425.3398267469993,None,425.3398267469993,None,425.3398267469993,None,,,,,,,419.4572524949999,None,,,,,,,,,,,,,,,,,,,,,,,,,,,,,,,,,,,,001,176,2020_Feb_27_1000,spring_faces,3.1.5,59.95542649804438,
condition files/Stage1_1.xlsx,,T3,B4,c,"['c', 'm']","['Clue', 'Monopoly']","[-0.15, 0.5]","[0.15, 0.5]",1,1,,,,,,,,,0,0,0,0,0,1,1,5,,,,,,,,,,,,,,,,,,,,,,,,,,,,,,,,,,,,,,,,,,,,,,,,,,,,,,,427.2898668479993,None,427.2898668479993,None,427.2898668479993,None,m,0,2.43256572700011,428.87424401799944,None,428.87424401799944,None,428.87424401799944,None,431.35719167999923,None,431.35719167999923,None,431.35719167999923,None,431.35719167999923,None,,,,,,,,,,,,,,,,,,,,,,,,,,,,,,,,,,,,,,,,,,,,001,176,2020_Feb_27_1000,spring_faces,3.1.5,59.95542649804438,
condition files/Stage1_1.xlsx,,B2,T1,m,"['c', 'm']","['Clue', 'Monopoly']","[-0.15, 0.5]","[0.15, 0.5]",1,1,,,,,,,,,0,0,0,0,0,2,2,2,,,,,,,,,,,,,,,,,,,,,,,,,,,,,,,,,,,,,,,,,,,,,,,,,,,,,,,433.32332823699926,None,433.32332823699926,None,433.32332823699926,None,m,1,1.1672739240002556,434.9074916359996,None,434.9074916359996,None,434.9074916359996,None,436.1414532939998,None,436.1414532939998,None,436.1414532939998,None,436.1414532939998,None,,,,,,,,,,,,,,,,,,,,,,,,,,,,,,,,,,,,,,,,,,,,001,176,2020_Feb_27_1000,spring_faces,3.1.5,59.95542649804438,
condition files/Stage1_1.xlsx,,T4,B3,m,"['c', 'm']","['Clue', 'Monopoly']","[-0.15, 0.5]","[0.15, 0.5]",1,1,,,,,,,,,0,0,0,0,0,3,3,6,,,,,,,,,,,,,,,,,,,,,,,,,,,,,,,,,,,,,,,,,,,,,,,,,,,,,,,438.10728610499973,None,438.10728610499973,None,438.10728610499973,None,m,1,1.3304939009994996,439.64031326499935,None,439.64031326499935,None,439.64031326499935,None,441.0242424709995,None,441.0242424709995,None,441.0242424709995,None,441.0242424709995,None,,,,,,,,,,,,,,,,,,,,,,,,,,,,,,,,,,,,,,,,,,,,001,176,2020_Feb_27_1000,spring_faces,3.1.5,59.95542649804438,
condition files/Stage1_1.xlsx,,T2,B2,m,"['c', 'm']","['Clue', 'Monopoly']","[-0.15, 0.5]","[0.15, 0.5]",1,1,,,,,,,,,0,0,0,0,0,4,4,3,,,,,,,,,,,,,,,,,,,,,,,,,,,,,,,,,,,,,,,,,,,,,,,,,,,,,,,443.0074517189996,None,443.0074517189996,None,443.0074517189996,None,c,0,2.5913935099997616,444.52349142,None,444.52349142,None,444.52349142,None,447.1738699819998,None,447.1738699819998,None,447.1738699819998,None,447.1738699819998,None,,,,,,,,,,,,,,,,,,,,,,,,,,,,,,,,,,,,,,,,,,,,001,176,2020_Feb_27_1000,spring_faces,3.1.5,59.95542649804438,
condition files/Stage1_1.xlsx,,T1,B1,c,"['c', 'm']","['Clue', 'Monopoly']","[-0.15, 0.5]","[0.15, 0.5]",1,1,,,,,,,,,0,0,0,0,0,5,5,0,,,,,,,,,,,,,,,,,,,,,,,,,,,,,,,,,,,,,,,,,,,,,,,,,,,,,,,449.14050087599935,None,449.14050087599935,None,449.14050087599935,None,c,1,1.3825584670003082,450.72425921600006,None,450.72425921600006,None,450.72425921600006,None,452.15919575799944,None,452.15919575799944,None,452.15919575799944,None,452.15919575799944,None,,,,,,,,,,,,,,,,,,,,,,,,,,,,,,,,,,,,,,,,,,,,001,176,2020_Feb_27_1000,spring_faces,3.1.5,59.95542649804438,
condition files/Stage1_1.xlsx,,B1,T2,c,"['c', 'm']","['Clue', 'Monopoly']","[-0.15, 0.5]","[0.15, 0.5]",1,1,,,,,,,,,0,0,0,0,0,6,6,1,,,,,,,,,,,,,,,,,,,,,,,,,,,,,,,,,,,,,,,,,,,,,,,,,,,,,,,454.12391090799974,None,454.12391090799974,None,454.12391090799974,None,c,1,1.4737306789993454,455.6571724509995,None,455.6571724509995,None,455.6571724509995,None,457.1908026860001,None,457.1908026860001,None,457.1908026860001,None,457.1908026860001,None,,,,,,,,,,,,,,,,,,,,,,,,,,,,,,,,,,,,,,,,,,,,001,176,2020_Feb_27_1000,spring_faces,3.1.5,59.95542649804438,
condition files/Stage1_1.xlsx,,B4,T4,m,"['c', 'm']","['Clue', 'Monopoly']","[-0.15, 0.5]","[0.15, 0.5]",1,1,,,,,,,,,0,0,0,0,0,7,7,7,,,,,,,,,,,,,,,,,,,,,,,,,,,,,,,,,,,,,,,,,,,,,,,,,,,,,,,459.15664480599935,None,459.15664480599935,None,459.15664480599935,None,c,0,1.1766359540006306,460.690198196,None,460.690198196,None,460.690198196,None,461.9240241159996,None,461.9240241159996,None,461.9240241159996,None,461.9240241159996,None,,,,,,,,,,,,,,,,,,,,,,,,,,,,,,,,,,,,,,,,,,,,001,176,2020_Feb_27_1000,spring_faces,3.1.5,59.95542649804438,
condition files/Stage1_2.xlsx,,T1,B2,m,"['c', 'm']","['Clue', 'Monopoly']","[-0.15, 0.5]","[0.15, 0.5]",1,1,,,,,,,,,0,1,1,1,0,0,0,2,,,,,,,,,,,,,,,,,,,,,,,,,,,,,,,,,,,,,,,,,,,,,,,,,,,,,,,463.9071612459993,None,463.9071612459993,None,463.9071612459993,None,m,1,1.5145965349993276,465.4401949309995,None,465.4401949309995,None,465.4401949309995,None,467.0075061179996,None,467.0075061179996,None,467.0075061179996,None,467.0075061179996,None,,,,,,,,,,,,,,,,,,,,,,,,,,,,,,,,,,,,,,,,,,,,001,176,2020_Feb_27_1000,spring_faces,3.1.5,59.95542649804438,
condition files/Stage1_2.xlsx,,T3,B3,c,"['c', 'm']","['Clue', 'Monopoly']","[-0.15, 0.5]","[0.15, 0.5]",1,1,,,,,,,,,0,1,1,1,0,1,1,4,,,,,,,,,,,,,,,,,,,,,,,,,,,,,,,,,,,,,,,,,,,,,,,,,,,,,,,468.97323526699984,None,468.97323526699984,None,468.97323526699984,None,m,0,1.9829879169992637,470.50785726699996,None,470.50785726699996,None,470.50785726699996,None,472.54160307499933,None,472.54160307499933,None,472.54160307499933,None,472.54160307499933,None,,,,,,,,,,,,,,,,,,,,,,,,,,,,,,,,,,,,,,,,,,,,001,176,2020_Feb_27_1000,spring_faces,3.1.5,59.95542649804438,
condition files/Stage1_2.xlsx,,B3,T4,m,"['c', 'm']","['Clue', 'Monopoly']","[-0.15, 0.5]","[0.15, 0.5]",1,1,,,,,,,,,0,1,1,1,0,2,2,6,,,,,,,,,,,,,,,,,,,,,,,,,,,,,,,,,,,,,,,,,,,,,,,,,,,,,,,474.5072611229998,None,474.5072611229998,None,474.5072611229998,None,c,0,1.57021517999965,476.04062351599987,None,476.04062351599987,None,476.04062351599987,None,477.6767062549998,None,477.6767062549998,None,477.6767062549998,None,477.6767062549998,None,,,,,,,,,,,,,,,,,,,,,,,,,,,,,,,,,,,,,,,,,,,,001,176,2020_Feb_27_1000,spring_faces,3.1.5,59.95542649804438,
condition files/Stage1_2.xlsx,,T4,B4,m,"['c', 'm']","['Clue', 'Monopoly']","[-0.15, 0.5]","[0.15, 0.5]",1,1,,,,,,,,,0,1,1,1,0,3,3,7,,,,,,,,,,,,,,,,,,,,,,,,,,,,,,,,,,,,,,,,,,,,,,,,,,,,,,,479.64076744699923,None,479.64076744699923,None,479.64076744699923,None,m,1,1.57323674700001,481.17366631999994,None,481.17366631999994,None,481.17366631999994,None,482.80718422799964,None,482.80718422799964,None,482.80718422799964,None,482.80718422799964,None,,,,,,,,,,,,,,,,,,,,,,,,,,,,,,,,,,,,,,,,,,,,001,176,2020_Feb_27_1000,spring_faces,3.1.5,59.95542649804438,
condition files/Stage1_2.xlsx,,T2,B1,c,"['c', 'm']","['Clue', 'Monopoly']","[-0.15, 0.5]","[0.15, 0.5]",1,1,,,,,,,,,0,1,1,1,0,4,4,1,,,,,,,,,,,,,,,,,,,,,,,,,,,,,,,,,,,,,,,,,,,,,,,,,,,,,,,484.77331756700005,None,484.77331756700005,None,484.77331756700005,None,m,0,1.910620757000288,486.30815818799965,None,486.30815818799965,None,486.30815818799965,None,488.2756861789994,None,488.2756861789994,None,488.2756861789994,None,488.2756861789994,None,,,,,,,,,,,,,,,,,,,,,,,,,,,,,,,,,,,,,,,,,,,,001,176,2020_Feb_27_1000,spring_faces,3.1.5,59.95542649804438,
condition files/Stage1_2.xlsx,,B4,T3,c,"['c', 'm']","['Clue', 'Monopoly']","[-0.15, 0.5]","[0.15, 0.5]",1,1,,,,,,,,,0,1,1,1,0,5,5,5,,,,,,,,,,,,,,,,,,,,,,,,,,,,,,,,,,,,,,,,,,,,,,,,,,,,,,,490.24054912799966,None,490.24054912799966,None,490.24054912799966,None,m,0,1.42118377099996,491.77365978499984,None,491.77365978499984,None,491.77365978499984,None,493.257681348,None,493.257681348,None,493.257681348,None,493.257681348,None,,,,,,,,,,,,,,,,,,,,,,,,,,,,,,,,,,,,,,,,,,,,001,176,2020_Feb_27_1000,spring_faces,3.1.5,59.95542649804438,
condition files/Stage1_2.xlsx,,B1,T1,c,"['c', 'm']","['Clue', 'Monopoly']","[-0.15, 0.5]","[0.15, 0.5]",1,1,,,,,,,,,0,1,1,1,0,6,6,0,,,,,,,,,,,,,,,,,,,,,,,,,,,,,,,,,,,,,,,,,,,,,,,,,,,,,,,495.22390168899983,None,495.22390168899983,None,495.22390168899983,None,c,1,1.2539251809994312,496.75691717599966,None,496.75691717599966,None,496.75691717599966,None,498.0737979989999,None,498.0737979989999,None,498.0737979989999,None,498.0737979989999,None,,,,,,,,,,,,,,,,,,,,,,,,,,,,,,,,,,,,,,,,,,,,001,176,2020_Feb_27_1000,spring_faces,3.1.5,59.95542649804438,
condition files/Stage1_2.xlsx,,B2,T2,m,"['c', 'm']","['Clue', 'Monopoly']","[-0.15, 0.5]","[0.15, 0.5]",1,1,,,,,,,,,0,1,1,1,0,7,7,3,,,,,,,,,,,,,,,,,,,,,,,,,,,,,,,,,,,,,,,,,,,,,,,,,,,,,,,500.0400194719996,None,500.0400194719996,None,500.0400194719996,None,c,0,1.717121335000229,501.5737188739995,None,501.5737188739995,None,501.5737188739995,None,503.34035264499926,None,503.34035264499926,None,503.34035264499926,None,503.34035264499926,None,,,,,,,,,,,,,,,,,,,,,,,,,,,,,,,,,,,,,,,,,,,,001,176,2020_Feb_27_1000,spring_faces,3.1.5,59.95542649804438,
condition files/Stage1_1.xlsx,,T1,B1,c,"['c', 'm']","['Clue', 'Monopoly']","[-0.15, 0.5]","[0.15, 0.5]",1,1,,,,,,,,,0,2,2,2,0,0,0,0,,,,,,,,,,,,,,,,,,,,,,,,,,,,,,,,,,,,,,,,,,,,,,,,,,,,,,,505.3242948399993,None,505.3242948399993,None,505.3242948399993,None,m,0,1.1853912390006371,506.8574070659997,None,506.8574070659997,None,506.8574070659997,None,508.10998635799933,None,508.10998635799933,None,508.10998635799933,None,508.10998635799933,None,,,,,,,,,,,,,,,,,,,,,,,,,,,,,,,,,,,,,,,,,,,,001,176,2020_Feb_27_1000,spring_faces,3.1.5,59.95542649804438,
condition files/Stage1_1.xlsx,,B2,T1,m,"['c', 'm']","['Clue', 'Monopoly']","[-0.15, 0.5]","[0.15, 0.5]",1,1,,,,,,,,,0,2,2,2,0,1,1,2,,,,,,,,,,,,,,,,,,,,,,,,,,,,,,,,,,,,,,,,,,,,,,,,,,,,,,,510.07386172299994,None,510.07386172299994,None,510.07386172299994,None,m,1,1.4119033480001235,511.60690366499966,None,511.60690366499966,None,511.60690366499966,None,513.0750257049995,None,513.0750257049995,None,513.0750257049995,None,513.0750257049995,None,,,,,,,,,,,,,,,,,,,,,,,,,,,,,,,,,,,,,,,,,,,,001,176,2020_Feb_27_1000,spring_faces,3.1.5,59.95542649804438,
condition files/Stage1_1.xlsx,,T2,B2,m,"['c', 'm']","['Clue', 'Monopoly']","[-0.15, 0.5]","[0.15, 0.5]",1,1,,,,,,,,,0,2,2,2,0,2,2,3,,,,,,,,,,,,,,,,,,,,,,,,,,,,,,,,,,,,,,,,,,,,,,,,,,,,,,,515.040383388,None,515.040383388,None,515.040383388,None,c,0,1.852958340999976,516.5738827319992,None,516.5738827319992,None,516.5738827319992,None,518.4911453179993,None,518.4911453179993,None,518.4911453179993,None,518.4911453179993,None,,,,,,,,,,,,,,,,,,,,,,,,,,,,,,,,,,,,,,,,,,,,001,176,2020_Feb_27_1000,spring_faces,3.1.5,59.95542649804438,
condition files/Stage1_1.xlsx,,T4,B3,m,"['c', 'm']","['Clue', 'Monopoly']","[-0.15, 0.5]","[0.15, 0.5]",1,1,,,,,,,,,0,2,2,2,0,3,3,6,,,,,,,,,,,,,,,,,,,,,,,,,,,,,,,,,,,,,,,,,,,,,,,,,,,,,,,520.4572489149996,None,520.4572489149996,None,520.4572489149996,None,m,1,1.2994674069996108,521.9913360259998,None,521.9913360259998,None,521.9913360259998,None,523.3409243959995,None,523.3409243959995,None,523.3409243959995,None,523.3409243959995,None,,,,,,,,,,,,,,,,,,,,,,,,,,,,,,,,,,,,,,,,,,,,001,176,2020_Feb_27_1000,spring_faces,3.1.5,59.95542649804438,
condition files/Stage1_1.xlsx,,B4,T4,m,"['c', 'm']","['Clue', 'Monopoly']","[-0.15, 0.5]","[0.15, 0.5]",1,1,,,,,,,,,0,2,2,2,0,4,4,7,,,,,,,,,,,,,,,,,,,,,,,,,,,,,,,,,,,,,,,,,,,,,,,,,,,,,,,525.3071779579996,None,525.3071779579996,None,525.3071779579996,None,m,1,1.1998739370001203,526.8429188539994,None,526.8429188539994,None,526.8429188539994,None,528.1073270839997,None,528.1073270839997,None,528.1073270839997,None,528.1073270839997,None,,,,,,,,,,,,,,,,,,,,,,,,,,,,,,,,,,,,,,,,,,,,001,176,2020_Feb_27_1000,spring_faces,3.1.5,59.95542649804438,
condition files/Stage1_1.xlsx,,T3,B4,c,"['c', 'm']","['Clue', 'Monopoly']","[-0.15, 0.5]","[0.15, 0.5]",1,1,,,,,,,,,0,2,2,2,0,5,5,5,,,,,,,,,,,,,,,,,,,,,,,,,,,,,,,,,,,,,,,,,,,,,,,,,,,,,,,530.0738605139995,None,530.0738605139995,None,530.0738605139995,None,m,0,1.2497298489997775,531.6090351189996,None,531.6090351189996,None,531.6090351189996,None,532.9238164989993,None,532.9238164989993,None,532.9238164989993,None,532.9238164989993,None,,,,,,,,,,,,,,,,,,,,,,,,,,,,,,,,,,,,,,,,,,,,001,176,2020_Feb_27_1000,spring_faces,3.1.5,59.95542649804438,
condition files/Stage1_1.xlsx,,B3,T3,c,"['c', 'm']","['Clue', 'Monopoly']","[-0.15, 0.5]","[0.15, 0.5]",1,1,,,,,,,,,0,2,2,2,0,6,6,4,,,,,,,,,,,,,,,,,,,,,,,,,,,,,,,,,,,,,,,,,,,,,,,,,,,,,,,534.8900081809998,None,534.8900081809998,None,534.8900081809998,None,m,0,1.4889685900006953,536.4259285359994,None,536.4259285359994,None,536.4259285359994,None,537.9742710829996,None,537.9742710829996,None,537.9742710829996,None,537.9742710829996,None,,,,,,,,,,,,,,,,,,,,,,,,,,,,,,,,,,,,,,,,,,,,001,176,2020_Feb_27_1000,spring_faces,3.1.5,59.95542649804438,
condition files/Stage1_1.xlsx,,B1,T2,c,"['c', 'm']","['Clue', 'Monopoly']","[-0.15, 0.5]","[0.15, 0.5]",1,1,,,,,,,,,0,2,2,2,0,7,7,1,,,,,,,,,,,,,,,,,,,,,,,,,,,,,,,,,,,,,,,,,,,,,,,,,,,,,,,539.9400847669995,None,539.9400847669995,None,539.9400847669995,None,c,1,1.6091516659998888,541.4737421,None,541.4737421,None,541.4737421,None,543.1408515169996,None,543.1408515169996,None,543.1408515169996,None,543.1408515169996,None,,,,,,,,,,,,,,,,,,,,,,,,,,,,,,,,,,,,,,,,,,,,001,176,2020_Feb_27_1000,spring_faces,3.1.5,59.95542649804438,
condition files/Stage1_2.xlsx,,T3,B3,c,"['c', 'm']","['Clue', 'Monopoly']","[-0.15, 0.5]","[0.15, 0.5]",1,1,,,,,,,,,0,3,3,3,0,0,0,4,,,,,,,,,,,,,,,,,,,,,,,,,,,,,,,,,,,,,,,,,,,,,,,,,,,,,,,545.1239133319996,None,545.1239133319996,None,545.1239133319996,None,c,1,1.6418220929999734,546.6570836049996,None,546.6570836049996,None,546.6570836049996,None,548.357689343,None,548.357689343,None,548.357689343,None,548.357689343,None,,,,,,,,,,,,,,,,,,,,,,,,,,,,,,,,,,,,,,,,,,,,001,176,2020_Feb_27_1000,spring_faces,3.1.5,59.95542649804438,
condition files/Stage1_2.xlsx,,T2,B1,c,"['c', 'm']","['Clue', 'Monopoly']","[-0.15, 0.5]","[0.15, 0.5]",1,1,,,,,,,,,0,3,3,3,0,1,1,1,,,,,,,,,,,,,,,,,,,,,,,,,,,,,,,,,,,,,,,,,,,,,,,,,,,,,,,550.323856641,None,550.323856641,None,550.323856641,None,m,0,1.4020324289995187,551.8567588739998,None,551.8567588739998,None,551.8567588739998,None,553.3237232639995,None,553.3237232639995,None,553.3237232639995,None,553.3237232639995,None,,,,,,,,,,,,,,,,,,,,,,,,,,,,,,,,,,,,,,,,,,,,001,176,2020_Feb_27_1000,spring_faces,3.1.5,59.95542649804438,
condition files/Stage1_2.xlsx,,T4,B4,m,"['c', 'm']","['Clue', 'Monopoly']","[-0.15, 0.5]","[0.15, 0.5]",1,1,,,,,,,,,0,3,3,3,0,2,2,7,,,,,,,,,,,,,,,,,,,,,,,,,,,,,,,,,,,,,,,,,,,,,,,,,,,,,,,555.290179996,None,555.290179996,None,555.290179996,None,m,1,1.4910764500000369,556.8238300589992,None,556.8238300589992,None,556.8238300589992,None,558.3760670739994,None,558.3760670739994,None,558.3760670739994,None,558.3760670739994,None,,,,,,,,,,,,,,,,,,,,,,,,,,,,,,,,,,,,,,,,,,,,001,176,2020_Feb_27_1000,spring_faces,3.1.5,59.95542649804438,
condition files/Stage1_2.xlsx,,T1,B2,m,"['c', 'm']","['Clue', 'Monopoly']","[-0.15, 0.5]","[0.15, 0.5]",1,1,,,,,,,,,0,3,3,3,0,3,3,2,,,,,,,,,,,,,,,,,,,,,,,,,,,,,,,,,,,,,,,,,,,,,,,,,,,,,,,560.3400850689995,None,560.3400850689995,None,560.3400850689995,None,m,1,1.2718438540005081,561.8750663679994,None,561.8750663679994,None,561.8750663679994,None,563.2078157429996,None,563.2078157429996,None,563.2078157429996,None,563.2078157429996,None,,,,,,,,,,,,,,,,,,,,,,,,,,,,,,,,,,,,,,,,,,,,001,176,2020_Feb_27_1000,spring_faces,3.1.5,59.95542649804438,
condition files/Stage1_2.xlsx,,B2,T2,m,"['c', 'm']","['Clue', 'Monopoly']","[-0.15, 0.5]","[0.15, 0.5]",1,1,,,,,,,,,0,3,3,3,0,4,4,3,,,,,,,,,,,,,,,,,,,,,,,,,,,,,,,,,,,,,,,,,,,,,,,,,,,,,,,565.1739135509997,None,565.1739135509997,None,565.1739135509997,None,m,1,1.0634117839999817,566.7073438449997,None,566.7073438449997,None,566.7073438449997,None,567.8234991699992,None,567.8234991699992,None,567.8234991699992,None,567.8234991699992,None,,,,,,,,,,,,,,,,,,,,,,,,,,,,,,,,,,,,,,,,,,,,001,176,2020_Feb_27_1000,spring_faces,3.1.5,59.95542649804438,
condition files/Stage1_2.xlsx,,B3,T4,m,"['c', 'm']","['Clue', 'Monopoly']","[-0.15, 0.5]","[0.15, 0.5]",1,1,,,,,,,,,0,3,3,3,0,5,5,6,,,,,,,,,,,,,,,,,,,,,,,,,,,,,,,,,,,,,,,,,,,,,,,,,,,,,,,569.790553971,None,569.790553971,None,569.790553971,None,m,1,1.2462711930002115,571.3245435449999,None,571.3245435449999,None,571.3245435449999,None,572.6240965659999,None,572.6240965659999,None,572.6240965659999,None,572.6240965659999,None,,,,,,,,,,,,,,,,,,,,,,,,,,,,,,,,,,,,,,,,,,,,001,176,2020_Feb_27_1000,spring_faces,3.1.5,59.95542649804438,
condition files/Stage1_2.xlsx,,B4,T3,c,"['c', 'm']","['Clue', 'Monopoly']","[-0.15, 0.5]","[0.15, 0.5]",1,1,,,,,,,,,0,3,3,3,0,6,6,5,,,,,,,,,,,,,,,,,,,,,,,,,,,,,,,,,,,,,,,,,,,,,,,,,,,,,,,574.5903221059998,None,574.5903221059998,None,574.5903221059998,None,c,1,1.6630240089998551,576.1237667409996,None,576.1237667409996,None,576.1237667409996,None,577.8429780549995,None,577.8429780549995,None,577.8429780549995,None,577.8429780549995,None,,,,,,,,,,,,,,,,,,,,,,,,,,,,,,,,,,,,,,,,,,,,001,176,2020_Feb_27_1000,spring_faces,3.1.5,59.95542649804438,
condition files/Stage1_2.xlsx,,B1,T1,c,"['c', 'm']","['Clue', 'Monopoly']","[-0.15, 0.5]","[0.15, 0.5]",1,1,,,,,,,,,0,3,3,3,0,7,7,0,,,,,,,,,,,,,,,,,,,,,,,,,,,,,,,,,,,,,,,,,,,,,,,,,,,,,,,579.8072586809994,None,579.8072586809994,None,579.8072586809994,None,m,0,2.1254980690000593,581.3574001979996,None,581.3574001979996,None,581.3574001979996,None,583.5404788349997,None,583.5404788349997,None,583.5404788349997,None,583.5404788349997,None,,,,,,,,,,,,,,,,,,,,,,,,,,,,,,,,,,,,,,,,,,,,001,176,2020_Feb_27_1000,spring_faces,3.1.5,59.95542649804438,
condition files/Stage1_1.xlsx,,T3,B4,c,"['c', 'm']","['Clue', 'Monopoly']","[-0.15, 0.5]","[0.15, 0.5]",1,1,,,,,,,,,0,4,4,4,0,0,0,5,,,,,,,,,,,,,,,,,,,,,,,,,,,,,,,,,,,,,,,,,,,,,,,,,,,,,,,585.5238309719998,None,585.5238309719998,None,585.5238309719998,None,c,1,1.2901077460001034,587.0568002089994,None,587.0568002089994,None,587.0568002089994,None,588.4076240129998,None,588.4076240129998,None,588.4076240129998,None,588.4076240129998,None,,,,,,,,,,,,,,,,,,,,,,,,,,,,,,,,,,,,,,,,,,,,001,176,2020_Feb_27_1000,spring_faces,3.1.5,59.95542649804438,
condition files/Stage1_1.xlsx,,T4,B3,m,"['c', 'm']","['Clue', 'Monopoly']","[-0.15, 0.5]","[0.15, 0.5]",1,1,,,,,,,,,0,4,4,4,0,1,1,6,,,,,,,,,,,,,,,,,,,,,,,,,,,,,,,,,,,,,,,,,,,,,,,,,,,,,,,590.3738723189999,None,590.3738723189999,None,590.3738723189999,None,c,0,1.383738233999793,591.9070720499994,None,591.9070720499994,None,591.9070720499994,None,593.3571979789995,None,593.3571979789995,None,593.3571979789995,None,593.3571979789995,None,,,,,,,,,,,,,,,,,,,,,,,,,,,,,,,,,,,,,,,,,,,,001,176,2020_Feb_27_1000,spring_faces,3.1.5,59.95542649804438,
condition files/Stage1_1.xlsx,,B1,T2,c,"['c', 'm']","['Clue', 'Monopoly']","[-0.15, 0.5]","[0.15, 0.5]",1,1,,,,,,,,,0,4,4,4,0,2,2,1,,,,,,,,,,,,,,,,,,,,,,,,,,,,,,,,,,,,,,,,,,,,,,,,,,,,,,,595.30729651,None,595.30729651,None,595.30729651,None,c,1,1.5225352039997233,596.8402993709997,None,596.8402993709997,None,596.8402993709997,None,598.4261313540001,None,598.4261313540001,None,598.4261313540001,None,598.4261313540001,None,,,,,,,,,,,,,,,,,,,,,,,,,,,,,,,,,,,,,,,,,,,,001,176,2020_Feb_27_1000,spring_faces,3.1.5,59.95542649804438,
condition files/Stage1_1.xlsx,,B4,T4,m,"['c', 'm']","['Clue', 'Monopoly']","[-0.15, 0.5]","[0.15, 0.5]",1,1,,,,,,,,,0,4,4,4,0,3,3,7,,,,,,,,,,,,,,,,,,,,,,,,,,,,,,,,,,,,,,,,,,,,,,,,,,,,,,,600.3904557359992,None,600.3904557359992,None,600.3904557359992,None,m,1,1.1744439489993965,601.9403071659999,None,601.9403071659999,None,601.9403071659999,None,603.1744763609995,None,603.1744763609995,None,603.1744763609995,None,603.1744763609995,None,,,,,,,,,,,,,,,,,,,,,,,,,,,,,,,,,,,,,,,,,,,,001,176,2020_Feb_27_1000,spring_faces,3.1.5,59.95542649804438,
condition files/Stage1_1.xlsx,,B2,T1,m,"['c', 'm']","['Clue', 'Monopoly']","[-0.15, 0.5]","[0.15, 0.5]",1,1,,,,,,,,,0,4,4,4,0,4,4,2,,,,,,,,,,,,,,,,,,,,,,,,,,,,,,,,,,,,,,,,,,,,,,,,,,,,,,,605.1403827389995,None,605.1403827389995,None,605.1403827389995,None,m,1,1.3037656659998902,606.6750803109999,None,606.6750803109999,None,606.6750803109999,None,608.040302116,None,608.040302116,None,608.040302116,None,608.040302116,None,,,,,,,,,,,,,,,,,,,,,,,,,,,,,,,,,,,,,,,,,,,,001,176,2020_Feb_27_1000,spring_faces,3.1.5,59.95542649804438,
condition files/Stage1_1.xlsx,,T2,B2,m,"['c', 'm']","['Clue', 'Monopoly']","[-0.15, 0.5]","[0.15, 0.5]",1,1,,,,,,,,,0,4,4,4,0,5,5,3,,,,,,,,,,,,,,,,,,,,,,,,,,,,,,,,,,,,,,,,,,,,,,,,,,,,,,,610.007200518,None,610.007200518,None,610.007200518,None,c,0,2.1185906540004,611.5402229359997,None,611.5402229359997,None,611.5402229359997,None,613.7241993709995,None,613.7241993709995,None,613.7241993709995,None,613.7241993709995,None,,,,,,,,,,,,,,,,,,,,,,,,,,,,,,,,,,,,,,,,,,,,001,176,2020_Feb_27_1000,spring_faces,3.1.5,59.95542649804438,
condition files/Stage1_1.xlsx,,B3,T3,c,"['c', 'm']","['Clue', 'Monopoly']","[-0.15, 0.5]","[0.15, 0.5]",1,1,,,,,,,,,0,4,4,4,0,6,6,4,,,,,,,,,,,,,,,,,,,,,,,,,,,,,,,,,,,,,,,,,,,,,,,,,,,,,,,615.690111768,None,615.690111768,None,615.690111768,None,m,0,1.248491727000328,617.2262958559995,None,617.2262958559995,None,617.2262958559995,None,618.5575497439995,None,618.5575497439995,None,618.5575497439995,None,618.5575497439995,None,,,,,,,,,,,,,,,,,,,,,,,,,,,,,,,,,,,,,,,,,,,,001,176,2020_Feb_27_1000,spring_faces,3.1.5,59.95542649804438,
condition files/Stage1_1.xlsx,,T1,B1,c,"['c', 'm']","['Clue', 'Monopoly']","[-0.15, 0.5]","[0.15, 0.5]",1,1,,,,,,,,,0,4,4,4,0,7,7,0,,,,,,,,,,,,,,,,,,,,,,,,,,,,,,,,,,,,,,,,,,,,,,,,,,,,,,,620.5069710979997,None,620.5069710979997,None,620.5069710979997,None,c,1,1.5058351410007162,622.0569989639998,None,622.0569989639998,None,622.0569989639998,None,623.6239265159993,None,623.6239265159993,None,623.6239265159993,None,623.6239265159993,None,,,,,,,,,,,,,,,,,,,,,,,,,,,,,,,,,,,,,,,,,,,,001,176,2020_Feb_27_1000,spring_faces,3.1.5,59.95542649804438,
condition files/Stage1_2.xlsx,,B1,T1,c,"['c', 'm']","['Clue', 'Monopoly']","[-0.15, 0.5]","[0.15, 0.5]",1,1,,,,,,,,,0,5,5,5,0,0,0,0,,,,,,,,,,,,,,,,,,,,,,,,,,,,,,,,,,,,,,,,,,,,,,,,,,,,,,,625.6076205849995,None,625.6076205849995,None,625.6076205849995,None,c,1,1.221152649999567,627.1416864429993,None,627.1416864429993,None,627.1416864429993,None,628.4238924259998,None,628.4238924259998,None,628.4238924259998,None,628.4238924259998,None,,,,,,,,,,,,,,,,,,,,,,,,,,,,,,,,,,,,,,,,,,,,001,176,2020_Feb_27_1000,spring_faces,3.1.5,59.95542649804438,
condition files/Stage1_2.xlsx,,B2,T2,m,"['c', 'm']","['Clue', 'Monopoly']","[-0.15, 0.5]","[0.15, 0.5]",1,1,,,,,,,,,0,5,5,5,0,1,1,3,,,,,,,,,,,,,,,,,,,,,,,,,,,,,,,,,,,,,,,,,,,,,,,,,,,,,,,630.390047457,None,630.390047457,None,630.390047457,None,m,1,1.2851980629993704,631.9256514449999,None,631.9256514449999,None,631.9256514449999,None,633.2757168809994,None,633.2757168809994,None,633.2757168809994,None,633.2757168809994,None,,,,,,,,,,,,,,,,,,,,,,,,,,,,,,,,,,,,,,,,,,,,001,176,2020_Feb_27_1000,spring_faces,3.1.5,59.95542649804438,
condition files/Stage1_2.xlsx,,T3,B3,c,"['c', 'm']","['Clue', 'Monopoly']","[-0.15, 0.5]","[0.15, 0.5]",1,1,,,,,,,,,0,5,5,5,0,2,2,4,,,,,,,,,,,,,,,,,,,,,,,,,,,,,,,,,,,,,,,,,,,,,,,,,,,,,,,635.2405506039995,None,635.2405506039995,None,635.2405506039995,None,m,0,2.3715765269998883,636.7753397759998,None,636.7753397759998,None,636.7753397759998,None,639.2071303889998,None,639.2071303889998,None,639.2071303889998,None,639.2071303889998,None,,,,,,,,,,,,,,,,,,,,,,,,,,,,,,,,,,,,,,,,,,,,001,176,2020_Feb_27_1000,spring_faces,3.1.5,59.95542649804438,
condition files/Stage1_2.xlsx,,T2,B1,c,"['c', 'm']","['Clue', 'Monopoly']","[-0.15, 0.5]","[0.15, 0.5]",1,1,,,,,,,,,0,5,5,5,0,3,3,1,,,,,,,,,,,,,,,,,,,,,,,,,,,,,,,,,,,,,,,,,,,,,,,,,,,,,,,641.1734450959993,None,641.1734450959993,None,641.1734450959993,None,c,1,0.792140333000134,642.706771137,None,642.706771137,None,642.706771137,None,643.5574334679995,None,643.5574334679995,None,643.5574334679995,None,643.5574334679995,None,,,,,,,,,,,,,,,,,,,,,,,,,,,,,,,,,,,,,,,,,,,,001,176,2020_Feb_27_1000,spring_faces,3.1.5,59.95542649804438,
condition files/Stage1_2.xlsx,,B3,T4,m,"['c', 'm']","['Clue', 'Monopoly']","[-0.15, 0.5]","[0.15, 0.5]",1,1,,,,,,,,,0,5,5,5,0,4,4,6,,,,,,,,,,,,,,,,,,,,,,,,,,,,,,,,,,,,,,,,,,,,,,,,,,,,,,,645.5240717409997,None,645.5240717409997,None,645.5240717409997,None,c,0,1.2731890199993359,647.057718,None,647.057718,None,647.057718,None,648.4071208719997,None,648.4071208719997,None,648.4071208719997,None,648.4071208719997,None,,,,,,,,,,,,,,,,,,,,,,,,,,,,,,,,,,,,,,,,,,,,001,176,2020_Feb_27_1000,spring_faces,3.1.5,59.95542649804438,
condition files/Stage1_2.xlsx,,B4,T3,c,"['c', 'm']","['Clue', 'Monopoly']","[-0.15, 0.5]","[0.15, 0.5]",1,1,,,,,,,,,0,5,5,5,0,5,5,5,,,,,,,,,,,,,,,,,,,,,,,,,,,,,,,,,,,,,,,,,,,,,,,,,,,,,,,650.357255424,None,650.357255424,None,650.357255424,None,c,1,1.176159134000045,651.8906914869995,None,651.8906914869995,None,651.8906914869995,None,653.1236433409995,None,653.1236433409995,None,653.1236433409995,None,653.1236433409995,None,,,,,,,,,,,,,,,,,,,,,,,,,,,,,,,,,,,,,,,,,,,,001,176,2020_Feb_27_1000,spring_faces,3.1.5,59.95542649804438,
condition files/Stage1_2.xlsx,,T1,B2,m,"['c', 'm']","['Clue', 'Monopoly']","[-0.15, 0.5]","[0.15, 0.5]",1,1,,,,,,,,,0,5,5,5,0,6,6,2,,,,,,,,,,,,,,,,,,,,,,,,,,,,,,,,,,,,,,,,,,,,,,,,,,,,,,,655.0907335729999,None,655.0907335729999,None,655.0907335729999,None,m,1,0.6808559149994835,656.625978561,None,656.625978561,None,656.625978561,None,657.3600897849992,None,657.3600897849992,None,657.3600897849992,None,657.3600897849992,None,,,,,,,,,,,,,,,,,,,,,,,,,,,,,,,,,,,,,,,,,,,,001,176,2020_Feb_27_1000,spring_faces,3.1.5,59.95542649804438,
condition files/Stage1_2.xlsx,,T4,B4,m,"['c', 'm']","['Clue', 'Monopoly']","[-0.15, 0.5]","[0.15, 0.5]",1,1,,,,,,,,,0,5,5,5,0,7,7,7,,,,,,,,,,,,,,,,,,,,,,,,,,,,,,,,,,,,,,,,,,,,,,,,,,,,,,,659.3237601419996,None,659.3237601419996,None,659.3237601419996,None,c,0,1.1059572560006927,660.8568534979995,None,660.8568534979995,None,660.8568534979995,None,662.0238980869999,None,662.0238980869999,None,662.0238980869999,None,662.0238980869999,None,,,,,,,,,,,,,,,,,,,,,,,,,,,,,,,,,,,,,,,,,,,,001,176,2020_Feb_27_1000,spring_faces,3.1.5,59.95542649804438,
condition files/Stage1_1.xlsx,,T2,B2,m,"['c', 'm']","['Clue', 'Monopoly']","[-0.15, 0.5]","[0.15, 0.5]",1,1,,,,,,,,,0,6,6,6,0,0,0,3,,,,,,,,,,,,,,,,,,,,,,,,,,,,,,,,,,,,,,,,,,,,,,,,,,,,,,,664.0072528849996,None,664.0072528849996,None,664.0072528849996,None,m,1,0.5504897179998807,665.54034684,None,665.54034684,None,665.54034684,None,666.1408305109999,None,666.1408305109999,None,666.1408305109999,None,666.1408305109999,None,,,,,,,,,,,,,,,,,,,,,,,,,,,,,,,,,,,,,,,,,,,,001,176,2020_Feb_27_1000,spring_faces,3.1.5,59.95542649804438,
condition files/Stage1_1.xlsx,,T1,B1,c,"['c', 'm']","['Clue', 'Monopoly']","[-0.15, 0.5]","[0.15, 0.5]",1,1,,,,,,,,,0,6,6,6,0,1,1,0,,,,,,,,,,,,,,,,,,,,,,,,,,,,,,,,,,,,,,,,,,,,,,,,,,,,,,,668.1073546329999,None,668.1073546329999,None,668.1073546329999,None,m,0,0.9139233859996239,669.6570010199994,None,669.6570010199994,None,669.6570010199994,None,670.623689299,None,670.623689299,None,670.623689299,None,670.623689299,None,,,,,,,,,,,,,,,,,,,,,,,,,,,,,,,,,,,,,,,,,,,,001,176,2020_Feb_27_1000,spring_faces,3.1.5,59.95542649804438,
condition files/Stage1_1.xlsx,,B2,T1,m,"['c', 'm']","['Clue', 'Monopoly']","[-0.15, 0.5]","[0.15, 0.5]",1,1,,,,,,,,,0,6,6,6,0,2,2,2,,,,,,,,,,,,,,,,,,,,,,,,,,,,,,,,,,,,,,,,,,,,,,,,,,,,,,,672.5906855699996,None,672.5906855699996,None,672.5906855699996,None,m,1,1.4706321139992724,674.1242140159993,None,674.1242140159993,None,674.1242140159993,None,675.6741928069996,None,675.6741928069996,None,675.6741928069996,None,675.6741928069996,None,,,,,,,,,,,,,,,,,,,,,,,,,,,,,,,,,,,,,,,,,,,,001,176,2020_Feb_27_1000,spring_faces,3.1.5,59.95542649804438,
condition files/Stage1_1.xlsx,,T4,B3,m,"['c', 'm']","['Clue', 'Monopoly']","[-0.15, 0.5]","[0.15, 0.5]",1,1,,,,,,,,,0,6,6,6,0,3,3,6,,,,,,,,,,,,,,,,,,,,,,,,,,,,,,,,,,,,,,,,,,,,,,,,,,,,,,,677.6237747309997,None,677.6237747309997,None,677.6237747309997,None,c,0,0.9166824169997199,679.1581337219995,None,679.1581337219995,None,679.1581337219995,None,680.1408747279993,None,680.1408747279993,None,680.1408747279993,None,680.1408747279993,None,,,,,,,,,,,,,,,,,,,,,,,,,,,,,,,,,,,,,,,,,,,,001,176,2020_Feb_27_1000,spring_faces,3.1.5,59.95542649804438,
condition files/Stage1_1.xlsx,,B4,T4,m,"['c', 'm']","['Clue', 'Monopoly']","[-0.15, 0.5]","[0.15, 0.5]",1,1,,,,,,,,,0,6,6,6,0,4,4,7,,,,,,,,,,,,,,,,,,,,,,,,,,,,,,,,,,,,,,,,,,,,,,,,,,,,,,,682.1072973069995,None,682.1072973069995,None,682.1072973069995,None,c,0,2.0504337359998317,683.6404120699999,None,683.6404120699999,None,683.6404120699999,None,685.740904235,None,685.740904235,None,685.740904235,None,685.740904235,None,,,,,,,,,,,,,,,,,,,,,,,,,,,,,,,,,,,,,,,,,,,,001,176,2020_Feb_27_1000,spring_faces,3.1.5,59.95542649804438,
condition files/Stage1_1.xlsx,,B1,T2,c,"['c', 'm']","['Clue', 'Monopoly']","[-0.15, 0.5]","[0.15, 0.5]",1,1,,,,,,,,,0,6,6,6,0,5,5,1,,,,,,,,,,,,,,,,,,,,,,,,,,,,,,,,,,,,,,,,,,,,,,,,,,,,,,,687.7074912629996,None,687.7074912629996,None,687.7074912629996,None,m,0,0.8158303650006928,689.2429314369992,None,689.2429314369992,None,689.2429314369992,None,690.1233522980001,None,690.1233522980001,None,690.1233522980001,None,690.1233522980001,None,,,,,,,,,,,,,,,,,,,,,,,,,,,,,,,,,,,,,,,,,,,,001,176,2020_Feb_27_1000,spring_faces,3.1.5,59.95542649804438,
condition files/Stage1_1.xlsx,,B3,T3,c,"['c', 'm']","['Clue', 'Monopoly']","[-0.15, 0.5]","[0.15, 0.5]",1,1,,,,,,,,,0,6,6,6,0,6,6,4,,,,,,,,,,,,,,,,,,,,,,,,,,,,,,,,,,,,,,,,,,,,,,,,,,,,,,,692.0905182249999,None,692.0905182249999,None,692.0905182249999,None,m,0,1.2173532800006797,693.6254890639993,None,693.6254890639993,None,693.6254890639993,None,694.9069115839993,None,694.9069115839993,None,694.9069115839993,None,694.9069115839993,None,,,,,,,,,,,,,,,,,,,,,,,,,,,,,,,,,,,,,,,,,,,,001,176,2020_Feb_27_1000,spring_faces,3.1.5,59.95542649804438,
condition files/Stage1_1.xlsx,,T3,B4,c,"['c', 'm']","['Clue', 'Monopoly']","[-0.15, 0.5]","[0.15, 0.5]",1,1,,,,,,,,,0,6,6,6,0,7,7,5,,,,,,,,,,,,,,,,,,,,,,,,,,,,,,,,,,,,,,,,,,,,,,,,,,,,,,,696.8740736659993,None,696.8740736659993,None,696.8740736659993,None,c,1,1.2173820790003447,698.4094611979999,None,698.4094611979999,None,698.4094611979999,None,699.6902614569999,None,699.6902614569999,None,699.6902614569999,None,699.6902614569999,None,,,,,,,,,,,,,,,,,,,,,,,,,,,,,,,,,,,,,,,,,,,,001,176,2020_Feb_27_1000,spring_faces,3.1.5,59.95542649804438,
condition files/Stage1_2.xlsx,,B2,T2,m,"['c', 'm']","['Clue', 'Monopoly']","[-0.15, 0.5]","[0.15, 0.5]",1,1,,,,,,,,,0,7,7,7,0,0,0,3,,,,,,,,,,,,,,,,,,,,,,,,,,,,,,,,,,,,,,,,,,,,,,,,,,,,,,,701.6741440309997,None,701.6741440309997,None,701.6741440309997,None,m,1,1.1562176510005884,703.2066396609998,None,703.2066396609998,None,703.2066396609998,None,704.4244738929992,None,704.4244738929992,None,704.4244738929992,None,704.4244738929992,None,,,,,,,,,,,,,,,,,,,,,,,,,,,,,,,,,,,,,,,,,,,,001,176,2020_Feb_27_1000,spring_faces,3.1.5,59.95542649804438,
condition files/Stage1_2.xlsx,,B1,T1,c,"['c', 'm']","['Clue', 'Monopoly']","[-0.15, 0.5]","[0.15, 0.5]",1,1,,,,,,,,,0,7,7,7,0,1,1,0,,,,,,,,,,,,,,,,,,,,,,,,,,,,,,,,,,,,,,,,,,,,,,,,,,,,,,,706.3905087329995,None,706.3905087329995,None,706.3905087329995,None,c,1,2.118800989999727,707.92399716,None,707.92399716,None,707.92399716,None,710.1090719289996,None,710.1090719289996,None,710.1090719289996,None,710.1090719289996,None,,,,,,,,,,,,,,,,,,,,,,,,,,,,,,,,,,,,,,,,,,,,001,176,2020_Feb_27_1000,spring_faces,3.1.5,59.95542649804438,
condition files/Stage1_2.xlsx,,T3,B3,c,"['c', 'm']","['Clue', 'Monopoly']","[-0.15, 0.5]","[0.15, 0.5]",1,1,,,,,,,,,0,7,7,7,0,2,2,4,,,,,,,,,,,,,,,,,,,,,,,,,,,,,,,,,,,,,,,,,,,,,,,,,,,,,,,712.0733355479997,None,712.0733355479997,None,712.0733355479997,None,c,1,1.1227917229998639,713.6081568039999,None,713.6081568039999,None,713.6081568039999,None,714.7909056149992,None,714.7909056149992,None,714.7909056149992,None,714.7909056149992,None,,,,,,,,,,,,,,,,,,,,,,,,,,,,,,,,,,,,,,,,,,,,001,176,2020_Feb_27_1000,spring_faces,3.1.5,59.95542649804438,
condition files/Stage1_2.xlsx,,T4,B4,m,"['c', 'm']","['Clue', 'Monopoly']","[-0.15, 0.5]","[0.15, 0.5]",1,1,,,,,,,,,0,7,7,7,0,3,3,7,,,,,,,,,,,,,,,,,,,,,,,,,,,,,,,,,,,,,,,,,,,,,,,,,,,,,,,716.7569627449993,None,716.7569627449993,None,716.7569627449993,None,c,0,3.750261354999566,718.2925741909994,None,718.2925741909994,None,718.2925741909994,None,722.1090224439995,None,722.1090224439995,None,722.1090224439995,None,722.1090224439995,None,,,,,,,,,,,,,,,,,,,,,,,,,,,,,,,,,,,,,,,,,,,,001,176,2020_Feb_27_1000,spring_faces,3.1.5,59.95542649804438,
condition files/Stage1_2.xlsx,,T1,B2,m,"['c', 'm']","['Clue', 'Monopoly']","[-0.15, 0.5]","[0.15, 0.5]",1,1,,,,,,,,,0,7,7,7,0,4,4,2,,,,,,,,,,,,,,,,,,,,,,,,,,,,,,,,,,,,,,,,,,,,,,,,,,,,,,,724.073837082,None,724.073837082,None,724.073837082,None,m,1,1.729528389000734,725.6093041079994,None,725.6093041079994,None,725.6093041079994,None,727.3909412539997,None,727.3909412539997,None,727.3909412539997,None,727.3909412539997,None,,,,,,,,,,,,,,,,,,,,,,,,,,,,,,,,,,,,,,,,,,,,001,176,2020_Feb_27_1000,spring_faces,3.1.5,59.95542649804438,
condition files/Stage1_2.xlsx,,B3,T4,m,"['c', 'm']","['Clue', 'Monopoly']","[-0.15, 0.5]","[0.15, 0.5]",1,1,,,,,,,,,0,7,7,7,0,5,5,6,,,,,,,,,,,,,,,,,,,,,,,,,,,,,,,,,,,,,,,,,,,,,,,,,,,,,,,729.3573047729997,None,729.3573047729997,None,729.3573047729997,None,m,1,1.6322950080002556,730.8905401969996,None,730.8905401969996,None,730.8905401969996,None,732.5738901819996,None,732.5738901819996,None,732.5738901819996,None,732.5738901819996,None,,,,,,,,,,,,,,,,,,,,,,,,,,,,,,,,,,,,,,,,,,,,001,176,2020_Feb_27_1000,spring_faces,3.1.5,59.95542649804438,
condition files/Stage1_2.xlsx,,T2,B1,c,"['c', 'm']","['Clue', 'Monopoly']","[-0.15, 0.5]","[0.15, 0.5]",1,1,,,,,,,,,0,7,7,7,0,6,6,1,,,,,,,,,,,,,,,,,,,,,,,,,,,,,,,,,,,,,,,,,,,,,,,,,,,,,,,734.5408353809999,None,734.5408353809999,None,734.5408353809999,None,m,0,2.1758728269996936,736.0750078309993,None,736.0750078309993,None,736.0750078309993,None,738.3086800869996,None,738.3086800869996,None,738.3086800869996,None,738.3086800869996,None,,,,,,,,,,,,,,,,,,,,,,,,,,,,,,,,,,,,,,,,,,,,001,176,2020_Feb_27_1000,spring_faces,3.1.5,59.95542649804438,
condition files/Stage1_2.xlsx,,B4,T3,c,"['c', 'm']","['Clue', 'Monopoly']","[-0.15, 0.5]","[0.15, 0.5]",1,1,,,,,,,,,0,7,7,7,0,7,7,5,,,,,,,,,,,,,,,,,,,,,,,,,,,,,,,,,,,,,,,,,,,,,,,,,,,,,,,740.2740089989993,None,740.2740089989993,None,740.2740089989993,None,c,1,0.5379351290002887,741.8089659469997,None,741.8089659469997,None,741.8089659469997,None,742.4075812319998,None,742.4075812319998,None,742.4075812319998,None,742.4075812319998,None,,,,,,,,,,,,,,,,,,,,,,,,,,,,,,,,,,,,,,,,,,,,001,176,2020_Feb_27_1000,spring_faces,3.1.5,59.95542649804438,
condition files/Stage1_1.xlsx,,T2,B2,m,"['c', 'm']","['Clue', 'Monopoly']","[-0.15, 0.5]","[0.15, 0.5]",1,1,,,,,,,,,0,8,8,8,0,0,0,3,,,,,,,,,,,,,,,,,,,,,,,,,,,,,,,,,,,,,,,,,,,,,,,,,,,,,,,744.3909481189994,None,744.3909481189994,None,744.3909481189994,None,m,1,0.9491000119996897,745.9257236799995,None,745.9257236799995,None,745.9257236799995,None,746.9576111749993,None,746.9576111749993,None,746.9576111749993,None,746.9576111749993,None,,,,,,,,,,,,,,,,,,,,,,,,,,,,,,,,,,,,,,,,,,,,001,176,2020_Feb_27_1000,spring_faces,3.1.5,59.95542649804438,
condition files/Stage1_1.xlsx,,B2,T1,m,"['c', 'm']","['Clue', 'Monopoly']","[-0.15, 0.5]","[0.15, 0.5]",1,1,,,,,,,,,0,8,8,8,0,1,1,2,,,,,,,,,,,,,,,,,,,,,,,,,,,,,,,,,,,,,,,,,,,,,,,,,,,,,,,748.9071520669995,None,748.9071520669995,None,748.9071520669995,None,c,0,1.489307674999509,750.4575296939993,None,750.4575296939993,None,750.4575296939993,None,752.0070362179995,None,752.0070362179995,None,752.0070362179995,None,752.0070362179995,None,,,,,,,,,,,,,,,,,,,,,,,,,,,,,,,,,,,,,,,,,,,,001,176,2020_Feb_27_1000,spring_faces,3.1.5,59.95542649804438,
condition files/Stage1_1.xlsx,,B1,T2,c,"['c', 'm']","['Clue', 'Monopoly']","[-0.15, 0.5]","[0.15, 0.5]",1,1,,,,,,,,,0,8,8,8,0,2,2,1,,,,,,,,,,,,,,,,,,,,,,,,,,,,,,,,,,,,,,,,,,,,,,,,,,,,,,,753.9738853469999,None,753.9738853469999,None,753.9738853469999,None,m,0,0.7591719820002254,755.5076917239994,None,755.5076917239994,None,755.5076917239994,None,756.3249342039999,None,756.3249342039999,None,756.3249342039999,None,756.3249342039999,None,,,,,,,,,,,,,,,,,,,,,,,,,,,,,,,,,,,,,,,,,,,,001,176,2020_Feb_27_1000,spring_faces,3.1.5,59.95542649804438,
condition files/Stage1_1.xlsx,,B3,T3,c,"['c', 'm']","['Clue', 'Monopoly']","[-0.15, 0.5]","[0.15, 0.5]",1,1,,,,,,,,,0,8,8,8,0,3,3,4,,,,,,,,,,,,,,,,,,,,,,,,,,,,,,,,,,,,,,,,,,,,,,,,,,,,,,,758.2906623929994,None,758.2906623929994,None,758.2906623929994,None,m,0,1.8490172940000775,759.8257754619999,None,759.8257754619999,None,759.8257754619999,None,761.7405837409997,None,761.7405837409997,None,761.7405837409997,None,761.7405837409997,None,,,,,,,,,,,,,,,,,,,,,,,,,,,,,,,,,,,,,,,,,,,,001,176,2020_Feb_27_1000,spring_faces,3.1.5,59.95542649804438,
condition files/Stage1_1.xlsx,,T4,B3,m,"['c', 'm']","['Clue', 'Monopoly']","[-0.15, 0.5]","[0.15, 0.5]",1,1,,,,,,,,,0,8,8,8,0,4,4,6,,,,,,,,,,,,,,,,,,,,,,,,,,,,,,,,,,,,,,,,,,,,,,,,,,,,,,,763.7067197759998,None,763.7067197759998,None,763.7067197759998,None,c,0,0.5143898249998529,765.240453466,None,765.240453466,None,765.240453466,None,765.8083135779998,None,765.8083135779998,None,765.8083135779998,None,765.8083135779998,None,,,,,,,,,,,,,,,,,,,,,,,,,,,,,,,,,,,,,,,,,,,,001,176,2020_Feb_27_1000,spring_faces,3.1.5,59.95542649804438,
condition files/Stage1_1.xlsx,,T1,B1,c,"['c', 'm']","['Clue', 'Monopoly']","[-0.15, 0.5]","[0.15, 0.5]",1,1,,,,,,,,,0,8,8,8,0,5,5,0,,,,,,,,,,,,,,,,,,,,,,,,,,,,,,,,,,,,,,,,,,,,,,,,,,,,,,,767.773974791,None,767.773974791,None,767.773974791,None,m,0,1.1027274620000753,769.3081284699992,None,769.3081284699992,None,769.3081284699992,None,770.4759746659993,None,770.4759746659993,None,770.4759746659993,None,770.4759746659993,None,,,,,,,,,,,,,,,,,,,,,,,,,,,,,,,,,,,,,,,,,,,,001,176,2020_Feb_27_1000,spring_faces,3.1.5,59.95542649804438,
condition files/Stage1_1.xlsx,,T3,B4,c,"['c', 'm']","['Clue', 'Monopoly']","[-0.15, 0.5]","[0.15, 0.5]",1,1,,,,,,,,,0,8,8,8,0,6,6,5,,,,,,,,,,,,,,,,,,,,,,,,,,,,,,,,,,,,,,,,,,,,,,,,,,,,,,,772.4402070599999,None,772.4402070599999,None,772.4402070599999,None,c,1,1.5890135780000492,773.9738221580001,None,773.9738221580001,None,773.9738221580001,None,775.6238594629995,None,775.6238594629995,None,775.6238594629995,None,775.6238594629995,None,,,,,,,,,,,,,,,,,,,,,,,,,,,,,,,,,,,,,,,,,,,,001,176,2020_Feb_27_1000,spring_faces,3.1.5,59.95542649804438,
condition files/Stage1_1.xlsx,,B4,T4,m,"['c', 'm']","['Clue', 'Monopoly']","[-0.15, 0.5]","[0.15, 0.5]",1,1,,,,,,,,,0,8,8,8,0,7,7,7,,,,,,,,,,,,,,,,,,,,,,,,,,,,,,,,,,,,,,,,,,,,,,,,,,,,,,,777.5905934809998,None,777.5905934809998,None,777.5905934809998,None,c,0,1.6706321270003173,779.1242175399993,None,779.1242175399993,None,779.1242175399993,None,780.8586989859996,None,780.8586989859996,None,780.8586989859996,None,780.8586989859996,None,,,,,,,,,,,,,,,,,,,,,,,,,,,,,,,,,,,,,,,,,,,,001,176,2020_Feb_27_1000,spring_faces,3.1.5,59.95542649804438,
condition files/Stage1_2.xlsx,,B2,T2,m,"['c', 'm']","['Clue', 'Monopoly']","[-0.15, 0.5]","[0.15, 0.5]",1,1,,,,,,,,,0,9,9,9,0,0,0,3,,,,,,,,,,,,,,,,,,,,,,,,,,,,,,,,,,,,,,,,,,,,,,,,,,,,,,,782.8409508109999,None,782.8409508109999,None,782.8409508109999,None,m,1,0.9314565490003588,784.3754173919997,None,784.3754173919997,None,784.3754173919997,None,785.357510848,None,785.357510848,None,785.357510848,None,785.357510848,None,,,,,,,,,,,,,,,,,,,,,,,,,,,,,,,,,,,,,,,,,,,,001,176,2020_Feb_27_1000,spring_faces,3.1.5,59.95542649804438,
condition files/Stage1_2.xlsx,,B1,T1,c,"['c', 'm']","['Clue', 'Monopoly']","[-0.15, 0.5]","[0.15, 0.5]",1,1,,,,,,,,,0,9,9,9,0,1,1,0,,,,,,,,,,,,,,,,,,,,,,,,,,,,,,,,,,,,,,,,,,,,,,,,,,,,,,,787.3239548329993,None,787.3239548329993,None,787.3239548329993,None,m,0,0.8965920970003936,788.858244733,None,788.858244733,None,788.858244733,None,789.8084621149992,None,789.8084621149992,None,789.8084621149992,None,789.8084621149992,None,,,,,,,,,,,,,,,,,,,,,,,,,,,,,,,,,,,,,,,,,,,,001,176,2020_Feb_27_1000,spring_faces,3.1.5,59.95542649804438,
condition files/Stage1_2.xlsx,,B4,T3,c,"['c', 'm']","['Clue', 'Monopoly']","[-0.15, 0.5]","[0.15, 0.5]",1,1,,,,,,,,,0,9,9,9,0,2,2,5,,,,,,,,,,,,,,,,,,,,,,,,,,,,,,,,,,,,,,,,,,,,,,,,,,,,,,,791.7733752649992,None,791.7733752649992,None,791.7733752649992,None,c,1,1.471828968000409,793.3070311229994,None,793.3070311229994,None,793.3070311229994,None,794.8408646079997,None,794.8408646079997,None,794.8408646079997,None,794.8408646079997,None,,,,,,,,,,,,,,,,,,,,,,,,,,,,,,,,,,,,,,,,,,,,001,176,2020_Feb_27_1000,spring_faces,3.1.5,59.95542649804438,
condition files/Stage1_2.xlsx,,T1,B2,m,"['c', 'm']","['Clue', 'Monopoly']","[-0.15, 0.5]","[0.15, 0.5]",1,1,,,,,,,,,0,9,9,9,0,3,3,2,,,,,,,,,,,,,,,,,,,,,,,,,,,,,,,,,,,,,,,,,,,,,,,,,,,,,,,796.8071918739997,None,796.8071918739997,None,796.8071918739997,None,m,1,1.5099168149999969,798.3409911789995,None,798.3409911789995,None,798.3409911789995,None,799.9238409989994,None,799.9238409989994,None,799.9238409989994,None,799.9238409989994,None,,,,,,,,,,,,,,,,,,,,,,,,,,,,,,,,,,,,,,,,,,,,001,176,2020_Feb_27_1000,spring_faces,3.1.5,59.95542649804438,
condition files/Stage1_2.xlsx,,T3,B3,c,"['c', 'm']","['Clue', 'Monopoly']","[-0.15, 0.5]","[0.15, 0.5]",1,1,,,,,,,,,0,9,9,9,0,4,4,4,,,,,,,,,,,,,,,,,,,,,,,,,,,,,,,,,,,,,,,,,,,,,,,,,,,,,,,801.8740143939995,None,801.8740143939995,None,801.8740143939995,None,m,0,1.4503318189999845,803.42446053,None,803.42446053,None,803.42446053,None,804.9568535389999,None,804.9568535389999,None,804.9568535389999,None,804.9568535389999,None,,,,,,,,,,,,,,,,,,,,,,,,,,,,,,,,,,,,,,,,,,,,001,176,2020_Feb_27_1000,spring_faces,3.1.5,59.95542649804438,
condition files/Stage1_2.xlsx,,B3,T4,m,"['c', 'm']","['Clue', 'Monopoly']","[-0.15, 0.5]","[0.15, 0.5]",1,1,,,,,,,,,0,9,9,9,0,5,5,6,,,,,,,,,,,,,,,,,,,,,,,,,,,,,,,,,,,,,,,,,,,,,,,,,,,,,,,806.9072919849996,None,806.9072919849996,None,806.9072919849996,None,m,1,1.0898863279999205,808.4569931629994,None,808.4569931629994,None,808.4569931629994,None,809.6094640049996,None,809.6094640049996,None,809.6094640049996,None,809.6094640049996,None,,,,,,,,,,,,,,,,,,,,,,,,,,,,,,,,,,,,,,,,,,,,001,176,2020_Feb_27_1000,spring_faces,3.1.5,59.95542649804438,
condition files/Stage1_2.xlsx,,T2,B1,c,"['c', 'm']","['Clue', 'Monopoly']","[-0.15, 0.5]","[0.15, 0.5]",1,1,,,,,,,,,0,9,9,9,0,6,6,1,,,,,,,,,,,,,,,,,,,,,,,,,,,,,,,,,,,,,,,,,,,,,,,,,,,,,,,811.5736803699992,None,811.5736803699992,None,811.5736803699992,None,c,1,2.1652983140002107,813.1094927469994,None,813.1094927469994,None,813.1094927469994,None,815.3434134769996,None,815.3434134769996,None,815.3434134769996,None,815.3434134769996,None,,,,,,,,,,,,,,,,,,,,,,,,,,,,,,,,,,,,,,,,,,,,001,176,2020_Feb_27_1000,spring_faces,3.1.5,59.95542649804438,
condition files/Stage1_2.xlsx,,T4,B4,m,"['c', 'm']","['Clue', 'Monopoly']","[-0.15, 0.5]","[0.15, 0.5]",1,1,,,,,,,,,0,9,9,9,0,7,7,7,,,,,,,,,,,,,,,,,,,,,,,,,,,,,,,,,,,,,,,,,,,,,,,,,,,,,,,817.3066677899997,None,817.3066677899997,None,817.3066677899997,None,m,1,0.7543757040002674,818.8404559349992,None,818.8404559349992,None,818.8404559349992,None,819.6598802929993,None,819.6598802929993,None,819.6598802929993,None,819.6598802929993,None,,,,,,,,,,,,,,,,,,,,,,,,,,,,,,,,,,,,,,,,,,,,001,176,2020_Feb_27_1000,spring_faces,3.1.5,59.95542649804438,
condition files/Stage1_1.xlsx,,T4,B3,m,"['c', 'm']","['Clue', 'Monopoly']","[-0.15, 0.5]","[0.15, 0.5]",1,1,,,,,,,,,0,10,10,10,0,0,0,6,,,,,,,,,,,,,,,,,,,,,,,,,,,,,,,,,,,,,,,,,,,,,,,,,,,,,,,821.6408897429992,None,821.6408897429992,None,821.6408897429992,None,c,0,1.6681378930006758,823.1907030949997,None,823.1907030949997,None,823.1907030949997,None,824.9244728449994,None,824.9244728449994,None,824.9244728449994,None,824.9244728449994,None,,,,,,,,,,,,,,,,,,,,,,,,,,,,,,,,,,,,,,,,,,,,001,176,2020_Feb_27_1000,spring_faces,3.1.5,59.95542649804438,
condition files/Stage1_1.xlsx,,B2,T1,m,"['c', 'm']","['Clue', 'Monopoly']","[-0.15, 0.5]","[0.15, 0.5]",1,1,,,,,,,,,0,10,10,10,0,1,1,2,,,,,,,,,,,,,,,,,,,,,,,,,,,,,,,,,,,,,,,,,,,,,,,,,,,,,,,826.8907352329998,None,826.8907352329998,None,826.8907352329998,None,m,1,3.361821114000122,828.4250340829994,None,828.4250340829994,None,828.4250340829994,None,831.8410277269995,None,831.8410277269995,None,831.8410277269995,None,831.8410277269995,None,,,,,,,,,,,,,,,,,,,,,,,,,,,,,,,,,,,,,,,,,,,,001,176,2020_Feb_27_1000,spring_faces,3.1.5,59.95542649804438,
condition files/Stage1_1.xlsx,,T1,B1,c,"['c', 'm']","['Clue', 'Monopoly']","[-0.15, 0.5]","[0.15, 0.5]",1,1,,,,,,,,,0,10,10,10,0,2,2,0,,,,,,,,,,,,,,,,,,,,,,,,,,,,,,,,,,,,,,,,,,,,,,,,,,,,,,,833.8072511239998,None,833.8072511239998,None,833.8072511239998,None,m,0,1.3892495970003438,835.3576452819998,None,835.3576452819998,None,835.3576452819998,None,836.8240551479994,None,836.8240551479994,None,836.8240551479994,None,836.8240551479994,None,,,,,,,,,,,,,,,,,,,,,,,,,,,,,,,,,,,,,,,,,,,,001,176,2020_Feb_27_1000,spring_faces,3.1.5,59.95542649804438,
condition files/Stage1_1.xlsx,,T3,B4,c,"['c', 'm']","['Clue', 'Monopoly']","[-0.15, 0.5]","[0.15, 0.5]",1,1,,,,,,,,,0,10,10,10,0,3,3,5,,,,,,,,,,,,,,,,,,,,,,,,,,,,,,,,,,,,,,,,,,,,,,,,,,,,,,,838.7733303519999,None,838.7733303519999,None,838.7733303519999,None,c,1,1.366111458000887,840.3086970719996,None,840.3086970719996,None,840.3086970719996,None,841.7404528039997,None,841.7404528039997,None,841.7404528039997,None,841.7404528039997,None,,,,,,,,,,,,,,,,,,,,,,,,,,,,,,,,,,,,,,,,,,,,001,176,2020_Feb_27_1000,spring_faces,3.1.5,59.95542649804438,
condition files/Stage1_1.xlsx,,T2,B2,m,"['c', 'm']","['Clue', 'Monopoly']","[-0.15, 0.5]","[0.15, 0.5]",1,1,,,,,,,,,0,10,10,10,0,4,4,3,,,,,,,,,,,,,,,,,,,,,,,,,,,,,,,,,,,,,,,,,,,,,,,,,,,,,,,843.7072918169997,None,843.7072918169997,None,843.7072918169997,None,c,0,1.8420007670001723,845.2568948449998,None,845.2568948449998,None,845.2568948449998,None,847.1597534499997,None,847.1597534499997,None,847.1597534499997,None,847.1597534499997,None,,,,,,,,,,,,,,,,,,,,,,,,,,,,,,,,,,,,,,,,,,,,001,176,2020_Feb_27_1000,spring_faces,3.1.5,59.95542649804438,
condition files/Stage1_1.xlsx,,B3,T3,c,"['c', 'm']","['Clue', 'Monopoly']","[-0.15, 0.5]","[0.15, 0.5]",1,1,,,,,,,,,0,10,10,10,0,5,5,4,,,,,,,,,,,,,,,,,,,,,,,,,,,,,,,,,,,,,,,,,,,,,,,,,,,,,,,849.1239360989994,None,849.1239360989994,None,849.1239360989994,None,m,0,1.0654323009994187,850.6574101229999,None,850.6574101229999,None,850.6574101229999,None,851.7910652599994,None,851.7910652599994,None,851.7910652599994,None,851.7910652599994,None,,,,,,,,,,,,,,,,,,,,,,,,,,,,,,,,,,,,,,,,,,,,001,176,2020_Feb_27_1000,spring_faces,3.1.5,59.95542649804438,
condition files/Stage1_1.xlsx,,B1,T2,c,"['c', 'm']","['Clue', 'Monopoly']","[-0.15, 0.5]","[0.15, 0.5]",1,1,,,,,,,,,0,10,10,10,0,6,6,1,,,,,,,,,,,,,,,,,,,,,,,,,,,,,,,,,,,,,,,,,,,,,,,,,,,,,,,853.7407869109993,None,853.7407869109993,None,853.7407869109993,None,c,1,0.720796079000138,855.2740500729997,None,855.2740500729997,None,855.2740500729997,None,856.0575344769995,None,856.0575344769995,None,856.0575344769995,None,856.0575344769995,None,,,,,,,,,,,,,,,,,,,,,,,,,,,,,,,,,,,,,,,,,,,,001,176,2020_Feb_27_1000,spring_faces,3.1.5,59.95542649804438,
condition files/Stage1_1.xlsx,,B4,T4,m,"['c', 'm']","['Clue', 'Monopoly']","[-0.15, 0.5]","[0.15, 0.5]",1,1,,,,,,,,,0,10,10,10,0,7,7,7,,,,,,,,,,,,,,,,,,,,,,,,,,,,,,,,,,,,,,,,,,,,,,,,,,,,,,,858.0240696000001,None,858.0240696000001,None,858.0240696000001,None,m,1,1.3798259499999403,859.5590214889999,None,859.5590214889999,None,859.5590214889999,None,861.0074982189999,None,861.0074982189999,None,861.0074982189999,None,861.0074982189999,None,,,,,,,,,,,,,,,,,,,,,,,,,,,,,,,,,,,,,,,,,,,,001,176,2020_Feb_27_1000,spring_faces,3.1.5,59.95542649804438,
condition files/Stage1_2.xlsx,,T2,B1,c,"['c', 'm']","['Clue', 'Monopoly']","[-0.15, 0.5]","[0.15, 0.5]",1,1,,,,,,,,,0,11,11,11,0,0,0,1,,,,,,,,,,,,,,,,,,,,,,,,,,,,,,,,,,,,,,,,,,,,,,,,,,,,,,,862.9741312709994,None,862.9741312709994,None,862.9741312709994,None,m,0,1.2794319750000795,864.5073964459998,None,864.5073964459998,None,864.5073964459998,None,865.8403400459993,None,865.8403400459993,None,865.8403400459993,None,865.8403400459993,None,,,,,,,,,,,,,,,,,,,,,,,,,,,,,,,,,,,,,,,,,,,,001,176,2020_Feb_27_1000,spring_faces,3.1.5,59.95542649804438,
condition files/Stage1_2.xlsx,,B1,T1,c,"['c', 'm']","['Clue', 'Monopoly']","[-0.15, 0.5]","[0.15, 0.5]",1,1,,,,,,,,,0,11,11,11,0,1,1,0,,,,,,,,,,,,,,,,,,,,,,,,,,,,,,,,,,,,,,,,,,,,,,,,,,,,,,,867.8072131639992,None,867.8072131639992,None,867.8072131639992,None,m,0,1.2781701789999715,869.3406012339992,None,869.3406012339992,None,869.3406012339992,None,870.673869186,None,870.673869186,None,870.673869186,None,870.673869186,None,,,,,,,,,,,,,,,,,,,,,,,,,,,,,,,,,,,,,,,,,,,,001,176,2020_Feb_27_1000,spring_faces,3.1.5,59.95542649804438,
condition files/Stage1_2.xlsx,,B4,T3,c,"['c', 'm']","['Clue', 'Monopoly']","[-0.15, 0.5]","[0.15, 0.5]",1,1,,,,,,,,,0,11,11,11,0,2,2,5,,,,,,,,,,,,,,,,,,,,,,,,,,,,,,,,,,,,,,,,,,,,,,,,,,,,,,,872.6406963789996,None,872.6406963789996,None,872.6406963789996,None,c,1,0.7313460630002737,874.1755006009998,None,874.1755006009998,None,874.1755006009998,None,874.9575475559996,None,874.9575475559996,None,874.9575475559996,None,874.9575475559996,None,,,,,,,,,,,,,,,,,,,,,,,,,,,,,,,,,,,,,,,,,,,,001,176,2020_Feb_27_1000,spring_faces,3.1.5,59.95542649804438,
condition files/Stage1_2.xlsx,,B3,T4,m,"['c', 'm']","['Clue', 'Monopoly']","[-0.15, 0.5]","[0.15, 0.5]",1,1,,,,,,,,,0,11,11,11,0,3,3,6,,,,,,,,,,,,,,,,,,,,,,,,,,,,,,,,,,,,,,,,,,,,,,,,,,,,,,,876.9238392839998,None,876.9238392839998,None,876.9238392839998,None,c,0,1.2016857930002516,878.4570898729999,None,878.4570898729999,None,878.4570898729999,None,879.7241485309996,None,879.7241485309996,None,879.7241485309996,None,879.7241485309996,None,,,,,,,,,,,,,,,,,,,,,,,,,,,,,,,,,,,,,,,,,,,,001,176,2020_Feb_27_1000,spring_faces,3.1.5,59.95542649804438,
condition files/Stage1_2.xlsx,,T1,B2,m,"['c', 'm']","['Clue', 'Monopoly']","[-0.15, 0.5]","[0.15, 0.5]",1,1,,,,,,,,,0,11,11,11,0,4,4,2,,,,,,,,,,,,,,,,,,,,,,,,,,,,,,,,,,,,,,,,,,,,,,,,,,,,,,,881.690758449,None,881.690758449,None,881.690758449,None,m,1,1.3147072599995226,883.2241273919999,None,883.2241273919999,None,883.2241273919999,None,884.5910917269994,None,884.5910917269994,None,884.5910917269994,None,884.5910917269994,None,,,,,,,,,,,,,,,,,,,,,,,,,,,,,,,,,,,,,,,,,,,,001,176,2020_Feb_27_1000,spring_faces,3.1.5,59.95542649804438,
condition files/Stage1_2.xlsx,,T3,B3,c,"['c', 'm']","['Clue', 'Monopoly']","[-0.15, 0.5]","[0.15, 0.5]",1,1,,,,,,,,,0,11,11,11,0,5,5,4,,,,,,,,,,,,,,,,,,,,,,,,,,,,,,,,,,,,,,,,,,,,,,,,,,,,,,,886.5574250419995,None,886.5574250419995,None,886.5574250419995,None,m,0,2.160189719999835,888.0907272009999,None,888.0907272009999,None,888.0907272009999,None,890.3234227419998,None,890.3234227419998,None,890.3234227419998,None,890.3234227419998,None,,,,,,,,,,,,,,,,,,,,,,,,,,,,,,,,,,,,,,,,,,,,001,176,2020_Feb_27_1000,spring_faces,3.1.5,59.95542649804438,
condition files/Stage1_2.xlsx,,T4,B4,m,"['c', 'm']","['Clue', 'Monopoly']","[-0.15, 0.5]","[0.15, 0.5]",1,1,,,,,,,,,0,11,11,11,0,6,6,7,,,,,,,,,,,,,,,,,,,,,,,,,,,,,,,,,,,,,,,,,,,,,,,,,,,,,,,892.2740696779993,None,892.2740696779993,None,892.2740696779993,None,m,1,1.4356232010004533,893.8072294519998,None,893.8072294519998,None,893.8072294519998,None,895.3095244289998,None,895.3095244289998,None,895.3095244289998,None,895.3095244289998,None,,,,,,,,,,,,,,,,,,,,,,,,,,,,,,,,,,,,,,,,,,,,001,176,2020_Feb_27_1000,spring_faces,3.1.5,59.95542649804438,
condition files/Stage1_2.xlsx,,B2,T2,m,"['c', 'm']","['Clue', 'Monopoly']","[-0.15, 0.5]","[0.15, 0.5]",1,1,,,,,,,,,0,11,11,11,0,7,7,3,,,,,,,,,,,,,,,,,,,,,,,,,,,,,,,,,,,,,,,,,,,,,,,,,,,,,,,897.2738679439999,None,897.2738679439999,None,897.2738679439999,None,m,1,1.571830749999208,898.8070281390001,None,898.8070281390001,None,898.8070281390001,None,900.4403102239994,None,900.4403102239994,None,900.4403102239994,None,900.4403102239994,None,,,,,,,,,,,,,,,,,,,,,,,,,,,,,,,,,,,,,,,,,,,,001,176,2020_Feb_27_1000,spring_faces,3.1.5,59.95542649804438,
,,,,,,,,,,,,,,,,,,,,,,,,,,,,,,,,,,,,,,,,,,,,,,,,,,,,,,,,,,,,,,,,,,,,,,,,,,,,,,,,,,,,,,,,,,,,,,,,,,,,,,,,,,,,,,,,902.4237215200001,None,space,3.402988200999971,907.4238759189993,None,,,,,,,,,,,,,,,,,,,,,,,,,,,,,,001,176,2020_Feb_27_1000,spring_faces,3.1.5,59.95542649804438,
condition files/Stage2_1.xlsx,,B2,T2,r,"['s', 'r']","['Stratego', 'Risk']","[-0.15, 0.5]","[0.15, 0.5]",1,1,,,,,,,,,,,,,,,,,0,0,0,0,0,0,0,3,,,,,,,,,,,,,,,,,,,,,,,,,,,,,,,,,,,,,,,,,,,,,,,910.8906987569999,None,910.8906987569999,None,910.8906987569999,None,r,1,1.2014590039998438,912.4094050179992,None,912.4094050179992,None,912.4094050179992,None,913.6909118449994,None,913.6909118449994,None,913.6909118449994,None,913.6909118449994,None,,,,,,,,,,,,,,,907.4238759189993,None,,,,,,,,,,,,,,,,,,,,,,,,,,,,001,176,2020_Feb_27_1000,spring_faces,3.1.5,59.95542649804438,
condition files/Stage2_1.xlsx,,T5,B5,s,"['s', 'r']","['Stratego', 'Risk']","[-0.15, 0.5]","[0.15, 0.5]",1,1,,,,,,,,,,,,,,,,,0,0,0,0,0,1,1,0,,,,,,,,,,,,,,,,,,,,,,,,,,,,,,,,,,,,,,,,,,,,,,,915.6406954819995,None,915.6406954819995,None,915.6406954819995,None,s,1,0.7731393320000279,917.1737720699994,None,917.1737720699994,None,917.1737720699994,None,918.006929827,None,918.006929827,None,918.006929827,None,918.006929827,None,,,,,,,,,,,,,,,,,,,,,,,,,,,,,,,,,,,,,,,,,,,,001,176,2020_Feb_27_1000,spring_faces,3.1.5,59.95542649804438,
condition files/Stage2_1.xlsx,,B4,T4,r,"['s', 'r']","['Stratego', 'Risk']","[-0.15, 0.5]","[0.15, 0.5]",1,1,,,,,,,,,,,,,,,,,0,0,0,0,0,2,2,5,,,,,,,,,,,,,,,,,,,,,,,,,,,,,,,,,,,,,,,,,,,,,,,919.9738707829993,None,919.9738707829993,None,919.9738707829993,None,r,1,1.3974915259996123,921.5093373310001,None,921.5093373310001,None,921.5093373310001,None,922.9744452429995,None,922.9744452429995,None,922.9744452429995,None,922.9744452429995,None,,,,,,,,,,,,,,,,,,,,,,,,,,,,,,,,,,,,,,,,,,,,001,176,2020_Feb_27_1000,spring_faces,3.1.5,59.95542649804438,
condition files/Stage2_1.xlsx,,B6,T6,r,"['s', 'r']","['Stratego', 'Risk']","[-0.15, 0.5]","[0.15, 0.5]",1,1,,,,,,,,,,,,,,,,,0,0,0,0,0,3,3,1,,,,,,,,,,,,,,,,,,,,,,,,,,,,,,,,,,,,,,,,,,,,,,,924.9234873289997,None,924.9234873289997,None,924.9234873289997,None,s,0,0.5458982159998413,926.4569484119993,None,926.4569484119993,None,926.4569484119993,None,927.057400142,None,927.057400142,None,927.057400142,None,927.057400142,None,,,,,,,,,,,,,,,,,,,,,,,,,,,,,,,,,,,,,,,,,,,,001,176,2020_Feb_27_1000,spring_faces,3.1.5,59.95542649804438,
condition files/Stage2_1.xlsx,,T1,B1,s,"['s', 'r']","['Stratego', 'Risk']","[-0.15, 0.5]","[0.15, 0.5]",1,1,,,,,,,,,,,,,,,,,0,0,0,0,0,4,4,2,,,,,,,,,,,,,,,,,,,,,,,,,,,,,,,,,,,,,,,,,,,,,,,929.0240947579996,None,929.0240947579996,None,929.0240947579996,None,r,0,0.5887922290003189,930.5740550479995,None,930.5740550479995,None,930.5740550479995,None,931.224363882,None,931.224363882,None,931.224363882,None,931.224363882,None,,,,,,,,,,,,,,,,,,,,,,,,,,,,,,,,,,,,,,,,,,,,001,176,2020_Feb_27_1000,spring_faces,3.1.5,59.95542649804438,
condition files/Stage2_1.xlsx,,T3,B3,s,"['s', 'r']","['Stratego', 'Risk']","[-0.15, 0.5]","[0.15, 0.5]",1,1,,,,,,,,,,,,,,,,,0,0,0,0,0,5,5,4,,,,,,,,,,,,,,,,,,,,,,,,,,,,,,,,,,,,,,,,,,,,,,,933.1907257299999,None,933.1907257299999,None,933.1907257299999,None,s,1,0.8377061350001895,934.7411433059997,None,934.7411433059997,None,934.7411433059997,None,935.6410733899993,None,935.6410733899993,None,935.6410733899993,None,935.6410733899993,None,,,,,,,,,,,,,,,,,,,,,,,,,,,,,,,,,,,,,,,,,,,,001,176,2020_Feb_27_1000,spring_faces,3.1.5,59.95542649804438,
condition files/Stage2_2.xlsx,,B1,T1,s,"['s', 'r']","['Stratego', 'Risk']","[-0.15, 0.5]","[0.15, 0.5]",1,1,,,,,,,,,,,,,,,,,0,1,1,1,0,0,0,2,,,,,,,,,,,,,,,,,,,,,,,,,,,,,,,,,,,,,,,,,,,,,,,937.6240214999998,None,937.6240214999998,None,937.6240214999998,None,r,0,0.980680389000554,939.1581688869992,None,939.1581688869992,None,939.1581688869992,None,940.190384425,None,940.190384425,None,940.190384425,None,940.190384425,None,,,,,,,,,,,,,,,,,,,,,,,,,,,,,,,,,,,,,,,,,,,,001,176,2020_Feb_27_1000,spring_faces,3.1.5,59.95542649804438,
condition files/Stage2_2.xlsx,,B5,T5,s,"['s', 'r']","['Stratego', 'Risk']","[-0.15, 0.5]","[0.15, 0.5]",1,1,,,,,,,,,,,,,,,,,0,1,1,1,0,1,1,0,,,,,,,,,,,,,,,,,,,,,,,,,,,,,,,,,,,,,,,,,,,,,,,942.1572595259995,None,942.1572595259995,None,942.1572595259995,None,s,1,0.7017787269996916,943.693082887,None,943.693082887,None,943.693082887,None,944.4573958499996,None,944.4573958499996,None,944.4573958499996,None,944.4573958499996,None,,,,,,,,,,,,,,,,,,,,,,,,,,,,,,,,,,,,,,,,,,,,001,176,2020_Feb_27_1000,spring_faces,3.1.5,59.95542649804438,
condition files/Stage2_2.xlsx,,T2,B2,r,"['s', 'r']","['Stratego', 'Risk']","[-0.15, 0.5]","[0.15, 0.5]",1,1,,,,,,,,,,,,,,,,,0,1,1,1,0,2,2,3,,,,,,,,,,,,,,,,,,,,,,,,,,,,,,,,,,,,,,,,,,,,,,,946.4239078979999,None,946.4239078979999,None,946.4239078979999,None,r,1,1.1081776339997305,947.9586723149996,None,947.9586723149996,None,947.9586723149996,None,949.1263955329996,None,949.1263955329996,None,949.1263955329996,None,949.1263955329996,None,,,,,,,,,,,,,,,,,,,,,,,,,,,,,,,,,,,,,,,,,,,,001,176,2020_Feb_27_1000,spring_faces,3.1.5,59.95542649804438,
condition files/Stage2_2.xlsx,,B3,T3,s,"['s', 'r']","['Stratego', 'Risk']","[-0.15, 0.5]","[0.15, 0.5]",1,1,,,,,,,,,,,,,,,,,0,1,1,1,0,3,3,4,,,,,,,,,,,,,,,,,,,,,,,,,,,,,,,,,,,,,,,,,,,,,,,951.0903463329996,None,951.0903463329996,None,951.0903463329996,None,s,1,1.3547660069998528,952.6240957999998,None,952.6240957999998,None,952.6240957999998,None,954.0412694259994,None,954.0412694259994,None,954.0412694259994,None,954.0412694259994,None,,,,,,,,,,,,,,,,,,,,,,,,,,,,,,,,,,,,,,,,,,,,001,176,2020_Feb_27_1000,spring_faces,3.1.5,59.95542649804438,
condition files/Stage2_2.xlsx,,T4,B4,r,"['s', 'r']","['Stratego', 'Risk']","[-0.15, 0.5]","[0.15, 0.5]",1,1,,,,,,,,,,,,,,,,,0,1,1,1,0,4,4,5,,,,,,,,,,,,,,,,,,,,,,,,,,,,,,,,,,,,,,,,,,,,,,,956.007213674,None,956.007213674,None,956.007213674,None,r,1,1.03002983999977,957.540895698,None,957.540895698,None,957.540895698,None,958.6264530729995,None,958.6264530729995,None,958.6264530729995,None,958.6264530729995,None,,,,,,,,,,,,,,,,,,,,,,,,,,,,,,,,,,,,,,,,,,,,001,176,2020_Feb_27_1000,spring_faces,3.1.5,59.95542649804438,
condition files/Stage2_2.xlsx,,T6,B6,r,"['s', 'r']","['Stratego', 'Risk']","[-0.15, 0.5]","[0.15, 0.5]",1,1,,,,,,,,,,,,,,,,,0,1,1,1,0,5,5,1,,,,,,,,,,,,,,,,,,,,,,,,,,,,,,,,,,,,,,,,,,,,,,,960.5906195729995,None,960.5906195729995,None,960.5906195729995,None,s,0,1.3890567739999824,962.1258641300001,None,962.1258641300001,None,962.1258641300001,None,963.5744326889999,None,963.5744326889999,None,963.5744326889999,None,963.5744326889999,None,,,,,,,,,,,,,,,,,,,,,,,,,,,,,,,,,,,,,,,,,,,,001,176,2020_Feb_27_1000,spring_faces,3.1.5,59.95542649804438,
condition files/Stage2_1.xlsx,,B6,T6,r,"['s', 'r']","['Stratego', 'Risk']","[-0.15, 0.5]","[0.15, 0.5]",1,1,,,,,,,,,,,,,,,,,0,2,2,2,0,0,0,1,,,,,,,,,,,,,,,,,,,,,,,,,,,,,,,,,,,,,,,,,,,,,,,965.5578980309992,None,965.5578980309992,None,965.5578980309992,None,r,1,1.352031089000775,967.0908292759996,None,967.0908292759996,None,967.0908292759996,None,968.50760369,None,968.50760369,None,968.50760369,None,968.50760369,None,,,,,,,,,,,,,,,,,,,,,,,,,,,,,,,,,,,,,,,,,,,,001,176,2020_Feb_27_1000,spring_faces,3.1.5,59.95542649804438,
condition files/Stage2_1.xlsx,,T5,B5,s,"['s', 'r']","['Stratego', 'Risk']","[-0.15, 0.5]","[0.15, 0.5]",1,1,,,,,,,,,,,,,,,,,0,2,2,2,0,1,1,0,,,,,,,,,,,,,,,,,,,,,,,,,,,,,,,,,,,,,,,,,,,,,,,970.4738064200001,None,970.4738064200001,None,970.4738064200001,None,s,1,1.7797312850007074,972.0071148849993,None,972.0071148849993,None,972.0071148849993,None,973.8571119119997,None,973.8571119119997,None,973.8571119119997,None,973.8571119119997,None,,,,,,,,,,,,,,,,,,,,,,,,,,,,,,,,,,,,,,,,,,,,001,176,2020_Feb_27_1000,spring_faces,3.1.5,59.95542649804438,
condition files/Stage2_1.xlsx,,B4,T4,r,"['s', 'r']","['Stratego', 'Risk']","[-0.15, 0.5]","[0.15, 0.5]",1,1,,,,,,,,,,,,,,,,,0,2,2,2,0,2,2,5,,,,,,,,,,,,,,,,,,,,,,,,,,,,,,,,,,,,,,,,,,,,,,,975.8069490809994,None,975.8069490809994,None,975.8069490809994,None,r,1,0.8147251979999055,977.3401145629996,None,977.3401145629996,None,977.3401145629996,None,978.2095078120001,None,978.2095078120001,None,978.2095078120001,None,978.2095078120001,None,,,,,,,,,,,,,,,,,,,,,,,,,,,,,,,,,,,,,,,,,,,,001,176,2020_Feb_27_1000,spring_faces,3.1.5,59.95542649804438,
condition files/Stage2_1.xlsx,,T3,B3,s,"['s', 'r']","['Stratego', 'Risk']","[-0.15, 0.5]","[0.15, 0.5]",1,1,,,,,,,,,,,,,,,,,0,2,2,2,0,3,3,4,,,,,,,,,,,,,,,,,,,,,,,,,,,,,,,,,,,,,,,,,,,,,,,980.1739483169995,None,980.1739483169995,None,980.1739483169995,None,s,1,0.6232913359999657,981.7076095319999,None,981.7076095319999,None,981.7076095319999,None,982.3922589889999,None,982.3922589889999,None,982.3922589889999,None,982.3922589889999,None,,,,,,,,,,,,,,,,,,,,,,,,,,,,,,,,,,,,,,,,,,,,001,176,2020_Feb_27_1000,spring_faces,3.1.5,59.95542649804438,
condition files/Stage2_1.xlsx,,T1,B1,s,"['s', 'r']","['Stratego', 'Risk']","[-0.15, 0.5]","[0.15, 0.5]",1,1,,,,,,,,,,,,,,,,,0,2,2,2,0,4,4,2,,,,,,,,,,,,,,,,,,,,,,,,,,,,,,,,,,,,,,,,,,,,,,,984.3567310099997,None,984.3567310099997,None,984.3567310099997,None,r,0,1.8160028229995078,985.8908503339999,None,985.8908503339999,None,985.8908503339999,None,987.7575776619997,None,987.7575776619997,None,987.7575776619997,None,987.7575776619997,None,,,,,,,,,,,,,,,,,,,,,,,,,,,,,,,,,,,,,,,,,,,,001,176,2020_Feb_27_1000,spring_faces,3.1.5,59.95542649804438,
condition files/Stage2_1.xlsx,,B2,T2,r,"['s', 'r']","['Stratego', 'Risk']","[-0.15, 0.5]","[0.15, 0.5]",1,1,,,,,,,,,,,,,,,,,0,2,2,2,0,5,5,3,,,,,,,,,,,,,,,,,,,,,,,,,,,,,,,,,,,,,,,,,,,,,,,989.7239521849997,None,989.7239521849997,None,989.7239521849997,None,s,0,0.8967312640006639,991.2741754409999,None,991.2741754409999,None,991.2741754409999,None,992.2264701439999,None,992.2264701439999,None,992.2264701439999,None,992.2264701439999,None,,,,,,,,,,,,,,,,,,,,,,,,,,,,,,,,,,,,,,,,,,,,001,176,2020_Feb_27_1000,spring_faces,3.1.5,59.95542649804438,
condition files/Stage2_2.xlsx,,T2,B2,r,"['s', 'r']","['Stratego', 'Risk']","[-0.15, 0.5]","[0.15, 0.5]",1,1,,,,,,,,,,,,,,,,,0,3,3,3,0,0,0,3,,,,,,,,,,,,,,,,,,,,,,,,,,,,,,,,,,,,,,,,,,,,,,,994.207461209,None,994.207461209,None,994.207461209,None,r,1,0.5572938710001836,995.7576095159993,None,995.7576095159993,None,995.7576095159993,None,996.374506184,None,996.374506184,None,996.374506184,None,996.374506184,None,,,,,,,,,,,,,,,,,,,,,,,,,,,,,,,,,,,,,,,,,,,,001,176,2020_Feb_27_1000,spring_faces,3.1.5,59.95542649804438,
condition files/Stage2_2.xlsx,,B5,T5,s,"['s', 'r']","['Stratego', 'Risk']","[-0.15, 0.5]","[0.15, 0.5]",1,1,,,,,,,,,,,,,,,,,0,3,3,3,0,1,1,0,,,,,,,,,,,,,,,,,,,,,,,,,,,,,,,,,,,,,,,,,,,,,,,998.3405567709997,None,998.3405567709997,None,998.3405567709997,None,s,1,1.015285362999748,999.8754975339998,None,999.8754975339998,None,999.8754975339998,None,1000.9412406929996,None,1000.9412406929996,None,1000.9412406929996,None,1000.9412406929996,None,,,,,,,,,,,,,,,,,,,,,,,,,,,,,,,,,,,,,,,,,,,,001,176,2020_Feb_27_1000,spring_faces,3.1.5,59.95542649804438,
condition files/Stage2_2.xlsx,,B1,T1,s,"['s', 'r']","['Stratego', 'Risk']","[-0.15, 0.5]","[0.15, 0.5]",1,1,,,,,,,,,,,,,,,,,0,3,3,3,0,2,2,2,,,,,,,,,,,,,,,,,,,,,,,,,,,,,,,,,,,,,,,,,,,,,,,1002.9073924909999,None,1002.9073924909999,None,1002.9073924909999,None,r,0,1.1530143290001433,1004.4418379250001,None,1004.4418379250001,None,1004.4418379250001,None,1005.6577287109994,None,1005.6577287109994,None,1005.6577287109994,None,1005.6577287109994,None,,,,,,,,,,,,,,,,,,,,,,,,,,,,,,,,,,,,,,,,,,,,001,176,2020_Feb_27_1000,spring_faces,3.1.5,59.95542649804438,
condition files/Stage2_2.xlsx,,T6,B6,r,"['s', 'r']","['Stratego', 'Risk']","[-0.15, 0.5]","[0.15, 0.5]",1,1,,,,,,,,,,,,,,,,,0,3,3,3,0,3,3,1,,,,,,,,,,,,,,,,,,,,,,,,,,,,,,,,,,,,,,,,,,,,,,,1007.623933631,None,1007.623933631,None,1007.623933631,None,s,0,1.4775002639999002,1009.1573428709999,None,1009.1573428709999,None,1009.1573428709999,None,1010.707529929,None,1010.707529929,None,1010.707529929,None,1010.707529929,None,,,,,,,,,,,,,,,,,,,,,,,,,,,,,,,,,,,,,,,,,,,,001,176,2020_Feb_27_1000,spring_faces,3.1.5,59.95542649804438,
condition files/Stage2_2.xlsx,,B3,T3,s,"['s', 'r']","['Stratego', 'Risk']","[-0.15, 0.5]","[0.15, 0.5]",1,1,,,,,,,,,,,,,,,,,0,3,3,3,0,4,4,4,,,,,,,,,,,,,,,,,,,,,,,,,,,,,,,,,,,,,,,,,,,,,,,1012.6574203509999,None,1012.6574203509999,None,1012.6574203509999,None,s,1,0.9553239300003042,1014.2075166709992,None,1014.2075166709992,None,1014.2075166709992,None,1015.2263130169995,None,1015.2263130169995,None,1015.2263130169995,None,1015.2263130169995,None,,,,,,,,,,,,,,,,,,,,,,,,,,,,,,,,,,,,,,,,,,,,001,176,2020_Feb_27_1000,spring_faces,3.1.5,59.95542649804438,
condition files/Stage2_2.xlsx,,T4,B4,r,"['s', 'r']","['Stratego', 'Risk']","[-0.15, 0.5]","[0.15, 0.5]",1,1,,,,,,,,,,,,,,,,,0,3,3,3,0,5,5,5,,,,,,,,,,,,,,,,,,,,,,,,,,,,,,,,,,,,,,,,,,,,,,,1017.1900872359993,None,1017.1900872359993,None,1017.1900872359993,None,s,0,1.526738941000076,1018.7241818819994,None,1018.7241818819994,None,1018.7241818819994,None,1020.3071726969993,None,1020.3071726969993,None,1020.3071726969993,None,1020.3071726969993,None,,,,,,,,,,,,,,,,,,,,,,,,,,,,,,,,,,,,,,,,,,,,001,176,2020_Feb_27_1000,spring_faces,3.1.5,59.95542649804438,
condition files/Stage2_1.xlsx,,B2,T2,r,"['s', 'r']","['Stratego', 'Risk']","[-0.15, 0.5]","[0.15, 0.5]",1,1,,,,,,,,,,,,,,,,,0,4,4,4,0,0,0,3,,,,,,,,,,,,,,,,,,,,,,,,,,,,,,,,,,,,,,,,,,,,,,,1022.290418261,None,1022.290418261,None,1022.290418261,None,r,1,0.8742578820001654,1023.824644198,None,1023.824644198,None,1023.824644198,None,1024.7575905009999,None,1024.7575905009999,None,1024.7575905009999,None,1024.7575905009999,None,,,,,,,,,,,,,,,,,,,,,,,,,,,,,,,,,,,,,,,,,,,,001,176,2020_Feb_27_1000,spring_faces,3.1.5,59.95542649804438,
condition files/Stage2_1.xlsx,,B6,T6,r,"['s', 'r']","['Stratego', 'Risk']","[-0.15, 0.5]","[0.15, 0.5]",1,1,,,,,,,,,,,,,,,,,0,4,4,4,0,1,1,1,,,,,,,,,,,,,,,,,,,,,,,,,,,,,,,,,,,,,,,,,,,,,,,1026.723188766,None,1026.723188766,None,1026.723188766,None,r,1,1.0495237239993003,1028.2573208719996,None,1028.2573208719996,None,1028.2573208719996,None,1029.3577043939995,None,1029.3577043939995,None,1029.3577043939995,None,1029.3577043939995,None,,,,,,,,,,,,,,,,,,,,,,,,,,,,,,,,,,,,,,,,,,,,001,176,2020_Feb_27_1000,spring_faces,3.1.5,59.95542649804438,
condition files/Stage2_1.xlsx,,T5,B5,s,"['s', 'r']","['Stratego', 'Risk']","[-0.15, 0.5]","[0.15, 0.5]",1,1,,,,,,,,,,,,,,,,,0,4,4,4,0,2,2,0,,,,,,,,,,,,,,,,,,,,,,,,,,,,,,,,,,,,,,,,,,,,,,,1031.3238878929997,None,1031.3238878929997,None,1031.3238878929997,None,s,1,0.8968017139995936,1032.8580440899996,None,1032.8580440899996,None,1032.8580440899996,None,1033.8075302689995,None,1033.8075302689995,None,1033.8075302689995,None,1033.8075302689995,None,,,,,,,,,,,,,,,,,,,,,,,,,,,,,,,,,,,,,,,,,,,,001,176,2020_Feb_27_1000,spring_faces,3.1.5,59.95542649804438,
condition files/Stage2_1.xlsx,,T1,B1,s,"['s', 'r']","['Stratego', 'Risk']","[-0.15, 0.5]","[0.15, 0.5]",1,1,,,,,,,,,,,,,,,,,0,4,4,4,0,3,3,2,,,,,,,,,,,,,,,,,,,,,,,,,,,,,,,,,,,,,,,,,,,,,,,1035.7740838979998,None,1035.7740838979998,None,1035.7740838979998,None,r,0,1.1502943790001154,1037.3085077639998,None,1037.3085077639998,None,1037.3085077639998,None,1038.5242728019994,None,1038.5242728019994,None,1038.5242728019994,None,1038.5242728019994,None,,,,,,,,,,,,,,,,,,,,,,,,,,,,,,,,,,,,,,,,,,,,001,176,2020_Feb_27_1000,spring_faces,3.1.5,59.95542649804438,
