condsFile,subStage,cue1,cue2,correct,responseKeys,responseNames,cue1Position,cue2Position,cue1Opacity,cue2Opacity,stageLoop0.thisRepN,stageLoop0.thisTrialN,stageLoop0.thisN,stageLoop0.thisIndex,blockLoop0.thisRepN,blockLoop0.thisTrialN,blockLoop0.thisN,blockLoop0.thisIndex,stage1Loop.thisRepN,stage1Loop.thisTrialN,stage1Loop.thisN,stage1Loop.thisIndex,blockLoop1.thisRepN,blockLoop1.thisTrialN,blockLoop1.thisN,blockLoop1.thisIndex,stage2Loop.thisRepN,stage2Loop.thisTrialN,stage2Loop.thisN,stage2Loop.thisIndex,blockLoop2.thisRepN,blockLoop2.thisTrialN,blockLoop2.thisN,blockLoop2.thisIndex,testLoop.thisRepN,testLoop.thisTrialN,testLoop.thisN,testLoop.thisIndex,blockLoopTest.thisRepN,blockLoopTest.thisTrialN,blockLoopTest.thisN,blockLoopTest.thisIndex,cuePics,id_instr_text.started,id_instr_text.stopped,space_to_continue_2.started,space_to_continue_2.stopped,end_instructions_resp_3.keys,end_instructions_resp_3.rt,end_instructions_resp_3.started,end_instructions_resp_3.stopped,id_input_instr.started,id_input_instr.stopped,id_input_rect.started,id_input_rect.stopped,id_input_resp.keys,id_input_resp.rt,id_input_resp.started,id_input_resp.stopped,sonaID,id_input_text.started,id_input_text.stopped,final_text.started,final_text.stopped,instructions.started,instructions.stopped,end_instructions_resp.keys,end_instructions_resp.rt,end_instructions_resp.started,end_instructions_resp.stopped,space_to_continue.started,space_to_continue.stopped,instructions_stage0.started,instructions_stage0.stopped,end_instructions_resp_stage0.keys,end_instructions_resp_stage0.rt,end_instructions_resp_stage0.started,end_instructions_resp_stage0.stopped,space_to_continue_stage0.started,space_to_continue_stage0.stopped,text.started,text.stopped,resp_text1.started,resp_text1.stopped,resp_text2.started,resp_text2.stopped,trial_resp.keys,trial_resp.corr,trial_resp.rt,trial_resp.started,trial_resp.stopped,cue1Image.started,cue1Image.stopped,cue2Image.started,cue2Image.stopped,cue1Image_fb.started,cue1Image_fb.stopped,cue2Image_fb.started,cue2Image_fb.stopped,fb_text_answer.started,fb_text_answer.stopped,feedback_image.started,feedback_image.stopped,instructions_stage1.started,instructions_stage1.stopped,end_instructions_resp_stage1.keys,end_instructions_resp_stage1.rt,end_instructions_resp_stage1.started,end_instructions_resp_stage1.stopped,space_to_continue_stage1.started,space_to_continue_stage1.stopped,instructions_2.started,instructions_2.stopped,end_instructions_resp_2.keys,end_instructions_resp_2.rt,end_instructions_resp_2.started,end_instructions_resp_2.stopped,press_space_to_continue_stage2.started,press_space_to_continue_stage2.stopped,instructions_testStage1.started,instructions_testStage1.stopped,end_instructions_resp_test1.keys,end_instructions_resp_test1.rt,end_instructions_resp_test1.started,end_instructions_resp_test1.stopped,press_space_to_continue_test1.started,press_space_to_continue_test1.stopped,cue1Image_testChoice.started,cue1Image_testChoice.stopped,cue2Image_testChoice.started,cue2Image_testChoice.stopped,test_resp.keys,test_resp.corr,test_resp.rt,test_resp.started,test_resp.stopped,cue1Image_testConf.started,cue1Image_testConf.stopped,cue2Image_testConf.started,cue2Image_testConf.stopped,conf_reminder.started,conf_reminder.stopped,conf_rating.response,conf_rating.rt,conf_rating.started,conf_rating.stopped,session,participant,date,expName,psychopyVersion,frameRate,
,,,,,,,,,,,,,,,,,,,,,,,,,,,,,,,,,,,,,,,,,,,"{'none': 'pictures/20M_AN_C.png', 'alpha': 'pictures/SHINEd_pepper.png', 'beta': 'pictures/SHINEd_pear.png', 'theta': 'pictures/SHINEd_apple.png', 'phi': 'pictures/SHINEd_melon.png', 'T1': 'pictures/36M_AN_C.png', 'T2': 'pictures/32M_AN_C.png', 'T3': 'pictures/38M_AN_C.png', 'T4': 'pictures/20M_AN_C.png', 'T5': 'pictures/22M_AN_C.png', 'T6': 'pictures/23M_AN_C.png', 'B1': 'pictures/33M_NE_C.png', 'B2': 'pictures/25M_NE_C.png', 'B3': 'pictures/37M_NE_C.png', 'B4': 'pictures/31M_NE_C.png', 'B5': 'pictures/26M_NE_C.png', 'B6': 'pictures/34M_NE_C.png'}",13.461576555999272,None,18.444513858999926,None,space,10.271447953999996,18.444513858999926,None,,,,,,,,,,,,,,,,,,,,,,,,,,,,,,,,,,,,,,,,,,,,,,,,,,,,,,,,,,,,,,,,,,,,,,,,,,,,,,,,,,,,,,,,,,,,,,,,001,177,2020_Feb_27_1030,spring_faces,3.1.5,60.0685457792749,
,,,,,,,,,,,,,,,,,,,,,,,,,,,,,,,,,,,,,,,,,,,,,,,,,,,,29.111005662000025,None,29.111005662000025,None,"['a', 'f', 'backspace', 'backspace', '0', '1', '0', '3', 'a', 'n', 'c', 'h', 'e']","[57.828934699000456, 57.98895640000046, 59.316936653000084, 59.58896190700034, 60.884885294000014, 62.77296349600056, 72.27700736800034, 72.70888153400028, 78.77295739100009, 80.37295434200041, 84.08489007900062, 84.37293877699994, 84.54894231100025]",29.111005662000025,None,,,,,,,,,,,,,,,,,,,,,,,,,,,,,,,,,,,,,,,,,,,,,,,,,,,,,,,,,,,,,,,,,,,,,,,,,,,,,,,,,,,,,,,,001,177,2020_Feb_27_1030,spring_faces,3.1.5,60.0685457792749,
,,,,,,,,,,,,,,,,,,,,,,,,,,,,,,,,,,,,,,,,,,,,,,,,,,,,,,,,,,,,0103anche,29.111005662000025,None,29.111005662000025,None,118.72836652699971,None,space,5.164145378000285,123.72780098800013,None,,,,,,,,,,,,,,,,,,,,,,,,,,,,,,,,,,,,,,,,,,,,,,,,,,,,,,,,,,,,,,,,,,,,,,,,,,,,,001,177,2020_Feb_27_1030,spring_faces,3.1.5,60.0685457792749,
,,,,,,,,,,,,,,,,,,,,,,,,,,,,,,,,,,,,,,,,,,,,,,,,,,,,,,,,,,,,,,,,,,,,,,,123.72780098800013,None,128.9280179769994,None,space,5.652111039000374,133.92782978200012,None,,,,,,,,,,,,,,,,,,,,,,,,,,,,,,,,,,,,,,,,,,,,,,,,,,,,,,,,,,,,,,,,,,,,,001,177,2020_Feb_27_1030,spring_faces,3.1.5,60.0685457792749,
condition files/Stage0a.xlsx,0a,alpha,none,h,"['h', 'g']","['Chess', 'Go']","[0, 0.5]","[0, 0]",1,0,0,0,0,0,0,0,0,0,,,,,,,,,,,,,,,,,,,,,,,,,,,,,,,,,,,,,,,,,,,,,,,,,,,,,,,,,,,,,133.92782978200012,None,139.6442130759997,None,139.6442130759997,None,139.6442130759997,None,h,1,1.9837804449998657,141.22811844599983,None,141.22811844599983,None,141.22811844599983,None,143.29447541099944,None,143.29447541099944,None,143.29447541099944,None,143.29447541099944,None,,,,,,,,,,,,,,,,,,,,,,,,,,,,,,,,,,,,,,,,,,,,001,177,2020_Feb_27_1030,spring_faces,3.1.5,60.0685457792749,
condition files/Stage0a.xlsx,0a,beta,none,g,"['h', 'g']","['Chess', 'Go']","[0, 0.5]","[0, 0]",1,0,0,0,0,0,0,1,1,1,,,,,,,,,,,,,,,,,,,,,,,,,,,,,,,,,,,,,,,,,,,,,,,,,,,,,,,,,,,,,,,145.244419955,None,145.244419955,None,145.244419955,None,g,1,0.7678796969994437,146.79606174799937,None,146.79606174799937,None,146.79606174799937,None,147.627675662,None,147.627675662,None,147.627675662,None,147.627675662,None,,,,,,,,,,,,,,,,,,,,,,,,,,,,,,,,,,,,,,,,,,,,001,177,2020_Feb_27_1030,spring_faces,3.1.5,60.0685457792749,
condition files/Stage0a.xlsx,0a,beta,none,g,"['h', 'g']","['Chess', 'Go']","[0, 0.5]","[0, 0]",1,0,0,1,1,1,0,0,0,1,,,,,,,,,,,,,,,,,,,,,,,,,,,,,,,,,,,,,,,,,,,,,,,,,,,,,,,,,,,,,,,149.6113621229997,None,149.6113621229997,None,149.6113621229997,None,h,0,0.6122471230000883,151.12767814200015,None,151.12767814200015,None,151.12767814200015,None,151.7949139399998,None,151.7949139399998,None,151.7949139399998,None,151.7949139399998,None,,,,,,,,,,,,,,,,,,,,,,,,,,,,,,,,,,,,,,,,,,,,001,177,2020_Feb_27_1030,spring_faces,3.1.5,60.0685457792749,
condition files/Stage0a.xlsx,0a,alpha,none,h,"['h', 'g']","['Chess', 'Go']","[0, 0.5]","[0, 0]",1,0,0,1,1,1,0,1,1,0,,,,,,,,,,,,,,,,,,,,,,,,,,,,,,,,,,,,,,,,,,,,,,,,,,,,,,,,,,,,,,,153.76025740899968,None,153.76025740899968,None,153.76025740899968,None,h,1,4.077833524999733,155.29408998100007,None,155.29408998100007,None,155.29408998100007,None,159.42777382999975,None,159.42777382999975,None,159.42777382999975,None,159.42777382999975,None,,,,,,,,,,,,,,,,,,,,,,,,,,,,,,,,,,,,,,,,,,,,001,177,2020_Feb_27_1030,spring_faces,3.1.5,60.0685457792749,
condition files/Stage0a.xlsx,0a,beta,none,g,"['h', 'g']","['Chess', 'Go']","[0, 0.5]","[0, 0]",1,0,0,2,2,2,0,0,0,1,,,,,,,,,,,,,,,,,,,,,,,,,,,,,,,,,,,,,,,,,,,,,,,,,,,,,,,,,,,,,,,161.4113946769994,None,161.4113946769994,None,161.4113946769994,None,g,1,1.0838606150000487,162.94409940999958,None,162.94409940999958,None,162.94409940999958,None,164.07792398399943,None,164.07792398399943,None,164.07792398399943,None,164.07792398399943,None,,,,,,,,,,,,,,,,,,,,,,,,,,,,,,,,,,,,,,,,,,,,001,177,2020_Feb_27_1030,spring_faces,3.1.5,60.0685457792749,
condition files/Stage0a.xlsx,0a,alpha,none,h,"['h', 'g']","['Chess', 'Go']","[0, 0.5]","[0, 0]",1,0,0,2,2,2,0,1,1,0,,,,,,,,,,,,,,,,,,,,,,,,,,,,,,,,,,,,,,,,,,,,,,,,,,,,,,,,,,,,,,,166.04357175699988,None,166.04357175699988,None,166.04357175699988,None,h,1,1.153560242999447,167.57837660699988,None,167.57837660699988,None,167.57837660699988,None,168.79425206299948,None,168.79425206299948,None,168.79425206299948,None,168.79425206299948,None,,,,,,,,,,,,,,,,,,,,,,,,,,,,,,,,,,,,,,,,,,,,001,177,2020_Feb_27_1030,spring_faces,3.1.5,60.0685457792749,
condition files/Stage0a.xlsx,0a,beta,none,g,"['h', 'g']","['Chess', 'Go']","[0, 0.5]","[0, 0]",1,0,0,3,3,3,0,0,0,1,,,,,,,,,,,,,,,,,,,,,,,,,,,,,,,,,,,,,,,,,,,,,,,,,,,,,,,,,,,,,,,170.77813979799976,None,170.77813979799976,None,170.77813979799976,None,g,1,0.7895946529997673,172.29437212599987,None,172.29437212599987,None,172.29437212599987,None,173.14411390999976,None,173.14411390999976,None,173.14411390999976,None,173.14411390999976,None,,,,,,,,,,,,,,,,,,,,,,,,,,,,,,,,,,,,,,,,,,,,001,177,2020_Feb_27_1030,spring_faces,3.1.5,60.0685457792749,
condition files/Stage0a.xlsx,0a,alpha,none,h,"['h', 'g']","['Chess', 'Go']","[0, 0.5]","[0, 0]",1,0,0,3,3,3,0,1,1,0,,,,,,,,,,,,,,,,,,,,,,,,,,,,,,,,,,,,,,,,,,,,,,,,,,,,,,,,,,,,,,,175.11102494599982,None,175.11102494599982,None,175.11102494599982,None,h,1,1.0472988659994371,176.64463649299978,None,176.64463649299978,None,176.64463649299978,None,177.74439449199963,None,177.74439449199963,None,177.74439449199963,None,177.74439449199963,None,,,,,,,,,,,,,,,,,,,,,,,,,,,,,,,,,,,,,,,,,,,,001,177,2020_Feb_27_1030,spring_faces,3.1.5,60.0685457792749,
condition files/Stage0a.xlsx,0a,alpha,none,h,"['h', 'g']","['Chess', 'Go']","[0, 0.5]","[0, 0]",1,0,0,4,4,4,0,0,0,0,,,,,,,,,,,,,,,,,,,,,,,,,,,,,,,,,,,,,,,,,,,,,,,,,,,,,,,,,,,,,,,179.727587073,None,179.727587073,None,179.727587073,None,h,1,0.6869370340000387,181.2610216869998,None,181.2610216869998,None,181.2610216869998,None,182.01111640399995,None,182.01111640399995,None,182.01111640399995,None,182.01111640399995,None,,,,,,,,,,,,,,,,,,,,,,,,,,,,,,,,,,,,,,,,,,,,001,177,2020_Feb_27_1030,spring_faces,3.1.5,60.0685457792749,
condition files/Stage0a.xlsx,0a,beta,none,g,"['h', 'g']","['Chess', 'Go']","[0, 0.5]","[0, 0]",1,0,0,4,4,4,0,1,1,1,,,,,,,,,,,,,,,,,,,,,,,,,,,,,,,,,,,,,,,,,,,,,,,,,,,,,,,,,,,,,,,183.9778971629994,None,183.9778971629994,None,183.9778971629994,None,g,1,1.428730652000013,185.5112329959993,None,185.5112329959993,None,185.5112329959993,None,187.0107258929993,None,187.0107258929993,None,187.0107258929993,None,187.0107258929993,None,,,,,,,,,,,,,,,,,,,,,,,,,,,,,,,,,,,,,,,,,,,,001,177,2020_Feb_27_1030,spring_faces,3.1.5,60.0685457792749,
condition files/Stage0a.xlsx,0a,beta,none,g,"['h', 'g']","['Chess', 'Go']","[0, 0.5]","[0, 0]",1,0,0,5,5,5,0,0,0,1,,,,,,,,,,,,,,,,,,,,,,,,,,,,,,,,,,,,,,,,,,,,,,,,,,,,,,,,,,,,,,,188.977665935,None,188.977665935,None,188.977665935,None,g,1,0.9407388059998993,190.51126258600016,None,190.51126258600016,None,190.51126258600016,None,191.51136445799966,None,191.51136445799966,None,191.51136445799966,None,191.51136445799966,None,,,,,,,,,,,,,,,,,,,,,,,,,,,,,,,,,,,,,,,,,,,,001,177,2020_Feb_27_1030,spring_faces,3.1.5,60.0685457792749,
condition files/Stage0a.xlsx,0a,alpha,none,h,"['h', 'g']","['Chess', 'Go']","[0, 0.5]","[0, 0]",1,0,0,5,5,5,0,1,1,0,,,,,,,,,,,,,,,,,,,,,,,,,,,,,,,,,,,,,,,,,,,,,,,,,,,,,,,,,,,,,,,193.4771107659999,None,193.4771107659999,None,193.4771107659999,None,h,1,0.7289891110003737,195.01094928699968,None,195.01094928699968,None,195.01094928699968,None,195.79460606700013,None,195.79460606700013,None,195.79460606700013,None,195.79460606700013,None,,,,,,,,,,,,,,,,,,,,,,,,,,,,,,,,,,,,,,,,,,,,001,177,2020_Feb_27_1030,spring_faces,3.1.5,60.0685457792749,
condition files/Stage0b_1.xlsx,0b,alpha,none,h,"['h', 'g']","['Chess', 'Go']","[-0.15, 0.5]","[0.15, 0.5]",1,0,0,6,6,6,0,0,0,0,,,,,,,,,,,,,,,,,,,,,,,,,,,,,,,,,,,,,,,,,,,,,,,,,,,,,,,,,,,,,,,197.77812755000014,None,197.77812755000014,None,197.77812755000014,None,h,1,0.9246636409998246,199.31134354000005,None,199.31134354000005,None,199.31134354000005,None,200.29456633900008,None,200.29456633900008,None,200.29456633900008,None,200.29456633900008,None,,,,,,,,,,,,,,,,,,,,,,,,,,,,,,,,,,,,,,,,,,,,001,177,2020_Feb_27_1030,spring_faces,3.1.5,60.0685457792749,
condition files/Stage0b_1.xlsx,0b,none,beta,g,"['h', 'g']","['Chess', 'Go']","[-0.15, 0.5]","[0.15, 0.5]",0,1,0,6,6,6,0,1,1,1,,,,,,,,,,,,,,,,,,,,,,,,,,,,,,,,,,,,,,,,,,,,,,,,,,,,,,,,,,,,,,,202.2610748500001,None,202.2610748500001,None,202.2610748500001,None,g,1,0.8246364429996902,203.81134041099995,None,203.81134041099995,None,203.81134041099995,None,204.71152686200003,None,204.71152686200003,None,204.71152686200003,None,204.71152686200003,None,,,,,,,,,,,,,,,,,,,,,,,,,,,,,,,,,,,,,,,,,,,,001,177,2020_Feb_27_1030,spring_faces,3.1.5,60.0685457792749,
condition files/Stage0b_2.xlsx,0b,beta,none,g,"['h', 'g']","['Chess', 'Go']","[-0.15, 0.5]","[0.15, 0.5]",1,0,0,7,7,7,0,0,0,1,,,,,,,,,,,,,,,,,,,,,,,,,,,,,,,,,,,,,,,,,,,,,,,,,,,,,,,,,,,,,,,206.67791134599975,None,206.67791134599975,None,206.67791134599975,None,g,1,1.6075408159995277,208.22844080699997,None,208.22844080699997,None,208.22844080699997,None,209.89392050100014,None,209.89392050100014,None,209.89392050100014,None,209.89392050100014,None,,,,,,,,,,,,,,,,,,,,,,,,,,,,,,,,,,,,,,,,,,,,001,177,2020_Feb_27_1030,spring_faces,3.1.5,60.0685457792749,
condition files/Stage0b_2.xlsx,0b,none,alpha,h,"['h', 'g']","['Chess', 'Go']","[-0.15, 0.5]","[0.15, 0.5]",0,1,0,7,7,7,0,1,1,0,,,,,,,,,,,,,,,,,,,,,,,,,,,,,,,,,,,,,,,,,,,,,,,,,,,,,,,,,,,,,,,211.86025104599958,None,211.86025104599958,None,211.86025104599958,None,h,1,0.791304176000267,213.396713782,None,213.396713782,None,213.396713782,None,214.24981099399974,None,214.24981099399974,None,214.24981099399974,None,214.24981099399974,None,,,,,,,,,,,,,,,,,,,,,,,,,,,,,,,,,,,,,,,,,,,,001,177,2020_Feb_27_1030,spring_faces,3.1.5,60.0685457792749,
condition files/Stage0b_1.xlsx,0b,alpha,none,h,"['h', 'g']","['Chess', 'Go']","[-0.15, 0.5]","[0.15, 0.5]",1,0,0,8,8,8,0,0,0,0,,,,,,,,,,,,,,,,,,,,,,,,,,,,,,,,,,,,,,,,,,,,,,,,,,,,,,,,,,,,,,,216.22823154900016,None,216.22823154900016,None,216.22823154900016,None,h,1,0.9857671139998274,217.77817476699965,None,217.77817476699965,None,217.77817476699965,None,218.8280512249994,None,218.8280512249994,None,218.8280512249994,None,218.8280512249994,None,,,,,,,,,,,,,,,,,,,,,,,,,,,,,,,,,,,,,,,,,,,,001,177,2020_Feb_27_1030,spring_faces,3.1.5,60.0685457792749,
condition files/Stage0b_1.xlsx,0b,none,beta,g,"['h', 'g']","['Chess', 'Go']","[-0.15, 0.5]","[0.15, 0.5]",0,1,0,8,8,8,0,1,1,1,,,,,,,,,,,,,,,,,,,,,,,,,,,,,,,,,,,,,,,,,,,,,,,,,,,,,,,,,,,,,,,220.79398669500006,None,220.79398669500006,None,220.79398669500006,None,g,1,0.33673543900022196,222.33123294399957,None,222.33123294399957,None,222.33123294399957,None,222.72842257799948,None,222.72842257799948,None,222.72842257799948,None,222.72842257799948,None,,,,,,,,,,,,,,,,,,,,,,,,,,,,,,,,,,,,,,,,,,,,001,177,2020_Feb_27_1030,spring_faces,3.1.5,60.0685457792749,
condition files/Stage0b_2.xlsx,0b,beta,none,g,"['h', 'g']","['Chess', 'Go']","[-0.15, 0.5]","[0.15, 0.5]",1,0,0,9,9,9,0,0,0,1,,,,,,,,,,,,,,,,,,,,,,,,,,,,,,,,,,,,,,,,,,,,,,,,,,,,,,,,,,,,,,,224.7116039699995,None,224.7116039699995,None,224.7116039699995,None,g,1,1.0117603440003222,226.24819979699987,None,226.24819979699987,None,226.24819979699987,None,227.31128996999996,None,227.31128996999996,None,227.31128996999996,None,227.31128996999996,None,,,,,,,,,,,,,,,,,,,,,,,,,,,,,,,,,,,,,,,,,,,,001,177,2020_Feb_27_1030,spring_faces,3.1.5,60.0685457792749,
condition files/Stage0b_2.xlsx,0b,none,alpha,h,"['h', 'g']","['Chess', 'Go']","[-0.15, 0.5]","[0.15, 0.5]",0,1,0,9,9,9,0,1,1,0,,,,,,,,,,,,,,,,,,,,,,,,,,,,,,,,,,,,,,,,,,,,,,,,,,,,,,,,,,,,,,,229.27727573599986,None,229.27727573599986,None,229.27727573599986,None,h,1,1.0077138880005805,230.81229276299928,None,230.81229276299928,None,230.81229276299928,None,231.8826996130001,None,231.8826996130001,None,231.8826996130001,None,231.8826996130001,None,,,,,,,,,,,,,,,,,,,,,,,,,,,,,,,,,,,,,,,,,,,,001,177,2020_Feb_27_1030,spring_faces,3.1.5,60.0685457792749,
condition files/Stage0b_1.xlsx,0b,none,beta,g,"['h', 'g']","['Chess', 'Go']","[-0.15, 0.5]","[0.15, 0.5]",0,1,0,10,10,10,0,0,0,1,,,,,,,,,,,,,,,,,,,,,,,,,,,,,,,,,,,,,,,,,,,,,,,,,,,,,,,,,,,,,,,233.86098654999932,None,233.86098654999932,None,233.86098654999932,None,g,1,0.7298151860004509,235.39413300900014,None,235.39413300900014,None,235.39413300900014,None,236.1775679049997,None,236.1775679049997,None,236.1775679049997,None,236.1775679049997,None,,,,,,,,,,,,,,,,,,,,,,,,,,,,,,,,,,,,,,,,,,,,001,177,2020_Feb_27_1030,spring_faces,3.1.5,60.0685457792749,
condition files/Stage0b_1.xlsx,0b,alpha,none,h,"['h', 'g']","['Chess', 'Go']","[-0.15, 0.5]","[0.15, 0.5]",1,0,0,10,10,10,0,1,1,0,,,,,,,,,,,,,,,,,,,,,,,,,,,,,,,,,,,,,,,,,,,,,,,,,,,,,,,,,,,,,,,238.14456782699926,None,238.14456782699926,None,238.14456782699926,None,h,1,0.765118624999559,239.6948170149999,None,239.6948170149999,None,239.6948170149999,None,240.51588228799937,None,240.51588228799937,None,240.51588228799937,None,240.51588228799937,None,,,,,,,,,,,,,,,,,,,,,,,,,,,,,,,,,,,,,,,,,,,,001,177,2020_Feb_27_1030,spring_faces,3.1.5,60.0685457792749,
condition files/Stage0b_2.xlsx,0b,none,alpha,h,"['h', 'g']","['Chess', 'Go']","[-0.15, 0.5]","[0.15, 0.5]",0,1,0,11,11,11,0,0,0,0,,,,,,,,,,,,,,,,,,,,,,,,,,,,,,,,,,,,,,,,,,,,,,,,,,,,,,,,,,,,,,,242.4944994439993,None,242.4944994439993,None,242.4944994439993,None,h,1,0.6677898620000633,244.0321648629997,None,244.0321648629997,None,244.0321648629997,None,244.76090744900011,None,244.76090744900011,None,244.76090744900011,None,244.76090744900011,None,,,,,,,,,,,,,,,,,,,,,,,,,,,,,,,,,,,,,,,,,,,,001,177,2020_Feb_27_1030,spring_faces,3.1.5,60.0685457792749,
condition files/Stage0b_2.xlsx,0b,beta,none,g,"['h', 'g']","['Chess', 'Go']","[-0.15, 0.5]","[0.15, 0.5]",1,0,0,11,11,11,0,1,1,1,,,,,,,,,,,,,,,,,,,,,,,,,,,,,,,,,,,,,,,,,,,,,,,,,,,,,,,,,,,,,,,246.72750034799992,None,246.72750034799992,None,246.72750034799992,None,g,1,0.5337108080002508,248.27819065399945,None,248.27819065399945,None,248.27819065399945,None,248.87801734200002,None,248.87801734200002,None,248.87801734200002,None,248.87801734200002,None,,,,,,,,,,,,,,,,,,,,,,,,,,,,,,,,,,,,,,,,,,,,001,177,2020_Feb_27_1030,spring_faces,3.1.5,60.0685457792749,
condition files/Stage0c_1.xlsx,0c,beta,theta,g,"['h', 'g']","['Chess', 'Go']","[-0.15, 0.5]","[0.15, 0.5]",1,1,0,12,12,12,0,0,0,2,,,,,,,,,,,,,,,,,,,,,,,,,,,,,,,,,,,,,,,,,,,,,,,,,,,,,,,,,,,,,,,250.86140973199963,None,250.86140973199963,None,250.86140973199963,None,g,1,2.513411742000244,252.39464204199976,None,252.39464204199976,None,252.39464204199976,None,254.9613660999994,None,254.9613660999994,None,254.9613660999994,None,254.9613660999994,None,,,,,,,,,,,,,,,,,,,,,,,,,,,,,,,,,,,,,,,,,,,,001,177,2020_Feb_27_1030,spring_faces,3.1.5,60.0685457792749,
condition files/Stage0c_1.xlsx,0c,theta,alpha,h,"['h', 'g']","['Chess', 'Go']","[-0.15, 0.5]","[0.15, 0.5]",1,1,0,12,12,12,0,1,1,0,,,,,,,,,,,,,,,,,,,,,,,,,,,,,,,,,,,,,,,,,,,,,,,,,,,,,,,,,,,,,,,256.927048687,None,256.927048687,None,256.927048687,None,g,0,1.1827067189997251,258.4612314440001,None,258.4612314440001,None,258.4612314440001,None,259.6943665959998,None,259.6943665959998,None,259.6943665959998,None,259.6943665959998,None,,,,,,,,,,,,,,,,,,,,,,,,,,,,,,,,,,,,,,,,,,,,001,177,2020_Feb_27_1030,spring_faces,3.1.5,60.0685457792749,
condition files/Stage0c_1.xlsx,0c,phi,beta,g,"['h', 'g']","['Chess', 'Go']","[-0.15, 0.5]","[0.15, 0.5]",1,1,0,12,12,12,0,2,2,3,,,,,,,,,,,,,,,,,,,,,,,,,,,,,,,,,,,,,,,,,,,,,,,,,,,,,,,,,,,,,,,261.66061247200014,None,261.66061247200014,None,261.66061247200014,None,g,1,1.4570966489991406,263.19489172700014,None,263.19489172700014,None,263.19489172700014,None,264.7113806520001,None,264.7113806520001,None,264.7113806520001,None,264.7113806520001,None,,,,,,,,,,,,,,,,,,,,,,,,,,,,,,,,,,,,,,,,,,,,001,177,2020_Feb_27_1030,spring_faces,3.1.5,60.0685457792749,
condition files/Stage0c_1.xlsx,0c,alpha,phi,h,"['h', 'g']","['Chess', 'Go']","[-0.15, 0.5]","[0.15, 0.5]",1,1,0,12,12,12,0,3,3,1,,,,,,,,,,,,,,,,,,,,,,,,,,,,,,,,,,,,,,,,,,,,,,,,,,,,,,,,,,,,,,,266.6778430759996,None,266.6778430759996,None,266.6778430759996,None,h,1,0.7607206239999869,268.2112210259993,None,268.2112210259993,None,268.2112210259993,None,269.0279997909993,None,269.0279997909993,None,269.0279997909993,None,269.0279997909993,None,,,,,,,,,,,,,,,,,,,,,,,,,,,,,,,,,,,,,,,,,,,,001,177,2020_Feb_27_1030,spring_faces,3.1.5,60.0685457792749,
condition files/Stage0c_2.xlsx,0c,beta,phi,g,"['h', 'g']","['Chess', 'Go']","[-0.15, 0.5]","[0.15, 0.5]",1,1,0,13,13,13,0,0,0,3,,,,,,,,,,,,,,,,,,,,,,,,,,,,,,,,,,,,,,,,,,,,,,,,,,,,,,,,,,,,,,,271.01147545799995,None,271.01147545799995,None,271.01147545799995,None,g,1,0.8273356800000329,272.5446027499993,None,272.5446027499993,None,272.5446027499993,None,273.42802679599936,None,273.42802679599936,None,273.42802679599936,None,273.42802679599936,None,,,,,,,,,,,,,,,,,,,,,,,,,,,,,,,,,,,,,,,,,,,,001,177,2020_Feb_27_1030,spring_faces,3.1.5,60.0685457792749,
condition files/Stage0c_2.xlsx,0c,theta,beta,g,"['h', 'g']","['Chess', 'Go']","[-0.15, 0.5]","[0.15, 0.5]",1,1,0,13,13,13,0,1,1,2,,,,,,,,,,,,,,,,,,,,,,,,,,,,,,,,,,,,,,,,,,,,,,,,,,,,,,,,,,,,,,,275.39427962899936,None,275.39427962899936,None,275.39427962899936,None,g,1,1.2759160799996607,276.9280563829998,None,276.9280563829998,None,276.9280563829998,None,278.26113725399955,None,278.26113725399955,None,278.26113725399955,None,278.26113725399955,None,,,,,,,,,,,,,,,,,,,,,,,,,,,,,,,,,,,,,,,,,,,,001,177,2020_Feb_27_1030,spring_faces,3.1.5,60.0685457792749,
condition files/Stage0c_2.xlsx,0c,phi,alpha,h,"['h', 'g']","['Chess', 'Go']","[-0.15, 0.5]","[0.15, 0.5]",1,1,0,13,13,13,0,2,2,1,,,,,,,,,,,,,,,,,,,,,,,,,,,,,,,,,,,,,,,,,,,,,,,,,,,,,,,,,,,,,,,280.2273878369997,None,280.2273878369997,None,280.2273878369997,None,h,1,0.5866061940005238,281.7613285419993,None,281.7613285419993,None,281.7613285419993,None,282.4107767209998,None,282.4107767209998,None,282.4107767209998,None,282.4107767209998,None,,,,,,,,,,,,,,,,,,,,,,,,,,,,,,,,,,,,,,,,,,,,001,177,2020_Feb_27_1030,spring_faces,3.1.5,60.0685457792749,
condition files/Stage0c_2.xlsx,0c,alpha,theta,h,"['h', 'g']","['Chess', 'Go']","[-0.15, 0.5]","[0.15, 0.5]",1,1,0,13,13,13,0,3,3,0,,,,,,,,,,,,,,,,,,,,,,,,,,,,,,,,,,,,,,,,,,,,,,,,,,,,,,,,,,,,,,,284.37767646299926,None,284.37767646299926,None,284.37767646299926,None,g,0,0.6927814959999523,285.9111699489995,None,285.9111699489995,None,285.9111699489995,None,286.64581236199956,None,286.64581236199956,None,286.64581236199956,None,286.64581236199956,None,,,,,,,,,,,,,,,,,,,,,,,,,,,,,,,,,,,,,,,,,,,,001,177,2020_Feb_27_1030,spring_faces,3.1.5,60.0685457792749,
condition files/Stage0c_1.xlsx,0c,beta,theta,g,"['h', 'g']","['Chess', 'Go']","[-0.15, 0.5]","[0.15, 0.5]",1,1,0,14,14,14,0,0,0,2,,,,,,,,,,,,,,,,,,,,,,,,,,,,,,,,,,,,,,,,,,,,,,,,,,,,,,,,,,,,,,,288.64432621299966,None,288.64432621299966,None,288.64432621299966,None,g,1,1.1304590740001004,290.17757869699926,None,290.17757869699926,None,290.17757869699926,None,291.36154619399986,None,291.36154619399986,None,291.36154619399986,None,291.36154619399986,None,,,,,,,,,,,,,,,,,,,,,,,,,,,,,,,,,,,,,,,,,,,,001,177,2020_Feb_27_1030,spring_faces,3.1.5,60.0685457792749,
condition files/Stage0c_1.xlsx,0c,theta,alpha,h,"['h', 'g']","['Chess', 'Go']","[-0.15, 0.5]","[0.15, 0.5]",1,1,0,14,14,14,0,1,1,0,,,,,,,,,,,,,,,,,,,,,,,,,,,,,,,,,,,,,,,,,,,,,,,,,,,,,,,,,,,,,,,293.3277154419993,None,293.3277154419993,None,293.3277154419993,None,h,1,0.7666905689993655,294.8612318739997,None,294.8612318739997,None,294.8612318739997,None,295.67787118199976,None,295.67787118199976,None,295.67787118199976,None,295.67787118199976,None,,,,,,,,,,,,,,,,,,,,,,,,,,,,,,,,,,,,,,,,,,,,001,177,2020_Feb_27_1030,spring_faces,3.1.5,60.0685457792749,
condition files/Stage0c_1.xlsx,0c,alpha,phi,h,"['h', 'g']","['Chess', 'Go']","[-0.15, 0.5]","[0.15, 0.5]",1,1,0,14,14,14,0,2,2,1,,,,,,,,,,,,,,,,,,,,,,,,,,,,,,,,,,,,,,,,,,,,,,,,,,,,,,,,,,,,,,,297.64401799499956,None,297.64401799499956,None,297.64401799499956,None,h,1,1.2499497349999729,299.17798820499956,None,299.17798820499956,None,299.17798820499956,None,300.46337962300004,None,300.46337962300004,None,300.46337962300004,None,300.46337962300004,None,,,,,,,,,,,,,,,,,,,,,,,,,,,,,,,,,,,,,,,,,,,,001,177,2020_Feb_27_1030,spring_faces,3.1.5,60.0685457792749,
condition files/Stage0c_1.xlsx,0c,phi,beta,g,"['h', 'g']","['Chess', 'Go']","[-0.15, 0.5]","[0.15, 0.5]",1,1,0,14,14,14,0,3,3,3,,,,,,,,,,,,,,,,,,,,,,,,,,,,,,,,,,,,,,,,,,,,,,,,,,,,,,,,,,,,,,,302.44473945699974,None,302.44473945699974,None,302.44473945699974,None,g,1,0.850093537000248,303.9778283309997,None,303.9778283309997,None,303.9778283309997,None,304.8779916859994,None,304.8779916859994,None,304.8779916859994,None,304.8779916859994,None,,,,,,,,,,,,,,,,,,,,,,,,,,,,,,,,,,,,,,,,,,,,001,177,2020_Feb_27_1030,spring_faces,3.1.5,60.0685457792749,
condition files/Stage0c_2.xlsx,0c,alpha,theta,h,"['h', 'g']","['Chess', 'Go']","[-0.15, 0.5]","[0.15, 0.5]",1,1,0,15,15,15,0,0,0,0,,,,,,,,,,,,,,,,,,,,,,,,,,,,,,,,,,,,,,,,,,,,,,,,,,,,,,,,,,,,,,,306.86136169699967,None,306.86136169699967,None,306.86136169699967,None,h,1,1.2013596790002339,308.3945925170001,None,308.3945925170001,None,308.3945925170001,None,309.6610860869996,None,309.6610860869996,None,309.6610860869996,None,309.6610860869996,None,,,,,,,,,,,,,,,,,,,,,,,,,,,,,,,,,,,,,,,,,,,,001,177,2020_Feb_27_1030,spring_faces,3.1.5,60.0685457792749,
condition files/Stage0c_2.xlsx,0c,phi,alpha,h,"['h', 'g']","['Chess', 'Go']","[-0.15, 0.5]","[0.15, 0.5]",1,1,0,15,15,15,0,1,1,1,,,,,,,,,,,,,,,,,,,,,,,,,,,,,,,,,,,,,,,,,,,,,,,,,,,,,,,,,,,,,,,311.62769776499954,None,311.62769776499954,None,311.62769776499954,None,h,1,0.9625515500001711,313.16138502600006,None,313.16138502600006,None,313.16138502600006,None,314.16268558499996,None,314.16268558499996,None,314.16268558499996,None,314.16268558499996,None,,,,,,,,,,,,,,,,,,,,,,,,,,,,,,,,,,,,,,,,,,,,001,177,2020_Feb_27_1030,spring_faces,3.1.5,60.0685457792749,
condition files/Stage0c_2.xlsx,0c,beta,phi,g,"['h', 'g']","['Chess', 'Go']","[-0.15, 0.5]","[0.15, 0.5]",1,1,0,15,15,15,0,2,2,3,,,,,,,,,,,,,,,,,,,,,,,,,,,,,,,,,,,,,,,,,,,,,,,,,,,,,,,,,,,,,,,316.1443723249995,None,316.1443723249995,None,316.1443723249995,None,g,1,1.054609566000181,317.6773351269994,None,317.6773351269994,None,317.6773351269994,None,318.7940401569995,None,318.7940401569995,None,318.7940401569995,None,318.7940401569995,None,,,,,,,,,,,,,,,,,,,,,,,,,,,,,,,,,,,,,,,,,,,,001,177,2020_Feb_27_1030,spring_faces,3.1.5,60.0685457792749,
condition files/Stage0c_2.xlsx,0c,theta,beta,g,"['h', 'g']","['Chess', 'Go']","[-0.15, 0.5]","[0.15, 0.5]",1,1,0,15,15,15,0,3,3,2,,,,,,,,,,,,,,,,,,,,,,,,,,,,,,,,,,,,,,,,,,,,,,,,,,,,,,,,,,,,,,,320.76113966999947,None,320.76113966999947,None,320.76113966999947,None,g,1,1.141863924000063,322.2941324889998,None,322.2941324889998,None,322.2941324889998,None,323.47985728799995,None,323.47985728799995,None,323.47985728799995,None,323.47985728799995,None,,,,,,,,,,,,,,,,,,,,,,,,,,,,,,,,,,,,,,,,,,,,001,177,2020_Feb_27_1030,spring_faces,3.1.5,60.0685457792749,
condition files/Stage0c_1.xlsx,0c,alpha,phi,h,"['h', 'g']","['Chess', 'Go']","[-0.15, 0.5]","[0.15, 0.5]",1,1,0,16,16,16,0,0,0,1,,,,,,,,,,,,,,,,,,,,,,,,,,,,,,,,,,,,,,,,,,,,,,,,,,,,,,,,,,,,,,,325.47741063299964,None,325.47741063299964,None,325.47741063299964,None,h,1,0.6646937710002021,327.01124949899986,None,327.01124949899986,None,327.01124949899986,None,327.72800625699983,None,327.72800625699983,None,327.72800625699983,None,327.72800625699983,None,,,,,,,,,,,,,,,,,,,,,,,,,,,,,,,,,,,,,,,,,,,,001,177,2020_Feb_27_1030,spring_faces,3.1.5,60.0685457792749,
condition files/Stage0c_1.xlsx,0c,phi,beta,g,"['h', 'g']","['Chess', 'Go']","[-0.15, 0.5]","[0.15, 0.5]",1,1,0,16,16,16,0,1,1,3,,,,,,,,,,,,,,,,,,,,,,,,,,,,,,,,,,,,,,,,,,,,,,,,,,,,,,,,,,,,,,,329.6936217579996,None,329.6936217579996,None,329.6936217579996,None,g,1,0.8480435650008076,331.227893237,None,331.227893237,None,331.227893237,None,332.12798048700006,None,332.12798048700006,None,332.12798048700006,None,332.12798048700006,None,,,,,,,,,,,,,,,,,,,,,,,,,,,,,,,,,,,,,,,,,,,,001,177,2020_Feb_27_1030,spring_faces,3.1.5,60.0685457792749,
condition files/Stage0c_1.xlsx,0c,beta,theta,g,"['h', 'g']","['Chess', 'Go']","[-0.15, 0.5]","[0.15, 0.5]",1,1,0,16,16,16,0,2,2,2,,,,,,,,,,,,,,,,,,,,,,,,,,,,,,,,,,,,,,,,,,,,,,,,,,,,,,,,,,,,,,,334.09394015,None,334.09394015,None,334.09394015,None,g,1,0.8800243569994564,335.62802432599983,None,335.62802432599983,None,335.62802432599983,None,336.56181006299994,None,336.56181006299994,None,336.56181006299994,None,336.56181006299994,None,,,,,,,,,,,,,,,,,,,,,,,,,,,,,,,,,,,,,,,,,,,,001,177,2020_Feb_27_1030,spring_faces,3.1.5,60.0685457792749,
condition files/Stage0c_1.xlsx,0c,theta,alpha,h,"['h', 'g']","['Chess', 'Go']","[-0.15, 0.5]","[0.15, 0.5]",1,1,0,16,16,16,0,3,3,0,,,,,,,,,,,,,,,,,,,,,,,,,,,,,,,,,,,,,,,,,,,,,,,,,,,,,,,,,,,,,,,338.52778173599927,None,338.52778173599927,None,338.52778173599927,None,h,1,1.69461142199998,340.0613088679993,None,340.0613088679993,None,340.0613088679993,None,341.81128010999964,None,341.81128010999964,None,341.81128010999964,None,341.81128010999964,None,,,,,,,,,,,,,,,,,,,,,,,,,,,,,,,,,,,,,,,,,,,,001,177,2020_Feb_27_1030,spring_faces,3.1.5,60.0685457792749,
condition files/Stage0c_2.xlsx,0c,alpha,theta,h,"['h', 'g']","['Chess', 'Go']","[-0.15, 0.5]","[0.15, 0.5]",1,1,0,17,17,17,0,0,0,0,,,,,,,,,,,,,,,,,,,,,,,,,,,,,,,,,,,,,,,,,,,,,,,,,,,,,,,,,,,,,,,343.7945908490001,None,343.7945908490001,None,343.7945908490001,None,h,1,3.916385098000319,345.32756180900014,None,345.32756180900014,None,345.32756180900014,None,349.2808605379996,None,349.2808605379996,None,349.2808605379996,None,349.2808605379996,None,,,,,,,,,,,,,,,,,,,,,,,,,,,,,,,,,,,,,,,,,,,,001,177,2020_Feb_27_1030,spring_faces,3.1.5,60.0685457792749,
condition files/Stage0c_2.xlsx,0c,beta,phi,g,"['h', 'g']","['Chess', 'Go']","[-0.15, 0.5]","[0.15, 0.5]",1,1,0,17,17,17,0,1,1,3,,,,,,,,,,,,,,,,,,,,,,,,,,,,,,,,,,,,,,,,,,,,,,,,,,,,,,,,,,,,,,,351.2609844949993,None,351.2609844949993,None,351.2609844949993,None,g,1,1.1702617650007596,352.7936873969993,None,352.7936873969993,None,352.7936873969993,None,354.02767488099926,None,354.02767488099926,None,354.02767488099926,None,354.02767488099926,None,,,,,,,,,,,,,,,,,,,,,,,,,,,,,,,,,,,,,,,,,,,,001,177,2020_Feb_27_1030,spring_faces,3.1.5,60.0685457792749,
condition files/Stage0c_2.xlsx,0c,theta,beta,g,"['h', 'g']","['Chess', 'Go']","[-0.15, 0.5]","[0.15, 0.5]",1,1,0,17,17,17,0,2,2,2,,,,,,,,,,,,,,,,,,,,,,,,,,,,,,,,,,,,,,,,,,,,,,,,,,,,,,,,,,,,,,,355.9943537319996,None,355.9943537319996,None,355.9943537319996,None,g,1,1.1087337299995852,357.5272644249999,None,357.5272644249999,None,357.5272644249999,None,358.679349987,None,358.679349987,None,358.679349987,None,358.679349987,None,,,,,,,,,,,,,,,,,,,,,,,,,,,,,,,,,,,,,,,,,,,,001,177,2020_Feb_27_1030,spring_faces,3.1.5,60.0685457792749,
condition files/Stage0c_2.xlsx,0c,phi,alpha,h,"['h', 'g']","['Chess', 'Go']","[-0.15, 0.5]","[0.15, 0.5]",1,1,0,17,17,17,0,3,3,1,,,,,,,,,,,,,,,,,,,,,,,,,,,,,,,,,,,,,,,,,,,,,,,,,,,,,,,,,,,,,,,360.6607012889999,None,360.6607012889999,None,360.6607012889999,None,h,1,0.8256309510006759,362.19436709099955,None,362.19436709099955,None,362.19436709099955,None,363.0778529720001,None,363.0778529720001,None,363.0778529720001,None,363.0778529720001,None,,,,,,,,,,,,,,,,,,,,,,,,,,,,,,,,,,,,,,,,,,,,001,177,2020_Feb_27_1030,spring_faces,3.1.5,60.0685457792749,
,,,,,,,,,,,,,,,,,,,,,,,,,,,,,,,,,,,,,,,,,,,,,,,,,,,,,,,,,,,,,,,,,,,,,,,,,,,,,,,,,,,,,,,,,,,,,,,,,,,,,,,,365.06129709499965,None,space,1.6147594939993724,370.0611910259995,None,,,,,,,,,,,,,,,,,,,,,,,,,,,,,,,,,,,,,,001,177,2020_Feb_27_1030,spring_faces,3.1.5,60.0685457792749,
condition files/Stage1_1.xlsx,,T4,B3,m,"['c', 'm']","['Clue', 'Monopoly']","[-0.15, 0.5]","[0.15, 0.5]",1,1,,,,,,,,,0,0,0,0,0,0,0,6,,,,,,,,,,,,,,,,,,,,,,,,,,,,,,,,,,,,,,,,,,,,,,,,,,,,,,,371.7280752689994,None,371.7280752689994,None,371.7280752689994,None,c,0,2.26798449800026,373.3279172269995,None,373.3279172269995,None,373.3279172269995,None,375.678039333,None,375.678039333,None,375.678039333,None,375.678039333,None,,,,,,,370.0611910259995,None,,,,,,,,,,,,,,,,,,,,,,,,,,,,,,,,,,,,001,177,2020_Feb_27_1030,spring_faces,3.1.5,60.0685457792749,
condition files/Stage1_1.xlsx,,B3,T3,c,"['c', 'm']","['Clue', 'Monopoly']","[-0.15, 0.5]","[0.15, 0.5]",1,1,,,,,,,,,0,0,0,0,0,1,1,4,,,,,,,,,,,,,,,,,,,,,,,,,,,,,,,,,,,,,,,,,,,,,,,,,,,,,,,377.627180771,None,377.627180771,None,377.627180771,None,c,1,0.9126446039999792,379.21128438100004,None,379.21128438100004,None,379.21128438100004,None,380.1784418070001,None,380.1784418070001,None,380.1784418070001,None,380.1784418070001,None,,,,,,,,,,,,,,,,,,,,,,,,,,,,,,,,,,,,,,,,,,,,001,177,2020_Feb_27_1030,spring_faces,3.1.5,60.0685457792749,
condition files/Stage1_1.xlsx,,T2,B2,m,"['c', 'm']","['Clue', 'Monopoly']","[-0.15, 0.5]","[0.15, 0.5]",1,1,,,,,,,,,0,0,0,0,0,2,2,3,,,,,,,,,,,,,,,,,,,,,,,,,,,,,,,,,,,,,,,,,,,,,,,,,,,,,,,382.14447745300004,None,382.14447745300004,None,382.14447745300004,None,m,1,0.9567625010004122,383.7112326689994,None,383.7112326689994,None,383.7112326689994,None,384.74466189299983,None,384.74466189299983,None,384.74466189299983,None,384.74466189299983,None,,,,,,,,,,,,,,,,,,,,,,,,,,,,,,,,,,,,,,,,,,,,001,177,2020_Feb_27_1030,spring_faces,3.1.5,60.0685457792749,
condition files/Stage1_1.xlsx,,B4,T4,m,"['c', 'm']","['Clue', 'Monopoly']","[-0.15, 0.5]","[0.15, 0.5]",1,1,,,,,,,,,0,0,0,0,0,3,3,7,,,,,,,,,,,,,,,,,,,,,,,,,,,,,,,,,,,,,,,,,,,,,,,,,,,,,,,386.6940101029995,None,386.6940101029995,None,386.6940101029995,None,c,0,0.823414791999312,388.2285915599996,None,388.2285915599996,None,388.2285915599996,None,389.1112160120001,None,389.1112160120001,None,389.1112160120001,None,389.1112160120001,None,,,,,,,,,,,,,,,,,,,,,,,,,,,,,,,,,,,,,,,,,,,,001,177,2020_Feb_27_1030,spring_faces,3.1.5,60.0685457792749,
condition files/Stage1_1.xlsx,,T1,B1,c,"['c', 'm']","['Clue', 'Monopoly']","[-0.15, 0.5]","[0.15, 0.5]",1,1,,,,,,,,,0,0,0,0,0,4,4,0,,,,,,,,,,,,,,,,,,,,,,,,,,,,,,,,,,,,,,,,,,,,,,,,,,,,,,,391.0773343339997,None,391.0773343339997,None,391.0773343339997,None,c,1,1.6706976569994367,392.61330863500007,None,392.61330863500007,None,392.61330863500007,None,394.34642025799985,None,394.34642025799985,None,394.34642025799985,None,394.34642025799985,None,,,,,,,,,,,,,,,,,,,,,,,,,,,,,,,,,,,,,,,,,,,,001,177,2020_Feb_27_1030,spring_faces,3.1.5,60.0685457792749,
condition files/Stage1_1.xlsx,,B2,T1,m,"['c', 'm']","['Clue', 'Monopoly']","[-0.15, 0.5]","[0.15, 0.5]",1,1,,,,,,,,,0,0,0,0,0,5,5,2,,,,,,,,,,,,,,,,,,,,,,,,,,,,,,,,,,,,,,,,,,,,,,,,,,,,,,,396.31104464300006,None,396.31104464300006,None,396.31104464300006,None,m,1,0.9656125100000281,397.8462830409999,None,397.8462830409999,None,397.8462830409999,None,398.89467954299926,None,398.89467954299926,None,398.89467954299926,None,398.89467954299926,None,,,,,,,,,,,,,,,,,,,,,,,,,,,,,,,,,,,,,,,,,,,,001,177,2020_Feb_27_1030,spring_faces,3.1.5,60.0685457792749,
condition files/Stage1_1.xlsx,,T3,B4,c,"['c', 'm']","['Clue', 'Monopoly']","[-0.15, 0.5]","[0.15, 0.5]",1,1,,,,,,,,,0,0,0,0,0,6,6,5,,,,,,,,,,,,,,,,,,,,,,,,,,,,,,,,,,,,,,,,,,,,,,,,,,,,,,,400.84377826499986,None,400.84377826499986,None,400.84377826499986,None,c,1,1.042087031999472,402.3779141549994,None,402.3779141549994,None,402.3779141549994,None,403.4769635499997,None,403.4769635499997,None,403.4769635499997,None,403.4769635499997,None,,,,,,,,,,,,,,,,,,,,,,,,,,,,,,,,,,,,,,,,,,,,001,177,2020_Feb_27_1030,spring_faces,3.1.5,60.0685457792749,
condition files/Stage1_1.xlsx,,B1,T2,c,"['c', 'm']","['Clue', 'Monopoly']","[-0.15, 0.5]","[0.15, 0.5]",1,1,,,,,,,,,0,0,0,0,0,7,7,1,,,,,,,,,,,,,,,,,,,,,,,,,,,,,,,,,,,,,,,,,,,,,,,,,,,,,,,405.44473293099963,None,405.44473293099963,None,405.44473293099963,None,m,0,1.0323175000003175,406.9796053350001,None,406.9796053350001,None,406.9796053350001,None,408.07797143300013,None,408.07797143300013,None,408.07797143300013,None,408.07797143300013,None,,,,,,,,,,,,,,,,,,,,,,,,,,,,,,,,,,,,,,,,,,,,001,177,2020_Feb_27_1030,spring_faces,3.1.5,60.0685457792749,
condition files/Stage1_2.xlsx,,T2,B1,c,"['c', 'm']","['Clue', 'Monopoly']","[-0.15, 0.5]","[0.15, 0.5]",1,1,,,,,,,,,0,1,1,1,0,0,0,1,,,,,,,,,,,,,,,,,,,,,,,,,,,,,,,,,,,,,,,,,,,,,,,,,,,,,,,410.0612786009997,None,410.0612786009997,None,410.0612786009997,None,c,1,1.968571086999873,411.611378949,None,411.611378949,None,411.611378949,None,413.6444769109994,None,413.6444769109994,None,413.6444769109994,None,413.6444769109994,None,,,,,,,,,,,,,,,,,,,,,,,,,,,,,,,,,,,,,,,,,,,,001,177,2020_Feb_27_1030,spring_faces,3.1.5,60.0685457792749,
condition files/Stage1_2.xlsx,,T3,B3,c,"['c', 'm']","['Clue', 'Monopoly']","[-0.15, 0.5]","[0.15, 0.5]",1,1,,,,,,,,,0,1,1,1,0,1,1,4,,,,,,,,,,,,,,,,,,,,,,,,,,,,,,,,,,,,,,,,,,,,,,,,,,,,,,,415.61100163599986,None,415.61100163599986,None,415.61100163599986,None,m,0,1.026499158999286,417.16149412899995,None,417.16149412899995,None,417.16149412899995,None,418.2441705279998,None,418.2441705279998,None,418.2441705279998,None,418.2441705279998,None,,,,,,,,,,,,,,,,,,,,,,,,,,,,,,,,,,,,,,,,,,,,001,177,2020_Feb_27_1030,spring_faces,3.1.5,60.0685457792749,
condition files/Stage1_2.xlsx,,T1,B2,m,"['c', 'm']","['Clue', 'Monopoly']","[-0.15, 0.5]","[0.15, 0.5]",1,1,,,,,,,,,0,1,1,1,0,2,2,2,,,,,,,,,,,,,,,,,,,,,,,,,,,,,,,,,,,,,,,,,,,,,,,,,,,,,,,420.2110023790001,None,420.2110023790001,None,420.2110023790001,None,m,1,1.098721497999577,421.7612149339993,None,421.7612149339993,None,421.7612149339993,None,422.9283082949996,None,422.9283082949996,None,422.9283082949996,None,422.9283082949996,None,,,,,,,,,,,,,,,,,,,,,,,,,,,,,,,,,,,,,,,,,,,,001,177,2020_Feb_27_1030,spring_faces,3.1.5,60.0685457792749,
condition files/Stage1_2.xlsx,,B3,T4,m,"['c', 'm']","['Clue', 'Monopoly']","[-0.15, 0.5]","[0.15, 0.5]",1,1,,,,,,,,,0,1,1,1,0,3,3,6,,,,,,,,,,,,,,,,,,,,,,,,,,,,,,,,,,,,,,,,,,,,,,,,,,,,,,,424.8777104189994,None,424.8777104189994,None,424.8777104189994,None,c,0,0.47971270400012145,426.4282540139993,None,426.4282540139993,None,426.4282540139993,None,426.9615099369994,None,426.9615099369994,None,426.9615099369994,None,426.9615099369994,None,,,,,,,,,,,,,,,,,,,,,,,,,,,,,,,,,,,,,,,,,,,,001,177,2020_Feb_27_1030,spring_faces,3.1.5,60.0685457792749,
condition files/Stage1_2.xlsx,,T4,B4,m,"['c', 'm']","['Clue', 'Monopoly']","[-0.15, 0.5]","[0.15, 0.5]",1,1,,,,,,,,,0,1,1,1,0,4,4,7,,,,,,,,,,,,,,,,,,,,,,,,,,,,,,,,,,,,,,,,,,,,,,,,,,,,,,,428.9278452899998,None,428.9278452899998,None,428.9278452899998,None,c,0,2.765145530999689,430.4627474149993,None,430.4627474149993,None,430.4627474149993,None,433.29465101000005,None,433.29465101000005,None,433.29465101000005,None,433.29465101000005,None,,,,,,,,,,,,,,,,,,,,,,,,,,,,,,,,,,,,,,,,,,,,001,177,2020_Feb_27_1030,spring_faces,3.1.5,60.0685457792749,
condition files/Stage1_2.xlsx,,B1,T1,c,"['c', 'm']","['Clue', 'Monopoly']","[-0.15, 0.5]","[0.15, 0.5]",1,1,,,,,,,,,0,1,1,1,0,5,5,0,,,,,,,,,,,,,,,,,,,,,,,,,,,,,,,,,,,,,,,,,,,,,,,,,,,,,,,435.2610138299997,None,435.2610138299997,None,435.2610138299997,None,m,0,1.0566248060004,436.79539144999944,None,436.79539144999944,None,436.79539144999944,None,437.9110972339995,None,437.9110972339995,None,437.9110972339995,None,437.9110972339995,None,,,,,,,,,,,,,,,,,,,,,,,,,,,,,,,,,,,,,,,,,,,,001,177,2020_Feb_27_1030,spring_faces,3.1.5,60.0685457792749,
condition files/Stage1_2.xlsx,,B4,T3,c,"['c', 'm']","['Clue', 'Monopoly']","[-0.15, 0.5]","[0.15, 0.5]",1,1,,,,,,,,,0,1,1,1,0,6,6,5,,,,,,,,,,,,,,,,,,,,,,,,,,,,,,,,,,,,,,,,,,,,,,,,,,,,,,,439.8778154699994,None,439.8778154699994,None,439.8778154699994,None,c,1,1.752988686000208,441.4109744509997,None,441.4109744509997,None,441.4109744509997,None,443.2280287379999,None,443.2280287379999,None,443.2280287379999,None,443.2280287379999,None,,,,,,,,,,,,,,,,,,,,,,,,,,,,,,,,,,,,,,,,,,,,001,177,2020_Feb_27_1030,spring_faces,3.1.5,60.0685457792749,
condition files/Stage1_2.xlsx,,B2,T2,m,"['c', 'm']","['Clue', 'Monopoly']","[-0.15, 0.5]","[0.15, 0.5]",1,1,,,,,,,,,0,1,1,1,0,7,7,3,,,,,,,,,,,,,,,,,,,,,,,,,,,,,,,,,,,,,,,,,,,,,,,,,,,,,,,445.1940070069995,None,445.1940070069995,None,445.1940070069995,None,c,0,2.196151811999698,446.727777395,None,446.727777395,None,446.727777395,None,448.97879795100016,None,448.97879795100016,None,448.97879795100016,None,448.97879795100016,None,,,,,,,,,,,,,,,,,,,,,,,,,,,,,,,,,,,,,,,,,,,,001,177,2020_Feb_27_1030,spring_faces,3.1.5,60.0685457792749,
condition files/Stage1_1.xlsx,,T4,B3,m,"['c', 'm']","['Clue', 'Monopoly']","[-0.15, 0.5]","[0.15, 0.5]",1,1,,,,,,,,,0,2,2,2,0,0,0,6,,,,,,,,,,,,,,,,,,,,,,,,,,,,,,,,,,,,,,,,,,,,,,,,,,,,,,,450.9611303219999,None,450.9611303219999,None,450.9611303219999,None,c,0,2.075586910000311,452.4963817449998,None,452.4963817449998,None,452.4963817449998,None,454.62723596199976,None,454.62723596199976,None,454.62723596199976,None,454.62723596199976,None,,,,,,,,,,,,,,,,,,,,,,,,,,,,,,,,,,,,,,,,,,,,001,177,2020_Feb_27_1030,spring_faces,3.1.5,60.0685457792749,
condition files/Stage1_1.xlsx,,B4,T4,m,"['c', 'm']","['Clue', 'Monopoly']","[-0.15, 0.5]","[0.15, 0.5]",1,1,,,,,,,,,0,2,2,2,0,1,1,7,,,,,,,,,,,,,,,,,,,,,,,,,,,,,,,,,,,,,,,,,,,,,,,,,,,,,,,456.5943397459996,None,456.5943397459996,None,456.5943397459996,None,m,1,1.6606117940000331,458.127390826,None,458.127390826,None,458.127390826,None,459.844217631,None,459.844217631,None,459.844217631,None,459.844217631,None,,,,,,,,,,,,,,,,,,,,,,,,,,,,,,,,,,,,,,,,,,,,001,177,2020_Feb_27_1030,spring_faces,3.1.5,60.0685457792749,
condition files/Stage1_1.xlsx,,B3,T3,c,"['c', 'm']","['Clue', 'Monopoly']","[-0.15, 0.5]","[0.15, 0.5]",1,1,,,,,,,,,0,2,2,2,0,2,2,4,,,,,,,,,,,,,,,,,,,,,,,,,,,,,,,,,,,,,,,,,,,,,,,,,,,,,,,461.8109551130001,None,461.8109551130001,None,461.8109551130001,None,c,1,1.2278701490004096,463.34413652199964,None,463.34413652199964,None,463.34413652199964,None,464.62749353099935,None,464.62749353099935,None,464.62749353099935,None,464.62749353099935,None,,,,,,,,,,,,,,,,,,,,,,,,,,,,,,,,,,,,,,,,,,,,001,177,2020_Feb_27_1030,spring_faces,3.1.5,60.0685457792749,
condition files/Stage1_1.xlsx,,B1,T2,c,"['c', 'm']","['Clue', 'Monopoly']","[-0.15, 0.5]","[0.15, 0.5]",1,1,,,,,,,,,0,2,2,2,0,3,3,1,,,,,,,,,,,,,,,,,,,,,,,,,,,,,,,,,,,,,,,,,,,,,,,,,,,,,,,466.59437936299946,None,466.59437936299946,None,466.59437936299946,None,c,1,5.324346342000354,468.12765872699947,None,468.12765872699947,None,468.12765872699947,None,473.51105657300013,None,473.51105657300013,None,473.51105657300013,None,473.51105657300013,None,,,,,,,,,,,,,,,,,,,,,,,,,,,,,,,,,,,,,,,,,,,,001,177,2020_Feb_27_1030,spring_faces,3.1.5,60.0685457792749,
condition files/Stage1_1.xlsx,,T3,B4,c,"['c', 'm']","['Clue', 'Monopoly']","[-0.15, 0.5]","[0.15, 0.5]",1,1,,,,,,,,,0,2,2,2,0,4,4,5,,,,,,,,,,,,,,,,,,,,,,,,,,,,,,,,,,,,,,,,,,,,,,,,,,,,,,,475.4776941760001,None,475.4776941760001,None,475.4776941760001,None,c,1,2.2959557209997,477.0119109589996,None,477.0119109589996,None,477.0119109589996,None,479.361558953,None,479.361558953,None,479.361558953,None,479.361558953,None,,,,,,,,,,,,,,,,,,,,,,,,,,,,,,,,,,,,,,,,,,,,001,177,2020_Feb_27_1030,spring_faces,3.1.5,60.0685457792749,
condition files/Stage1_1.xlsx,,T1,B1,c,"['c', 'm']","['Clue', 'Monopoly']","[-0.15, 0.5]","[0.15, 0.5]",1,1,,,,,,,,,0,2,2,2,0,5,5,0,,,,,,,,,,,,,,,,,,,,,,,,,,,,,,,,,,,,,,,,,,,,,,,,,,,,,,,481.3271910200001,None,481.3271910200001,None,481.3271910200001,None,c,1,0.94274015100018,482.86124153699984,None,482.86124153699984,None,482.86124153699984,None,483.86105278000014,None,483.86105278000014,None,483.86105278000014,None,483.86105278000014,None,,,,,,,,,,,,,,,,,,,,,,,,,,,,,,,,,,,,,,,,,,,,001,177,2020_Feb_27_1030,spring_faces,3.1.5,60.0685457792749,
condition files/Stage1_1.xlsx,,B2,T1,m,"['c', 'm']","['Clue', 'Monopoly']","[-0.15, 0.5]","[0.15, 0.5]",1,1,,,,,,,,,0,2,2,2,0,6,6,2,,,,,,,,,,,,,,,,,,,,,,,,,,,,,,,,,,,,,,,,,,,,,,,,,,,,,,,485.8276958870001,None,485.8276958870001,None,485.8276958870001,None,m,1,1.050123440999414,487.3778387479997,None,487.3778387479997,None,487.3778387479997,None,488.47975010699975,None,488.47975010699975,None,488.47975010699975,None,488.47975010699975,None,,,,,,,,,,,,,,,,,,,,,,,,,,,,,,,,,,,,,,,,,,,,001,177,2020_Feb_27_1030,spring_faces,3.1.5,60.0685457792749,
condition files/Stage1_1.xlsx,,T2,B2,m,"['c', 'm']","['Clue', 'Monopoly']","[-0.15, 0.5]","[0.15, 0.5]",1,1,,,,,,,,,0,2,2,2,0,7,7,3,,,,,,,,,,,,,,,,,,,,,,,,,,,,,,,,,,,,,,,,,,,,,,,,,,,,,,,490.44423335099964,None,490.44423335099964,None,490.44423335099964,None,m,1,2.0169692460003716,491.97894086699944,None,491.97894086699944,None,491.97894086699944,None,494.06134428599944,None,494.06134428599944,None,494.06134428599944,None,494.06134428599944,None,,,,,,,,,,,,,,,,,,,,,,,,,,,,,,,,,,,,,,,,,,,,001,177,2020_Feb_27_1030,spring_faces,3.1.5,60.0685457792749,
condition files/Stage1_2.xlsx,,B2,T2,m,"['c', 'm']","['Clue', 'Monopoly']","[-0.15, 0.5]","[0.15, 0.5]",1,1,,,,,,,,,0,3,3,3,0,0,0,3,,,,,,,,,,,,,,,,,,,,,,,,,,,,,,,,,,,,,,,,,,,,,,,,,,,,,,,496.04435173899947,None,496.04435173899947,None,496.04435173899947,None,c,0,1.21727755899974,497.5946243089993,None,497.5946243089993,None,497.5946243089993,None,498.8781369489998,None,498.8781369489998,None,498.8781369489998,None,498.8781369489998,None,,,,,,,,,,,,,,,,,,,,,,,,,,,,,,,,,,,,,,,,,,,,001,177,2020_Feb_27_1030,spring_faces,3.1.5,60.0685457792749,
condition files/Stage1_2.xlsx,,T2,B1,c,"['c', 'm']","['Clue', 'Monopoly']","[-0.15, 0.5]","[0.15, 0.5]",1,1,,,,,,,,,0,3,3,3,0,1,1,1,,,,,,,,,,,,,,,,,,,,,,,,,,,,,,,,,,,,,,,,,,,,,,,,,,,,,,,500.84436450999965,None,500.84436450999965,None,500.84436450999965,None,m,0,2.0011464270000943,502.3788101729997,None,502.3788101729997,None,502.3788101729997,None,504.4453387879994,None,504.4453387879994,None,504.4453387879994,None,504.4453387879994,None,,,,,,,,,,,,,,,,,,,,,,,,,,,,,,,,,,,,,,,,,,,,001,177,2020_Feb_27_1030,spring_faces,3.1.5,60.0685457792749,
condition files/Stage1_2.xlsx,,T3,B3,c,"['c', 'm']","['Clue', 'Monopoly']","[-0.15, 0.5]","[0.15, 0.5]",1,1,,,,,,,,,0,3,3,3,0,2,2,4,,,,,,,,,,,,,,,,,,,,,,,,,,,,,,,,,,,,,,,,,,,,,,,,,,,,,,,506.4107675810001,None,506.4107675810001,None,506.4107675810001,None,c,1,0.4838408879995768,507.9441239379994,None,507.9441239379994,None,507.9441239379994,None,508.4777806459997,None,508.4777806459997,None,508.4777806459997,None,508.4777806459997,None,,,,,,,,,,,,,,,,,,,,,,,,,,,,,,,,,,,,,,,,,,,,001,177,2020_Feb_27_1030,spring_faces,3.1.5,60.0685457792749,
condition files/Stage1_2.xlsx,,B3,T4,m,"['c', 'm']","['Clue', 'Monopoly']","[-0.15, 0.5]","[0.15, 0.5]",1,1,,,,,,,,,0,3,3,3,0,3,3,6,,,,,,,,,,,,,,,,,,,,,,,,,,,,,,,,,,,,,,,,,,,,,,,,,,,,,,,510.4438149429998,None,510.4438149429998,None,510.4438149429998,None,m,1,2.128871433000313,511.995068917,None,511.995068917,None,511.995068917,None,514.1945664599998,None,514.1945664599998,None,514.1945664599998,None,514.1945664599998,None,,,,,,,,,,,,,,,,,,,,,,,,,,,,,,,,,,,,,,,,,,,,001,177,2020_Feb_27_1030,spring_faces,3.1.5,60.0685457792749,
condition files/Stage1_2.xlsx,,B4,T3,c,"['c', 'm']","['Clue', 'Monopoly']","[-0.15, 0.5]","[0.15, 0.5]",1,1,,,,,,,,,0,3,3,3,0,4,4,5,,,,,,,,,,,,,,,,,,,,,,,,,,,,,,,,,,,,,,,,,,,,,,,,,,,,,,,516.1441667279996,None,516.1441667279996,None,516.1441667279996,None,c,1,1.2769117500001812,517.678965694,None,517.678965694,None,517.678965694,None,519.0109747279994,None,519.0109747279994,None,519.0109747279994,None,519.0109747279994,None,,,,,,,,,,,,,,,,,,,,,,,,,,,,,,,,,,,,,,,,,,,,001,177,2020_Feb_27_1030,spring_faces,3.1.5,60.0685457792749,
condition files/Stage1_2.xlsx,,B1,T1,c,"['c', 'm']","['Clue', 'Monopoly']","[-0.15, 0.5]","[0.15, 0.5]",1,1,,,,,,,,,0,3,3,3,0,5,5,0,,,,,,,,,,,,,,,,,,,,,,,,,,,,,,,,,,,,,,,,,,,,,,,,,,,,,,,520.9780227189995,None,520.9780227189995,None,520.9780227189995,None,m,0,1.1000668819997372,522.511844265,None,522.511844265,None,522.511844265,None,523.6783274939999,None,523.6783274939999,None,523.6783274939999,None,523.6783274939999,None,,,,,,,,,,,,,,,,,,,,,,,,,,,,,,,,,,,,,,,,,,,,001,177,2020_Feb_27_1030,spring_faces,3.1.5,60.0685457792749,
condition files/Stage1_2.xlsx,,T4,B4,m,"['c', 'm']","['Clue', 'Monopoly']","[-0.15, 0.5]","[0.15, 0.5]",1,1,,,,,,,,,0,3,3,3,0,6,6,7,,,,,,,,,,,,,,,,,,,,,,,,,,,,,,,,,,,,,,,,,,,,,,,,,,,,,,,525.643849948,None,525.643849948,None,525.643849948,None,c,0,1.7120975150000959,527.1798528709996,None,527.1798528709996,None,527.1798528709996,None,528.9614148249993,None,528.9614148249993,None,528.9614148249993,None,528.9614148249993,None,,,,,,,,,,,,,,,,,,,,,,,,,,,,,,,,,,,,,,,,,,,,001,177,2020_Feb_27_1030,spring_faces,3.1.5,60.0685457792749,
condition files/Stage1_2.xlsx,,T1,B2,m,"['c', 'm']","['Clue', 'Monopoly']","[-0.15, 0.5]","[0.15, 0.5]",1,1,,,,,,,,,0,3,3,3,0,7,7,2,,,,,,,,,,,,,,,,,,,,,,,,,,,,,,,,,,,,,,,,,,,,,,,,,,,,,,,530.9110130270001,None,530.9110130270001,None,530.9110130270001,None,m,1,0.49570813399986946,532.4441980239999,None,532.4441980239999,None,532.4441980239999,None,532.9946400909994,None,532.9946400909994,None,532.9946400909994,None,532.9946400909994,None,,,,,,,,,,,,,,,,,,,,,,,,,,,,,,,,,,,,,,,,,,,,001,177,2020_Feb_27_1030,spring_faces,3.1.5,60.0685457792749,
condition files/Stage1_1.xlsx,,B4,T4,m,"['c', 'm']","['Clue', 'Monopoly']","[-0.15, 0.5]","[0.15, 0.5]",1,1,,,,,,,,,0,4,4,4,0,0,0,7,,,,,,,,,,,,,,,,,,,,,,,,,,,,,,,,,,,,,,,,,,,,,,,,,,,,,,,534.9781237689995,None,534.9781237689995,None,534.9781237689995,None,m,1,1.5793732100000852,536.5125917340001,None,536.5125917340001,None,536.5125917340001,None,538.1450353989994,None,538.1450353989994,None,538.1450353989994,None,538.1450353989994,None,,,,,,,,,,,,,,,,,,,,,,,,,,,,,,,,,,,,,,,,,,,,001,177,2020_Feb_27_1030,spring_faces,3.1.5,60.0685457792749,
condition files/Stage1_1.xlsx,,T1,B1,c,"['c', 'm']","['Clue', 'Monopoly']","[-0.15, 0.5]","[0.15, 0.5]",1,1,,,,,,,,,0,4,4,4,0,1,1,0,,,,,,,,,,,,,,,,,,,,,,,,,,,,,,,,,,,,,,,,,,,,,,,,,,,,,,,540.1110284850001,None,540.1110284850001,None,540.1110284850001,None,c,1,0.8318736300007004,541.6440632079994,None,541.6440632079994,None,541.6440632079994,None,542.5270869749993,None,542.5270869749993,None,542.5270869749993,None,542.5270869749993,None,,,,,,,,,,,,,,,,,,,,,,,,,,,,,,,,,,,,,,,,,,,,001,177,2020_Feb_27_1030,spring_faces,3.1.5,60.0685457792749,
condition files/Stage1_1.xlsx,,B2,T1,m,"['c', 'm']","['Clue', 'Monopoly']","[-0.15, 0.5]","[0.15, 0.5]",1,1,,,,,,,,,0,4,4,4,0,2,2,2,,,,,,,,,,,,,,,,,,,,,,,,,,,,,,,,,,,,,,,,,,,,,,,,,,,,,,,544.494730595,None,544.494730595,None,544.494730595,None,m,1,1.3266518680002264,546.0292433509994,None,546.0292433509994,None,546.0292433509994,None,547.4121522629994,None,547.4121522629994,None,547.4121522629994,None,547.4121522629994,None,,,,,,,,,,,,,,,,,,,,,,,,,,,,,,,,,,,,,,,,,,,,001,177,2020_Feb_27_1030,spring_faces,3.1.5,60.0685457792749,
condition files/Stage1_1.xlsx,,T3,B4,c,"['c', 'm']","['Clue', 'Monopoly']","[-0.15, 0.5]","[0.15, 0.5]",1,1,,,,,,,,,0,4,4,4,0,3,3,5,,,,,,,,,,,,,,,,,,,,,,,,,,,,,,,,,,,,,,,,,,,,,,,,,,,,,,,549.3773819459993,None,549.3773819459993,None,549.3773819459993,None,c,1,2.5234889860003022,550.9125247109996,None,550.9125247109996,None,550.9125247109996,None,553.4947593050001,None,553.4947593050001,None,553.4947593050001,None,553.4947593050001,None,,,,,,,,,,,,,,,,,,,,,,,,,,,,,,,,,,,,,,,,,,,,001,177,2020_Feb_27_1030,spring_faces,3.1.5,60.0685457792749,
condition files/Stage1_1.xlsx,,T4,B3,m,"['c', 'm']","['Clue', 'Monopoly']","[-0.15, 0.5]","[0.15, 0.5]",1,1,,,,,,,,,0,4,4,4,0,4,4,6,,,,,,,,,,,,,,,,,,,,,,,,,,,,,,,,,,,,,,,,,,,,,,,,,,,,,,,555.4604840069996,None,555.4604840069996,None,555.4604840069996,None,m,1,1.320609006000268,557.0113352889994,None,557.0113352889994,None,557.0113352889994,None,558.4113877469999,None,558.4113877469999,None,558.4113877469999,None,558.4113877469999,None,,,,,,,,,,,,,,,,,,,,,,,,,,,,,,,,,,,,,,,,,,,,001,177,2020_Feb_27_1030,spring_faces,3.1.5,60.0685457792749,
condition files/Stage1_1.xlsx,,T2,B2,m,"['c', 'm']","['Clue', 'Monopoly']","[-0.15, 0.5]","[0.15, 0.5]",1,1,,,,,,,,,0,4,4,4,0,5,5,3,,,,,,,,,,,,,,,,,,,,,,,,,,,,,,,,,,,,,,,,,,,,,,,,,,,,,,,560.3610740289996,None,560.3610740289996,None,560.3610740289996,None,c,0,1.9729788519998692,561.9110097949997,None,561.9110097949997,None,561.9110097949997,None,563.9441470969996,None,563.9441470969996,None,563.9441470969996,None,563.9441470969996,None,,,,,,,,,,,,,,,,,,,,,,,,,,,,,,,,,,,,,,,,,,,,001,177,2020_Feb_27_1030,spring_faces,3.1.5,60.0685457792749,
condition files/Stage1_1.xlsx,,B3,T3,c,"['c', 'm']","['Clue', 'Monopoly']","[-0.15, 0.5]","[0.15, 0.5]",1,1,,,,,,,,,0,4,4,4,0,6,6,4,,,,,,,,,,,,,,,,,,,,,,,,,,,,,,,,,,,,,,,,,,,,,,,,,,,,,,,565.9110631209996,None,565.9110631209996,None,565.9110631209996,None,m,0,1.1272888020002938,567.4607211550001,None,567.4607211550001,None,567.4607211550001,None,568.6610632729999,None,568.6610632729999,None,568.6610632729999,None,568.6610632729999,None,,,,,,,,,,,,,,,,,,,,,,,,,,,,,,,,,,,,,,,,,,,,001,177,2020_Feb_27_1030,spring_faces,3.1.5,60.0685457792749,
condition files/Stage1_1.xlsx,,B1,T2,c,"['c', 'm']","['Clue', 'Monopoly']","[-0.15, 0.5]","[0.15, 0.5]",1,1,,,,,,,,,0,4,4,4,0,7,7,1,,,,,,,,,,,,,,,,,,,,,,,,,,,,,,,,,,,,,,,,,,,,,,,,,,,,,,,570.610805796,None,570.610805796,None,570.610805796,None,c,1,0.6990140320003775,572.1449408199996,None,572.1449408199996,None,572.1449408199996,None,572.8944668929998,None,572.8944668929998,None,572.8944668929998,None,572.8944668929998,None,,,,,,,,,,,,,,,,,,,,,,,,,,,,,,,,,,,,,,,,,,,,001,177,2020_Feb_27_1030,spring_faces,3.1.5,60.0685457792749,
condition files/Stage1_2.xlsx,,B4,T3,c,"['c', 'm']","['Clue', 'Monopoly']","[-0.15, 0.5]","[0.15, 0.5]",1,1,,,,,,,,,0,5,5,5,0,0,0,5,,,,,,,,,,,,,,,,,,,,,,,,,,,,,,,,,,,,,,,,,,,,,,,,,,,,,,,574.877865462,None,574.877865462,None,574.877865462,None,m,0,2.0963506409998445,576.4116933340001,None,576.4116933340001,None,576.4116933340001,None,578.5608374630001,None,578.5608374630001,None,578.5608374630001,None,578.5608374630001,None,,,,,,,,,,,,,,,,,,,,,,,,,,,,,,,,,,,,,,,,,,,,001,177,2020_Feb_27_1030,spring_faces,3.1.5,60.0685457792749,
condition files/Stage1_2.xlsx,,T1,B2,m,"['c', 'm']","['Clue', 'Monopoly']","[-0.15, 0.5]","[0.15, 0.5]",1,1,,,,,,,,,0,5,5,5,0,1,1,2,,,,,,,,,,,,,,,,,,,,,,,,,,,,,,,,,,,,,,,,,,,,,,,,,,,,,,,580.5275690469998,None,580.5275690469998,None,580.5275690469998,None,c,0,0.8139606969998567,582.0619790129995,None,582.0619790129995,None,582.0619790129995,None,582.943975055,None,582.943975055,None,582.943975055,None,582.943975055,None,,,,,,,,,,,,,,,,,,,,,,,,,,,,,,,,,,,,,,,,,,,,001,177,2020_Feb_27_1030,spring_faces,3.1.5,60.0685457792749,
condition files/Stage1_2.xlsx,,T3,B3,c,"['c', 'm']","['Clue', 'Monopoly']","[-0.15, 0.5]","[0.15, 0.5]",1,1,,,,,,,,,0,5,5,5,0,2,2,4,,,,,,,,,,,,,,,,,,,,,,,,,,,,,,,,,,,,,,,,,,,,,,,,,,,,,,,584.8938324789997,None,584.8938324789997,None,584.8938324789997,None,c,1,0.990696974000457,586.4293215449998,None,586.4293215449998,None,586.4293215449998,None,587.4946874739999,None,587.4946874739999,None,587.4946874739999,None,587.4946874739999,None,,,,,,,,,,,,,,,,,,,,,,,,,,,,,,,,,,,,,,,,,,,,001,177,2020_Feb_27_1030,spring_faces,3.1.5,60.0685457792749,
condition files/Stage1_2.xlsx,,B1,T1,c,"['c', 'm']","['Clue', 'Monopoly']","[-0.15, 0.5]","[0.15, 0.5]",1,1,,,,,,,,,0,5,5,5,0,3,3,0,,,,,,,,,,,,,,,,,,,,,,,,,,,,,,,,,,,,,,,,,,,,,,,,,,,,,,,589.4441173349996,None,589.4441173349996,None,589.4441173349996,None,m,0,1.51432695099993,590.9776261959996,None,590.9776261959996,None,590.9776261959996,None,592.5443424519999,None,592.5443424519999,None,592.5443424519999,None,592.5443424519999,None,,,,,,,,,,,,,,,,,,,,,,,,,,,,,,,,,,,,,,,,,,,,001,177,2020_Feb_27_1030,spring_faces,3.1.5,60.0685457792749,
condition files/Stage1_2.xlsx,,B2,T2,m,"['c', 'm']","['Clue', 'Monopoly']","[-0.15, 0.5]","[0.15, 0.5]",1,1,,,,,,,,,0,5,5,5,0,4,4,3,,,,,,,,,,,,,,,,,,,,,,,,,,,,,,,,,,,,,,,,,,,,,,,,,,,,,,,594.5110905000001,None,594.5110905000001,None,594.5110905000001,None,c,0,1.6622151399997165,596.0456915939994,None,596.0456915939994,None,596.0456915939994,None,597.763928718,None,597.763928718,None,597.763928718,None,597.763928718,None,,,,,,,,,,,,,,,,,,,,,,,,,,,,,,,,,,,,,,,,,,,,001,177,2020_Feb_27_1030,spring_faces,3.1.5,60.0685457792749,
condition files/Stage1_2.xlsx,,B3,T4,m,"['c', 'm']","['Clue', 'Monopoly']","[-0.15, 0.5]","[0.15, 0.5]",1,1,,,,,,,,,0,5,5,5,0,5,5,6,,,,,,,,,,,,,,,,,,,,,,,,,,,,,,,,,,,,,,,,,,,,,,,,,,,,,,,599.7278115179997,None,599.7278115179997,None,599.7278115179997,None,c,0,1.4697558460002256,601.2622071219994,None,601.2622071219994,None,601.2622071219994,None,602.7950873149994,None,602.7950873149994,None,602.7950873149994,None,602.7950873149994,None,,,,,,,,,,,,,,,,,,,,,,,,,,,,,,,,,,,,,,,,,,,,001,177,2020_Feb_27_1030,spring_faces,3.1.5,60.0685457792749,
condition files/Stage1_2.xlsx,,T2,B1,c,"['c', 'm']","['Clue', 'Monopoly']","[-0.15, 0.5]","[0.15, 0.5]",1,1,,,,,,,,,0,5,5,5,0,6,6,1,,,,,,,,,,,,,,,,,,,,,,,,,,,,,,,,,,,,,,,,,,,,,,,,,,,,,,,604.7608917759999,None,604.7608917759999,None,604.7608917759999,None,m,0,1.5582090249999965,606.2937916559995,None,606.2937916559995,None,606.2937916559995,None,607.9127004049997,None,607.9127004049997,None,607.9127004049997,None,607.9127004049997,None,,,,,,,,,,,,,,,,,,,,,,,,,,,,,,,,,,,,,,,,,,,,001,177,2020_Feb_27_1030,spring_faces,3.1.5,60.0685457792749,
condition files/Stage1_2.xlsx,,T4,B4,m,"['c', 'm']","['Clue', 'Monopoly']","[-0.15, 0.5]","[0.15, 0.5]",1,1,,,,,,,,,0,5,5,5,0,7,7,7,,,,,,,,,,,,,,,,,,,,,,,,,,,,,,,,,,,,,,,,,,,,,,,,,,,,,,,609.8777342599997,None,609.8777342599997,None,609.8777342599997,None,m,1,0.8089183439997214,611.4111020169994,None,611.4111020169994,None,611.4111020169994,None,612.2784579539994,None,612.2784579539994,None,612.2784579539994,None,612.2784579539994,None,,,,,,,,,,,,,,,,,,,,,,,,,,,,,,,,,,,,,,,,,,,,001,177,2020_Feb_27_1030,spring_faces,3.1.5,60.0685457792749,
condition files/Stage1_1.xlsx,,B1,T2,c,"['c', 'm']","['Clue', 'Monopoly']","[-0.15, 0.5]","[0.15, 0.5]",1,1,,,,,,,,,0,6,6,6,0,0,0,1,,,,,,,,,,,,,,,,,,,,,,,,,,,,,,,,,,,,,,,,,,,,,,,,,,,,,,,614.2610001089997,None,614.2610001089997,None,614.2610001089997,None,c,1,0.8253801139999268,615.794630765,None,615.794630765,None,615.794630765,None,616.6780102009998,None,616.6780102009998,None,616.6780102009998,None,616.6780102009998,None,,,,,,,,,,,,,,,,,,,,,,,,,,,,,,,,,,,,,,,,,,,,001,177,2020_Feb_27_1030,spring_faces,3.1.5,60.0685457792749,
condition files/Stage1_1.xlsx,,T2,B2,m,"['c', 'm']","['Clue', 'Monopoly']","[-0.15, 0.5]","[0.15, 0.5]",1,1,,,,,,,,,0,6,6,6,0,1,1,3,,,,,,,,,,,,,,,,,,,,,,,,,,,,,,,,,,,,,,,,,,,,,,,,,,,,,,,618.6443063799998,None,618.6443063799998,None,618.6443063799998,None,c,0,0.9540848709993952,620.1778823219993,None,620.1778823219993,None,620.1778823219993,None,621.1939070170001,None,621.1939070170001,None,621.1939070170001,None,621.1939070170001,None,,,,,,,,,,,,,,,,,,,,,,,,,,,,,,,,,,,,,,,,,,,,001,177,2020_Feb_27_1030,spring_faces,3.1.5,60.0685457792749,
condition files/Stage1_1.xlsx,,B2,T1,m,"['c', 'm']","['Clue', 'Monopoly']","[-0.15, 0.5]","[0.15, 0.5]",1,1,,,,,,,,,0,6,6,6,0,2,2,2,,,,,,,,,,,,,,,,,,,,,,,,,,,,,,,,,,,,,,,,,,,,,,,,,,,,,,,623.1610021959996,None,623.1610021959996,None,623.1610021959996,None,m,1,1.206074445000013,624.6938331249994,None,624.6938331249994,None,624.6938331249994,None,625.9609074099999,None,625.9609074099999,None,625.9609074099999,None,625.9609074099999,None,,,,,,,,,,,,,,,,,,,,,,,,,,,,,,,,,,,,,,,,,,,,001,177,2020_Feb_27_1030,spring_faces,3.1.5,60.0685457792749,
condition files/Stage1_1.xlsx,,B4,T4,m,"['c', 'm']","['Clue', 'Monopoly']","[-0.15, 0.5]","[0.15, 0.5]",1,1,,,,,,,,,0,6,6,6,0,3,3,7,,,,,,,,,,,,,,,,,,,,,,,,,,,,,,,,,,,,,,,,,,,,,,,,,,,,,,,627.9277431809996,None,627.9277431809996,None,627.9277431809996,None,m,1,2.1181613340004333,629.4777788579995,None,629.4777788579995,None,629.4777788579995,None,631.6616630319995,None,631.6616630319995,None,631.6616630319995,None,631.6616630319995,None,,,,,,,,,,,,,,,,,,,,,,,,,,,,,,,,,,,,,,,,,,,,001,177,2020_Feb_27_1030,spring_faces,3.1.5,60.0685457792749,
condition files/Stage1_1.xlsx,,T4,B3,m,"['c', 'm']","['Clue', 'Monopoly']","[-0.15, 0.5]","[0.15, 0.5]",1,1,,,,,,,,,0,6,6,6,0,4,4,6,,,,,,,,,,,,,,,,,,,,,,,,,,,,,,,,,,,,,,,,,,,,,,,,,,,,,,,633.628015362,None,633.628015362,None,633.628015362,None,m,1,0.8659630490001291,635.1779783559996,None,635.1779783559996,None,635.1779783559996,None,636.0946526759999,None,636.0946526759999,None,636.0946526759999,None,636.0946526759999,None,,,,,,,,,,,,,,,,,,,,,,,,,,,,,,,,,,,,,,,,,,,,001,177,2020_Feb_27_1030,spring_faces,3.1.5,60.0685457792749,
condition files/Stage1_1.xlsx,,B3,T3,c,"['c', 'm']","['Clue', 'Monopoly']","[-0.15, 0.5]","[0.15, 0.5]",1,1,,,,,,,,,0,6,6,6,0,5,5,4,,,,,,,,,,,,,,,,,,,,,,,,,,,,,,,,,,,,,,,,,,,,,,,,,,,,,,,638.0605197959994,None,638.0605197959994,None,638.0605197959994,None,c,1,0.897676457999296,639.5942846079997,None,639.5942846079997,None,639.5942846079997,None,640.5439120639994,None,640.5439120639994,None,640.5439120639994,None,640.5439120639994,None,,,,,,,,,,,,,,,,,,,,,,,,,,,,,,,,,,,,,,,,,,,,001,177,2020_Feb_27_1030,spring_faces,3.1.5,60.0685457792749,
condition files/Stage1_1.xlsx,,T1,B1,c,"['c', 'm']","['Clue', 'Monopoly']","[-0.15, 0.5]","[0.15, 0.5]",1,1,,,,,,,,,0,6,6,6,0,6,6,0,,,,,,,,,,,,,,,,,,,,,,,,,,,,,,,,,,,,,,,,,,,,,,,,,,,,,,,642.5111689299993,None,642.5111689299993,None,642.5111689299993,None,m,0,2.271712488999583,644.04424346,None,644.04424346,None,644.04424346,None,646.377774955,None,646.377774955,None,646.377774955,None,646.377774955,None,,,,,,,,,,,,,,,,,,,,,,,,,,,,,,,,,,,,,,,,,,,,001,177,2020_Feb_27_1030,spring_faces,3.1.5,60.0685457792749,
condition files/Stage1_1.xlsx,,T3,B4,c,"['c', 'm']","['Clue', 'Monopoly']","[-0.15, 0.5]","[0.15, 0.5]",1,1,,,,,,,,,0,6,6,6,0,7,7,5,,,,,,,,,,,,,,,,,,,,,,,,,,,,,,,,,,,,,,,,,,,,,,,,,,,,,,,648.3443330339996,None,648.3443330339996,None,648.3443330339996,None,c,1,0.7897511629998917,649.8782701009995,None,649.8782701009995,None,649.8782701009995,None,650.7274745929999,None,650.7274745929999,None,650.7274745929999,None,650.7274745929999,None,,,,,,,,,,,,,,,,,,,,,,,,,,,,,,,,,,,,,,,,,,,,001,177,2020_Feb_27_1030,spring_faces,3.1.5,60.0685457792749,
condition files/Stage1_2.xlsx,,T3,B3,c,"['c', 'm']","['Clue', 'Monopoly']","[-0.15, 0.5]","[0.15, 0.5]",1,1,,,,,,,,,0,7,7,7,0,0,0,4,,,,,,,,,,,,,,,,,,,,,,,,,,,,,,,,,,,,,,,,,,,,,,,,,,,,,,,652.7115118379998,None,652.7115118379998,None,652.7115118379998,None,c,1,0.9836132479995285,654.2443137679993,None,654.2443137679993,None,654.2443137679993,None,655.2780826239996,None,655.2780826239996,None,655.2780826239996,None,655.2780826239996,None,,,,,,,,,,,,,,,,,,,,,,,,,,,,,,,,,,,,,,,,,,,,001,177,2020_Feb_27_1030,spring_faces,3.1.5,60.0685457792749,
condition files/Stage1_2.xlsx,,T2,B1,c,"['c', 'm']","['Clue', 'Monopoly']","[-0.15, 0.5]","[0.15, 0.5]",1,1,,,,,,,,,0,7,7,7,0,1,1,1,,,,,,,,,,,,,,,,,,,,,,,,,,,,,,,,,,,,,,,,,,,,,,,,,,,,,,,657.2437209709997,None,657.2437209709997,None,657.2437209709997,None,m,0,2.4502386599997408,658.777666637,None,658.777666637,None,658.777666637,None,661.2779876369996,None,661.2779876369996,None,661.2779876369996,None,661.2779876369996,None,,,,,,,,,,,,,,,,,,,,,,,,,,,,,,,,,,,,,,,,,,,,001,177,2020_Feb_27_1030,spring_faces,3.1.5,60.0685457792749,
condition files/Stage1_2.xlsx,,B1,T1,c,"['c', 'm']","['Clue', 'Monopoly']","[-0.15, 0.5]","[0.15, 0.5]",1,1,,,,,,,,,0,7,7,7,0,2,2,0,,,,,,,,,,,,,,,,,,,,,,,,,,,,,,,,,,,,,,,,,,,,,,,,,,,,,,,663.2439382049997,None,663.2439382049997,None,663.2439382049997,None,m,0,1.79315316300017,664.7787836409998,None,664.7787836409998,None,664.7787836409998,None,666.6279037819995,None,666.6279037819995,None,666.6279037819995,None,666.6279037819995,None,,,,,,,,,,,,,,,,,,,,,,,,,,,,,,,,,,,,,,,,,,,,001,177,2020_Feb_27_1030,spring_faces,3.1.5,60.0685457792749,
condition files/Stage1_2.xlsx,,T1,B2,m,"['c', 'm']","['Clue', 'Monopoly']","[-0.15, 0.5]","[0.15, 0.5]",1,1,,,,,,,,,0,7,7,7,0,3,3,2,,,,,,,,,,,,,,,,,,,,,,,,,,,,,,,,,,,,,,,,,,,,,,,,,,,,,,,668.5947269519993,None,668.5947269519993,None,668.5947269519993,None,c,0,1.4030110029998468,670.12896852,None,670.12896852,None,670.12896852,None,671.6114809359997,None,671.6114809359997,None,671.6114809359997,None,671.6114809359997,None,,,,,,,,,,,,,,,,,,,,,,,,,,,,,,,,,,,,,,,,,,,,001,177,2020_Feb_27_1030,spring_faces,3.1.5,60.0685457792749,
condition files/Stage1_2.xlsx,,T4,B4,m,"['c', 'm']","['Clue', 'Monopoly']","[-0.15, 0.5]","[0.15, 0.5]",1,1,,,,,,,,,0,7,7,7,0,4,4,7,,,,,,,,,,,,,,,,,,,,,,,,,,,,,,,,,,,,,,,,,,,,,,,,,,,,,,,673.561010292,None,673.561010292,None,673.561010292,None,m,1,1.1092295770004057,675.094747649,None,675.094747649,None,675.094747649,None,676.2615035899998,None,676.2615035899998,None,676.2615035899998,None,676.2615035899998,None,,,,,,,,,,,,,,,,,,,,,,,,,,,,,,,,,,,,,,,,,,,,001,177,2020_Feb_27_1030,spring_faces,3.1.5,60.0685457792749,
condition files/Stage1_2.xlsx,,B4,T3,c,"['c', 'm']","['Clue', 'Monopoly']","[-0.15, 0.5]","[0.15, 0.5]",1,1,,,,,,,,,0,7,7,7,0,5,5,5,,,,,,,,,,,,,,,,,,,,,,,,,,,,,,,,,,,,,,,,,,,,,,,,,,,,,,,678.227367808,None,678.227367808,None,678.227367808,None,c,1,3.114401847999943,679.7615403399996,None,679.7615403399996,None,679.7615403399996,None,682.9278532939998,None,682.9278532939998,None,682.9278532939998,None,682.9278532939998,None,,,,,,,,,,,,,,,,,,,,,,,,,,,,,,,,,,,,,,,,,,,,001,177,2020_Feb_27_1030,spring_faces,3.1.5,60.0685457792749,
condition files/Stage1_2.xlsx,,B3,T4,m,"['c', 'm']","['Clue', 'Monopoly']","[-0.15, 0.5]","[0.15, 0.5]",1,1,,,,,,,,,0,7,7,7,0,6,6,6,,,,,,,,,,,,,,,,,,,,,,,,,,,,,,,,,,,,,,,,,,,,,,,,,,,,,,,684.894507512,None,684.894507512,None,684.894507512,None,m,1,1.4718934820002687,686.4280683959996,None,686.4280683959996,None,686.4280683959996,None,687.9627815539998,None,687.9627815539998,None,687.9627815539998,None,687.9627815539998,None,,,,,,,,,,,,,,,,,,,,,,,,,,,,,,,,,,,,,,,,,,,,001,177,2020_Feb_27_1030,spring_faces,3.1.5,60.0685457792749,
condition files/Stage1_2.xlsx,,B2,T2,m,"['c', 'm']","['Clue', 'Monopoly']","[-0.15, 0.5]","[0.15, 0.5]",1,1,,,,,,,,,0,7,7,7,0,7,7,3,,,,,,,,,,,,,,,,,,,,,,,,,,,,,,,,,,,,,,,,,,,,,,,,,,,,,,,689.9277344369993,None,689.9277344369993,None,689.9277344369993,None,m,1,1.87897611399967,691.4610023360001,None,691.4610023360001,None,691.4610023360001,None,693.39500262,None,693.39500262,None,693.39500262,None,693.39500262,None,,,,,,,,,,,,,,,,,,,,,,,,,,,,,,,,,,,,,,,,,,,,001,177,2020_Feb_27_1030,spring_faces,3.1.5,60.0685457792749,
condition files/Stage1_1.xlsx,,T2,B2,m,"['c', 'm']","['Clue', 'Monopoly']","[-0.15, 0.5]","[0.15, 0.5]",1,1,,,,,,,,,0,8,8,8,0,0,0,3,,,,,,,,,,,,,,,,,,,,,,,,,,,,,,,,,,,,,,,,,,,,,,,,,,,,,,,695.3778501589995,None,695.3778501589995,None,695.3778501589995,None,c,0,1.0346712679993288,696.9132997549996,None,696.9132997549996,None,696.9132997549996,None,698.010673877,None,698.010673877,None,698.010673877,None,698.010673877,None,,,,,,,,,,,,,,,,,,,,,,,,,,,,,,,,,,,,,,,,,,,,001,177,2020_Feb_27_1030,spring_faces,3.1.5,60.0685457792749,
condition files/Stage1_1.xlsx,,T4,B3,m,"['c', 'm']","['Clue', 'Monopoly']","[-0.15, 0.5]","[0.15, 0.5]",1,1,,,,,,,,,0,8,8,8,0,1,1,6,,,,,,,,,,,,,,,,,,,,,,,,,,,,,,,,,,,,,,,,,,,,,,,,,,,,,,,699.9776728319994,None,699.9776728319994,None,699.9776728319994,None,m,1,0.7245414770004572,701.5274634369998,None,701.5274634369998,None,701.5274634369998,None,702.3116221149994,None,702.3116221149994,None,702.3116221149994,None,702.3116221149994,None,,,,,,,,,,,,,,,,,,,,,,,,,,,,,,,,,,,,,,,,,,,,001,177,2020_Feb_27_1030,spring_faces,3.1.5,60.0685457792749,
condition files/Stage1_1.xlsx,,B1,T2,c,"['c', 'm']","['Clue', 'Monopoly']","[-0.15, 0.5]","[0.15, 0.5]",1,1,,,,,,,,,0,8,8,8,0,2,2,1,,,,,,,,,,,,,,,,,,,,,,,,,,,,,,,,,,,,,,,,,,,,,,,,,,,,,,,704.2773127539995,None,704.2773127539995,None,704.2773127539995,None,m,0,1.144247053000072,705.8116245189995,None,705.8116245189995,None,705.8116245189995,None,707.0109481230002,None,707.0109481230002,None,707.0109481230002,None,707.0109481230002,None,,,,,,,,,,,,,,,,,,,,,,,,,,,,,,,,,,,,,,,,,,,,001,177,2020_Feb_27_1030,spring_faces,3.1.5,60.0685457792749,
condition files/Stage1_1.xlsx,,B2,T1,m,"['c', 'm']","['Clue', 'Monopoly']","[-0.15, 0.5]","[0.15, 0.5]",1,1,,,,,,,,,0,8,8,8,0,3,3,2,,,,,,,,,,,,,,,,,,,,,,,,,,,,,,,,,,,,,,,,,,,,,,,,,,,,,,,708.977227671,None,708.977227671,None,708.977227671,None,c,0,0.7799992000000202,710.5280347159996,None,710.5280347159996,None,710.5280347159996,None,711.3780655929995,None,711.3780655929995,None,711.3780655929995,None,711.3780655929995,None,,,,,,,,,,,,,,,,,,,,,,,,,,,,,,,,,,,,,,,,,,,,001,177,2020_Feb_27_1030,spring_faces,3.1.5,60.0685457792749,
condition files/Stage1_1.xlsx,,B3,T3,c,"['c', 'm']","['Clue', 'Monopoly']","[-0.15, 0.5]","[0.15, 0.5]",1,1,,,,,,,,,0,8,8,8,0,4,4,4,,,,,,,,,,,,,,,,,,,,,,,,,,,,,,,,,,,,,,,,,,,,,,,,,,,,,,,713.3277462169999,None,713.3277462169999,None,713.3277462169999,None,m,0,0.5254677120001361,714.8625543459993,None,714.8625543459993,None,714.8625543459993,None,715.4454067529996,None,715.4454067529996,None,715.4454067529996,None,715.4454067529996,None,,,,,,,,,,,,,,,,,,,,,,,,,,,,,,,,,,,,,,,,,,,,001,177,2020_Feb_27_1030,spring_faces,3.1.5,60.0685457792749,
condition files/Stage1_1.xlsx,,T1,B1,c,"['c', 'm']","['Clue', 'Monopoly']","[-0.15, 0.5]","[0.15, 0.5]",1,1,,,,,,,,,0,8,8,8,0,5,5,0,,,,,,,,,,,,,,,,,,,,,,,,,,,,,,,,,,,,,,,,,,,,,,,,,,,,,,,717.4106748849999,None,717.4106748849999,None,717.4106748849999,None,c,1,0.3952480710004238,718.9447366779996,None,718.9447366779996,None,718.9447366779996,None,719.3947595599993,None,719.3947595599993,None,719.3947595599993,None,719.3947595599993,None,,,,,,,,,,,,,,,,,,,,,,,,,,,,,,,,,,,,,,,,,,,,001,177,2020_Feb_27_1030,spring_faces,3.1.5,60.0685457792749,
condition files/Stage1_1.xlsx,,T3,B4,c,"['c', 'm']","['Clue', 'Monopoly']","[-0.15, 0.5]","[0.15, 0.5]",1,1,,,,,,,,,0,8,8,8,0,6,6,5,,,,,,,,,,,,,,,,,,,,,,,,,,,,,,,,,,,,,,,,,,,,,,,,,,,,,,,721.3606739279994,None,721.3606739279994,None,721.3606739279994,None,c,1,0.9723904409993338,722.8956324609999,None,722.8956324609999,None,722.8956324609999,None,723.9278707149997,None,723.9278707149997,None,723.9278707149997,None,723.9278707149997,None,,,,,,,,,,,,,,,,,,,,,,,,,,,,,,,,,,,,,,,,,,,,001,177,2020_Feb_27_1030,spring_faces,3.1.5,60.0685457792749,
condition files/Stage1_1.xlsx,,B4,T4,m,"['c', 'm']","['Clue', 'Monopoly']","[-0.15, 0.5]","[0.15, 0.5]",1,1,,,,,,,,,0,8,8,8,0,7,7,7,,,,,,,,,,,,,,,,,,,,,,,,,,,,,,,,,,,,,,,,,,,,,,,,,,,,,,,725.894765864,None,725.894765864,None,725.894765864,None,m,1,1.1109608019996813,727.4290029269996,None,727.4290029269996,None,727.4290029269996,None,728.6107333249993,None,728.6107333249993,None,728.6107333249993,None,728.6107333249993,None,,,,,,,,,,,,,,,,,,,,,,,,,,,,,,,,,,,,,,,,,,,,001,177,2020_Feb_27_1030,spring_faces,3.1.5,60.0685457792749,
condition files/Stage1_2.xlsx,,B4,T3,c,"['c', 'm']","['Clue', 'Monopoly']","[-0.15, 0.5]","[0.15, 0.5]",1,1,,,,,,,,,0,9,9,9,0,0,0,5,,,,,,,,,,,,,,,,,,,,,,,,,,,,,,,,,,,,,,,,,,,,,,,,,,,,,,,730.5777430119997,None,730.5777430119997,None,730.5777430119997,None,c,1,0.7486918920003518,732.1112760919996,None,732.1112760919996,None,732.1112760919996,None,732.9134711879997,None,732.9134711879997,None,732.9134711879997,None,732.9134711879997,None,,,,,,,,,,,,,,,,,,,,,,,,,,,,,,,,,,,,,,,,,,,,001,177,2020_Feb_27_1030,spring_faces,3.1.5,60.0685457792749,
condition files/Stage1_2.xlsx,,B3,T4,m,"['c', 'm']","['Clue', 'Monopoly']","[-0.15, 0.5]","[0.15, 0.5]",1,1,,,,,,,,,0,9,9,9,0,1,1,6,,,,,,,,,,,,,,,,,,,,,,,,,,,,,,,,,,,,,,,,,,,,,,,,,,,,,,,734.8776181570001,None,734.8776181570001,None,734.8776181570001,None,m,1,1.1691238849998626,736.4108389849998,None,736.4108389849998,None,736.4108389849998,None,737.644814919,None,737.644814919,None,737.644814919,None,737.644814919,None,,,,,,,,,,,,,,,,,,,,,,,,,,,,,,,,,,,,,,,,,,,,001,177,2020_Feb_27_1030,spring_faces,3.1.5,60.0685457792749,
condition files/Stage1_2.xlsx,,B1,T1,c,"['c', 'm']","['Clue', 'Monopoly']","[-0.15, 0.5]","[0.15, 0.5]",1,1,,,,,,,,,0,9,9,9,0,2,2,0,,,,,,,,,,,,,,,,,,,,,,,,,,,,,,,,,,,,,,,,,,,,,,,,,,,,,,,739.6113804679999,None,739.6113804679999,None,739.6113804679999,None,m,0,1.9073414280001089,741.1446538189994,None,741.1446538189994,None,741.1446538189994,None,743.1108500649998,None,743.1108500649998,None,743.1108500649998,None,743.1108500649998,None,,,,,,,,,,,,,,,,,,,,,,,,,,,,,,,,,,,,,,,,,,,,001,177,2020_Feb_27_1030,spring_faces,3.1.5,60.0685457792749,
condition files/Stage1_2.xlsx,,T3,B3,c,"['c', 'm']","['Clue', 'Monopoly']","[-0.15, 0.5]","[0.15, 0.5]",1,1,,,,,,,,,0,9,9,9,0,3,3,4,,,,,,,,,,,,,,,,,,,,,,,,,,,,,,,,,,,,,,,,,,,,,,,,,,,,,,,745.0771294400001,None,745.0771294400001,None,745.0771294400001,None,c,1,0.6959670240003106,746.6279804099995,None,746.6279804099995,None,746.6279804099995,None,747.3780636789998,None,747.3780636789998,None,747.3780636789998,None,747.3780636789998,None,,,,,,,,,,,,,,,,,,,,,,,,,,,,,,,,,,,,,,,,,,,,001,177,2020_Feb_27_1030,spring_faces,3.1.5,60.0685457792749,
condition files/Stage1_2.xlsx,,T1,B2,m,"['c', 'm']","['Clue', 'Monopoly']","[-0.15, 0.5]","[0.15, 0.5]",1,1,,,,,,,,,0,9,9,9,0,4,4,2,,,,,,,,,,,,,,,,,,,,,,,,,,,,,,,,,,,,,,,,,,,,,,,,,,,,,,,749.3440126059995,None,749.3440126059995,None,749.3440126059995,None,c,0,2.813901118999638,750.8780564859999,None,750.8780564859999,None,750.8780564859999,None,753.7454671969999,None,753.7454671969999,None,753.7454671969999,None,753.7454671969999,None,,,,,,,,,,,,,,,,,,,,,,,,,,,,,,,,,,,,,,,,,,,,001,177,2020_Feb_27_1030,spring_faces,3.1.5,60.0685457792749,
condition files/Stage1_2.xlsx,,T2,B1,c,"['c', 'm']","['Clue', 'Monopoly']","[-0.15, 0.5]","[0.15, 0.5]",1,1,,,,,,,,,0,9,9,9,0,5,5,1,,,,,,,,,,,,,,,,,,,,,,,,,,,,,,,,,,,,,,,,,,,,,,,,,,,,,,,755.7105948049993,None,755.7105948049993,None,755.7105948049993,None,m,0,0.8309310399999958,757.2610154189997,None,757.2610154189997,None,757.2610154189997,None,758.1441698409999,None,758.1441698409999,None,758.1441698409999,None,758.1441698409999,None,,,,,,,,,,,,,,,,,,,,,,,,,,,,,,,,,,,,,,,,,,,,001,177,2020_Feb_27_1030,spring_faces,3.1.5,60.0685457792749,
condition files/Stage1_2.xlsx,,T4,B4,m,"['c', 'm']","['Clue', 'Monopoly']","[-0.15, 0.5]","[0.15, 0.5]",1,1,,,,,,,,,0,9,9,9,0,6,6,7,,,,,,,,,,,,,,,,,,,,,,,,,,,,,,,,,,,,,,,,,,,,,,,,,,,,,,,760.1106699819993,None,760.1106699819993,None,760.1106699819993,None,m,1,1.2133871239993823,761.6465759160001,None,761.6465759160001,None,761.6465759160001,None,762.9119662489993,None,762.9119662489993,None,762.9119662489993,None,762.9119662489993,None,,,,,,,,,,,,,,,,,,,,,,,,,,,,,,,,,,,,,,,,,,,,001,177,2020_Feb_27_1030,spring_faces,3.1.5,60.0685457792749,
condition files/Stage1_2.xlsx,,B2,T2,m,"['c', 'm']","['Clue', 'Monopoly']","[-0.15, 0.5]","[0.15, 0.5]",1,1,,,,,,,,,0,9,9,9,0,7,7,3,,,,,,,,,,,,,,,,,,,,,,,,,,,,,,,,,,,,,,,,,,,,,,,,,,,,,,,764.8777084630001,None,764.8777084630001,None,764.8777084630001,None,c,0,2.4803148419996432,766.4275588659993,None,766.4275588659993,None,766.4275588659993,None,768.9613627849994,None,768.9613627849994,None,768.9613627849994,None,768.9613627849994,None,,,,,,,,,,,,,,,,,,,,,,,,,,,,,,,,,,,,,,,,,,,,001,177,2020_Feb_27_1030,spring_faces,3.1.5,60.0685457792749,
condition files/Stage1_1.xlsx,,T2,B2,m,"['c', 'm']","['Clue', 'Monopoly']","[-0.15, 0.5]","[0.15, 0.5]",1,1,,,,,,,,,0,10,10,10,0,0,0,3,,,,,,,,,,,,,,,,,,,,,,,,,,,,,,,,,,,,,,,,,,,,,,,,,,,,,,,770.9447303309998,None,770.9447303309998,None,770.9447303309998,None,m,1,1.9016890399998374,772.4782430409996,None,772.4782430409996,None,772.4782430409996,None,774.4446872170001,None,774.4446872170001,None,774.4446872170001,None,774.4446872170001,None,,,,,,,,,,,,,,,,,,,,,,,,,,,,,,,,,,,,,,,,,,,,001,177,2020_Feb_27_1030,spring_faces,3.1.5,60.0685457792749,
condition files/Stage1_1.xlsx,,T4,B3,m,"['c', 'm']","['Clue', 'Monopoly']","[-0.15, 0.5]","[0.15, 0.5]",1,1,,,,,,,,,0,10,10,10,0,1,1,6,,,,,,,,,,,,,,,,,,,,,,,,,,,,,,,,,,,,,,,,,,,,,,,,,,,,,,,776.4110185700001,None,776.4110185700001,None,776.4110185700001,None,m,1,0.7382498340002712,777.9457195579998,None,777.9457195579998,None,777.9457195579998,None,778.7442841239999,None,778.7442841239999,None,778.7442841239999,None,778.7442841239999,None,,,,,,,,,,,,,,,,,,,,,,,,,,,,,,,,,,,,,,,,,,,,001,177,2020_Feb_27_1030,spring_faces,3.1.5,60.0685457792749,
condition files/Stage1_1.xlsx,,B4,T4,m,"['c', 'm']","['Clue', 'Monopoly']","[-0.15, 0.5]","[0.15, 0.5]",1,1,,,,,,,,,0,10,10,10,0,2,2,7,,,,,,,,,,,,,,,,,,,,,,,,,,,,,,,,,,,,,,,,,,,,,,,,,,,,,,,780.7110249029993,None,780.7110249029993,None,780.7110249029993,None,m,1,1.9909175749999122,782.2451066859994,None,782.2451066859994,None,782.2451066859994,None,784.2944209059997,None,784.2944209059997,None,784.2944209059997,None,784.2944209059997,None,,,,,,,,,,,,,,,,,,,,,,,,,,,,,,,,,,,,,,,,,,,,001,177,2020_Feb_27_1030,spring_faces,3.1.5,60.0685457792749,
condition files/Stage1_1.xlsx,,T1,B1,c,"['c', 'm']","['Clue', 'Monopoly']","[-0.15, 0.5]","[0.15, 0.5]",1,1,,,,,,,,,0,10,10,10,0,3,3,0,,,,,,,,,,,,,,,,,,,,,,,,,,,,,,,,,,,,,,,,,,,,,,,,,,,,,,,786.2606585359999,None,786.2606585359999,None,786.2606585359999,None,c,1,4.2816866880002635,787.7942602079993,None,787.7942602079993,None,787.7942602079993,None,792.1305919569995,None,792.1305919569995,None,792.1305919569995,None,792.1305919569995,None,,,,,,,,,,,,,,,,,,,,,,,,,,,,,,,,,,,,,,,,,,,,001,177,2020_Feb_27_1030,spring_faces,3.1.5,60.0685457792749,
condition files/Stage1_1.xlsx,,B1,T2,c,"['c', 'm']","['Clue', 'Monopoly']","[-0.15, 0.5]","[0.15, 0.5]",1,1,,,,,,,,,0,10,10,10,0,4,4,1,,,,,,,,,,,,,,,,,,,,,,,,,,,,,,,,,,,,,,,,,,,,,,,,,,,,,,,794.0944180139995,None,794.0944180139995,None,794.0944180139995,None,m,0,0.9914218230005645,795.6285869049998,None,795.6285869049998,None,795.6285869049998,None,796.6780935679999,None,796.6780935679999,None,796.6780935679999,None,796.6780935679999,None,,,,,,,,,,,,,,,,,,,,,,,,,,,,,,,,,,,,,,,,,,,,001,177,2020_Feb_27_1030,spring_faces,3.1.5,60.0685457792749,
condition files/Stage1_1.xlsx,,B3,T3,c,"['c', 'm']","['Clue', 'Monopoly']","[-0.15, 0.5]","[0.15, 0.5]",1,1,,,,,,,,,0,10,10,10,0,5,5,4,,,,,,,,,,,,,,,,,,,,,,,,,,,,,,,,,,,,,,,,,,,,,,,,,,,,,,,798.6444195889999,None,798.6444195889999,None,798.6444195889999,None,c,1,0.8239622279998002,800.180027894,None,800.180027894,None,800.180027894,None,801.0608576369996,None,801.0608576369996,None,801.0608576369996,None,801.0608576369996,None,,,,,,,,,,,,,,,,,,,,,,,,,,,,,,,,,,,,,,,,,,,,001,177,2020_Feb_27_1030,spring_faces,3.1.5,60.0685457792749,
condition files/Stage1_1.xlsx,,T3,B4,c,"['c', 'm']","['Clue', 'Monopoly']","[-0.15, 0.5]","[0.15, 0.5]",1,1,,,,,,,,,0,10,10,10,0,6,6,5,,,,,,,,,,,,,,,,,,,,,,,,,,,,,,,,,,,,,,,,,,,,,,,,,,,,,,,803.0270063419994,None,803.0270063419994,None,803.0270063419994,None,c,1,0.7942139850001695,804.5776917229996,None,804.5776917229996,None,804.5776917229996,None,805.4272292409996,None,805.4272292409996,None,805.4272292409996,None,805.4272292409996,None,,,,,,,,,,,,,,,,,,,,,,,,,,,,,,,,,,,,,,,,,,,,001,177,2020_Feb_27_1030,spring_faces,3.1.5,60.0685457792749,
condition files/Stage1_1.xlsx,,B2,T1,m,"['c', 'm']","['Clue', 'Monopoly']","[-0.15, 0.5]","[0.15, 0.5]",1,1,,,,,,,,,0,10,10,10,0,7,7,2,,,,,,,,,,,,,,,,,,,,,,,,,,,,,,,,,,,,,,,,,,,,,,,,,,,,,,,807.3940658880001,None,807.3940658880001,None,807.3940658880001,None,m,1,1.5637389369994708,808.9282282389995,None,808.9282282389995,None,808.9282282389995,None,810.5612385989998,None,810.5612385989998,None,810.5612385989998,None,810.5612385989998,None,,,,,,,,,,,,,,,,,,,,,,,,,,,,,,,,,,,,,,,,,,,,001,177,2020_Feb_27_1030,spring_faces,3.1.5,60.0685457792749,
condition files/Stage1_2.xlsx,,B1,T1,c,"['c', 'm']","['Clue', 'Monopoly']","[-0.15, 0.5]","[0.15, 0.5]",1,1,,,,,,,,,0,11,11,11,0,0,0,0,,,,,,,,,,,,,,,,,,,,,,,,,,,,,,,,,,,,,,,,,,,,,,,,,,,,,,,812.5276940269996,None,812.5276940269996,None,812.5276940269996,None,m,0,1.1829214359995603,814.061027924,None,814.061027924,None,814.061027924,None,815.2945457779997,None,815.2945457779997,None,815.2945457779997,None,815.2945457779997,None,,,,,,,,,,,,,,,,,,,,,,,,,,,,,,,,,,,,,,,,,,,,001,177,2020_Feb_27_1030,spring_faces,3.1.5,60.0685457792749,
condition files/Stage1_2.xlsx,,B3,T4,m,"['c', 'm']","['Clue', 'Monopoly']","[-0.15, 0.5]","[0.15, 0.5]",1,1,,,,,,,,,0,11,11,11,0,1,1,6,,,,,,,,,,,,,,,,,,,,,,,,,,,,,,,,,,,,,,,,,,,,,,,,,,,,,,,817.2610690809997,None,817.2610690809997,None,817.2610690809997,None,m,1,1.0414270089995625,818.7945898959997,None,818.7945898959997,None,818.7945898959997,None,819.8950437029998,None,819.8950437029998,None,819.8950437029998,None,819.8950437029998,None,,,,,,,,,,,,,,,,,,,,,,,,,,,,,,,,,,,,,,,,,,,,001,177,2020_Feb_27_1030,spring_faces,3.1.5,60.0685457792749,
condition files/Stage1_2.xlsx,,T3,B3,c,"['c', 'm']","['Clue', 'Monopoly']","[-0.15, 0.5]","[0.15, 0.5]",1,1,,,,,,,,,0,11,11,11,0,2,2,4,,,,,,,,,,,,,,,,,,,,,,,,,,,,,,,,,,,,,,,,,,,,,,,,,,,,,,,821.8608090369999,None,821.8608090369999,None,821.8608090369999,None,c,1,0.6790207740004917,823.3969338389998,None,823.3969338389998,None,823.3969338389998,None,824.12985751,None,824.12985751,None,824.12985751,None,824.12985751,None,,,,,,,,,,,,,,,,,,,,,,,,,,,,,,,,,,,,,,,,,,,,001,177,2020_Feb_27_1030,spring_faces,3.1.5,60.0685457792749,
condition files/Stage1_2.xlsx,,T4,B4,m,"['c', 'm']","['Clue', 'Monopoly']","[-0.15, 0.5]","[0.15, 0.5]",1,1,,,,,,,,,0,11,11,11,0,3,3,7,,,,,,,,,,,,,,,,,,,,,,,,,,,,,,,,,,,,,,,,,,,,,,,,,,,,,,,826.0940557169997,None,826.0940557169997,None,826.0940557169997,None,m,1,0.7039399489995048,827.6280361339996,None,827.6280361339996,None,827.6280361339996,None,828.3949778380002,None,828.3949778380002,None,828.3949778380002,None,828.3949778380002,None,,,,,,,,,,,,,,,,,,,,,,,,,,,,,,,,,,,,,,,,,,,,001,177,2020_Feb_27_1030,spring_faces,3.1.5,60.0685457792749,
condition files/Stage1_2.xlsx,,T2,B1,c,"['c', 'm']","['Clue', 'Monopoly']","[-0.15, 0.5]","[0.15, 0.5]",1,1,,,,,,,,,0,11,11,11,0,4,4,1,,,,,,,,,,,,,,,,,,,,,,,,,,,,,,,,,,,,,,,,,,,,,,,,,,,,,,,830.3610521239998,None,830.3610521239998,None,830.3610521239998,None,m,0,2.8044871869997223,831.9115399539996,None,831.9115399539996,None,831.9115399539996,None,834.7776262039997,None,834.7776262039997,None,834.7776262039997,None,834.7776262039997,None,,,,,,,,,,,,,,,,,,,,,,,,,,,,,,,,,,,,,,,,,,,,001,177,2020_Feb_27_1030,spring_faces,3.1.5,60.0685457792749,
condition files/Stage1_2.xlsx,,B4,T3,c,"['c', 'm']","['Clue', 'Monopoly']","[-0.15, 0.5]","[0.15, 0.5]",1,1,,,,,,,,,0,11,11,11,0,5,5,5,,,,,,,,,,,,,,,,,,,,,,,,,,,,,,,,,,,,,,,,,,,,,,,,,,,,,,,836.7439453099996,None,836.7439453099996,None,836.7439453099996,None,c,1,0.8067731849996562,838.2772624789995,None,838.2772624789995,None,838.2772624789995,None,839.1445386400001,None,839.1445386400001,None,839.1445386400001,None,839.1445386400001,None,,,,,,,,,,,,,,,,,,,,,,,,,,,,,,,,,,,,,,,,,,,,001,177,2020_Feb_27_1030,spring_faces,3.1.5,60.0685457792749,
condition files/Stage1_2.xlsx,,B2,T2,m,"['c', 'm']","['Clue', 'Monopoly']","[-0.15, 0.5]","[0.15, 0.5]",1,1,,,,,,,,,0,11,11,11,0,6,6,3,,,,,,,,,,,,,,,,,,,,,,,,,,,,,,,,,,,,,,,,,,,,,,,,,,,,,,,841.1110280140001,None,841.1110280140001,None,841.1110280140001,None,m,1,4.327115640000557,842.6608925749997,None,842.6608925749997,None,842.6608925749997,None,847.047131237,None,847.047131237,None,847.047131237,None,847.047131237,None,,,,,,,,,,,,,,,,,,,,,,,,,,,,,,,,,,,,,,,,,,,,001,177,2020_Feb_27_1030,spring_faces,3.1.5,60.0685457792749,
condition files/Stage1_2.xlsx,,T1,B2,m,"['c', 'm']","['Clue', 'Monopoly']","[-0.15, 0.5]","[0.15, 0.5]",1,1,,,,,,,,,0,11,11,11,0,7,7,2,,,,,,,,,,,,,,,,,,,,,,,,,,,,,,,,,,,,,,,,,,,,,,,,,,,,,,,849.0110449670001,None,849.0110449670001,None,849.0110449670001,None,c,0,1.5786233600001651,850.5613104069998,None,850.5613104069998,None,850.5613104069998,None,852.1948756080001,None,852.1948756080001,None,852.1948756080001,None,852.1948756080001,None,,,,,,,,,,,,,,,,,,,,,,,,,,,,,,,,,,,,,,,,,,,,001,177,2020_Feb_27_1030,spring_faces,3.1.5,60.0685457792749,
,,,,,,,,,,,,,,,,,,,,,,,,,,,,,,,,,,,,,,,,,,,,,,,,,,,,,,,,,,,,,,,,,,,,,,,,,,,,,,,,,,,,,,,,,,,,,,,,,,,,,,,,,,,,,,,,854.178107746,None,space,7.090232761000152,859.1777987639998,None,,,,,,,,,,,,,,,,,,,,,,,,,,,,,,001,177,2020_Feb_27_1030,spring_faces,3.1.5,60.0685457792749,
condition files/Stage2_1.xlsx,,B2,T2,r,"['s', 'r']","['Stratego', 'Risk']","[-0.15, 0.5]","[0.15, 0.5]",1,1,,,,,,,,,,,,,,,,,0,0,0,0,0,0,0,3,,,,,,,,,,,,,,,,,,,,,,,,,,,,,,,,,,,,,,,,,,,,,,,866.3280725889999,None,866.3280725889999,None,866.3280725889999,None,s,0,1.3345822989995213,867.8612940709991,None,867.8612940709991,None,867.8612940709991,None,869.2636111789998,None,869.2636111789998,None,869.2636111789998,None,869.2636111789998,None,,,,,,,,,,,,,,,859.1777987639998,None,,,,,,,,,,,,,,,,,,,,,,,,,,,,001,177,2020_Feb_27_1030,spring_faces,3.1.5,60.0685457792749,
condition files/Stage2_1.xlsx,,T3,B3,s,"['s', 'r']","['Stratego', 'Risk']","[-0.15, 0.5]","[0.15, 0.5]",1,1,,,,,,,,,,,,,,,,,0,0,0,0,0,1,1,4,,,,,,,,,,,,,,,,,,,,,,,,,,,,,,,,,,,,,,,,,,,,,,,871.2276381600004,None,871.2276381600004,None,871.2276381600004,None,r,0,0.45088413300072716,872.7610493970005,None,872.7610493970005,None,872.7610493970005,None,873.2798461500006,None,873.2798461500006,None,873.2798461500006,None,873.2798461500006,None,,,,,,,,,,,,,,,,,,,,,,,,,,,,,,,,,,,,,,,,,,,,001,177,2020_Feb_27_1030,spring_faces,3.1.5,60.0685457792749,
condition files/Stage2_1.xlsx,,B6,T6,r,"['s', 'r']","['Stratego', 'Risk']","[-0.15, 0.5]","[0.15, 0.5]",1,1,,,,,,,,,,,,,,,,,0,0,0,0,0,2,2,1,,,,,,,,,,,,,,,,,,,,,,,,,,,,,,,,,,,,,,,,,,,,,,,875.2440296490004,None,875.2440296490004,None,875.2440296490004,None,r,1,1.0079447489988524,876.8280560949988,None,876.8280560949988,None,876.8280560949988,None,877.8942396479997,None,877.8942396479997,None,877.8942396479997,None,877.8942396479997,None,,,,,,,,,,,,,,,,,,,,,,,,,,,,,,,,,,,,,,,,,,,,001,177,2020_Feb_27_1030,spring_faces,3.1.5,60.0685457792749,
condition files/Stage2_1.xlsx,,T1,B1,s,"['s', 'r']","['Stratego', 'Risk']","[-0.15, 0.5]","[0.15, 0.5]",1,1,,,,,,,,,,,,,,,,,0,0,0,0,0,3,3,2,,,,,,,,,,,,,,,,,,,,,,,,,,,,,,,,,,,,,,,,,,,,,,,879.8610320799999,None,879.8610320799999,None,879.8610320799999,None,s,1,1.0814313410010072,881.3945321319989,None,881.3945321319989,None,881.3945321319989,None,882.5441882289997,None,882.5441882289997,None,882.5441882289997,None,882.5441882289997,None,,,,,,,,,,,,,,,,,,,,,,,,,,,,,,,,,,,,,,,,,,,,001,177,2020_Feb_27_1030,spring_faces,3.1.5,60.0685457792749,
condition files/Stage2_1.xlsx,,B4,T4,r,"['s', 'r']","['Stratego', 'Risk']","[-0.15, 0.5]","[0.15, 0.5]",1,1,,,,,,,,,,,,,,,,,0,0,0,0,0,4,4,5,,,,,,,,,,,,,,,,,,,,,,,,,,,,,,,,,,,,,,,,,,,,,,,884.4939841960004,None,884.4939841960004,None,884.4939841960004,None,r,1,1.2459456130000035,886.0300234049992,None,886.0300234049992,None,886.0300234049992,None,887.3306186259997,None,887.3306186259997,None,887.3306186259997,None,887.3306186259997,None,,,,,,,,,,,,,,,,,,,,,,,,,,,,,,,,,,,,,,,,,,,,001,177,2020_Feb_27_1030,spring_faces,3.1.5,60.0685457792749,
condition files/Stage2_1.xlsx,,T5,B5,s,"['s', 'r']","['Stratego', 'Risk']","[-0.15, 0.5]","[0.15, 0.5]",1,1,,,,,,,,,,,,,,,,,0,0,0,0,0,5,5,0,,,,,,,,,,,,,,,,,,,,,,,,,,,,,,,,,,,,,,,,,,,,,,,889.2944851379998,None,889.2944851379998,None,889.2944851379998,None,r,0,1.1172270070001105,890.894674145,None,890.894674145,None,890.894674145,None,892.0793064440004,None,892.0793064440004,None,892.0793064440004,None,892.0793064440004,None,,,,,,,,,,,,,,,,,,,,,,,,,,,,,,,,,,,,,,,,,,,,001,177,2020_Feb_27_1030,spring_faces,3.1.5,60.0685457792749,
condition files/Stage2_2.xlsx,,T6,B6,r,"['s', 'r']","['Stratego', 'Risk']","[-0.15, 0.5]","[0.15, 0.5]",1,1,,,,,,,,,,,,,,,,,0,1,1,1,0,0,0,1,,,,,,,,,,,,,,,,,,,,,,,,,,,,,,,,,,,,,,,,,,,,,,,894.0609617099999,None,894.0609617099999,None,894.0609617099999,None,s,0,1.377367970000705,895.5946071309991,None,895.5946071309991,None,895.5946071309991,None,897.0446718149997,None,897.0446718149997,None,897.0446718149997,None,897.0446718149997,None,,,,,,,,,,,,,,,,,,,,,,,,,,,,,,,,,,,,,,,,,,,,001,177,2020_Feb_27_1030,spring_faces,3.1.5,60.0685457792749,
condition files/Stage2_2.xlsx,,B5,T5,s,"['s', 'r']","['Stratego', 'Risk']","[-0.15, 0.5]","[0.15, 0.5]",1,1,,,,,,,,,,,,,,,,,0,1,1,1,0,1,1,0,,,,,,,,,,,,,,,,,,,,,,,,,,,,,,,,,,,,,,,,,,,,,,,898.9942578899991,None,898.9942578899991,None,898.9942578899991,None,r,0,0.9548400990006485,900.5291825980003,None,900.5291825980003,None,900.5291825980003,None,901.5614828590005,None,901.5614828590005,None,901.5614828590005,None,901.5614828590005,None,,,,,,,,,,,,,,,,,,,,,,,,,,,,,,,,,,,,,,,,,,,,001,177,2020_Feb_27_1030,spring_faces,3.1.5,60.0685457792749,
condition files/Stage2_2.xlsx,,B3,T3,s,"['s', 'r']","['Stratego', 'Risk']","[-0.15, 0.5]","[0.15, 0.5]",1,1,,,,,,,,,,,,,,,,,0,1,1,1,0,2,2,4,,,,,,,,,,,,,,,,,,,,,,,,,,,,,,,,,,,,,,,,,,,,,,,903.5107914170003,None,903.5107914170003,None,903.5107914170003,None,s,1,0.8391536780000024,905.0447630559993,None,905.0447630559993,None,905.0447630559993,None,905.9444976439991,None,905.9444976439991,None,905.9444976439991,None,905.9444976439991,None,,,,,,,,,,,,,,,,,,,,,,,,,,,,,,,,,,,,,,,,,,,,001,177,2020_Feb_27_1030,spring_faces,3.1.5,60.0685457792749,
condition files/Stage2_2.xlsx,,T2,B2,r,"['s', 'r']","['Stratego', 'Risk']","[-0.15, 0.5]","[0.15, 0.5]",1,1,,,,,,,,,,,,,,,,,0,1,1,1,0,3,3,3,,,,,,,,,,,,,,,,,,,,,,,,,,,,,,,,,,,,,,,,,,,,,,,907.9107679959998,None,907.9107679959998,None,907.9107679959998,None,s,0,0.6785005149995413,909.4614374129997,None,909.4614374129997,None,909.4614374129997,None,910.1961586460002,None,910.1961586460002,None,910.1961586460002,None,910.1961586460002,None,,,,,,,,,,,,,,,,,,,,,,,,,,,,,,,,,,,,,,,,,,,,001,177,2020_Feb_27_1030,spring_faces,3.1.5,60.0685457792749,
condition files/Stage2_2.xlsx,,T4,B4,r,"['s', 'r']","['Stratego', 'Risk']","[-0.15, 0.5]","[0.15, 0.5]",1,1,,,,,,,,,,,,,,,,,0,1,1,1,0,4,4,5,,,,,,,,,,,,,,,,,,,,,,,,,,,,,,,,,,,,,,,,,,,,,,,912.1608145449991,None,912.1608145449991,None,912.1608145449991,None,r,1,0.42857975799961423,913.7113628469997,None,913.7113628469997,None,913.7113628469997,None,914.1943114810001,None,914.1943114810001,None,914.1943114810001,None,914.1943114810001,None,,,,,,,,,,,,,,,,,,,,,,,,,,,,,,,,,,,,,,,,,,,,001,177,2020_Feb_27_1030,spring_faces,3.1.5,60.0685457792749,
condition files/Stage2_2.xlsx,,B1,T1,s,"['s', 'r']","['Stratego', 'Risk']","[-0.15, 0.5]","[0.15, 0.5]",1,1,,,,,,,,,,,,,,,,,0,1,1,1,0,5,5,2,,,,,,,,,,,,,,,,,,,,,,,,,,,,,,,,,,,,,,,,,,,,,,,916.161016783999,None,916.161016783999,None,916.161016783999,None,r,0,0.5716770479994011,917.6963493660005,None,917.6963493660005,None,917.6963493660005,None,918.327747416999,None,918.327747416999,None,918.327747416999,None,918.327747416999,None,,,,,,,,,,,,,,,,,,,,,,,,,,,,,,,,,,,,,,,,,,,,001,177,2020_Feb_27_1030,spring_faces,3.1.5,60.0685457792749,
condition files/Stage2_1.xlsx,,B4,T4,r,"['s', 'r']","['Stratego', 'Risk']","[-0.15, 0.5]","[0.15, 0.5]",1,1,,,,,,,,,,,,,,,,,0,2,2,2,0,0,0,5,,,,,,,,,,,,,,,,,,,,,,,,,,,,,,,,,,,,,,,,,,,,,,,920.3110613240005,None,920.3110613240005,None,920.3110613240005,None,s,0,2.198648162999234,921.8613077219998,None,921.8613077219998,None,921.8613077219998,None,924.1279498240001,None,924.1279498240001,None,924.1279498240001,None,924.1279498240001,None,,,,,,,,,,,,,,,,,,,,,,,,,,,,,,,,,,,,,,,,,,,,001,177,2020_Feb_27_1030,spring_faces,3.1.5,60.0685457792749,
condition files/Stage2_1.xlsx,,T5,B5,s,"['s', 'r']","['Stratego', 'Risk']","[-0.15, 0.5]","[0.15, 0.5]",1,1,,,,,,,,,,,,,,,,,0,2,2,2,0,1,1,0,,,,,,,,,,,,,,,,,,,,,,,,,,,,,,,,,,,,,,,,,,,,,,,926.0778333409999,None,926.0778333409999,None,926.0778333409999,None,r,0,1.519873268000083,927.628081629,None,927.628081629,None,927.628081629,None,929.2123569409996,None,929.2123569409996,None,929.2123569409996,None,929.2123569409996,None,,,,,,,,,,,,,,,,,,,,,,,,,,,,,,,,,,,,,,,,,,,,001,177,2020_Feb_27_1030,spring_faces,3.1.5,60.0685457792749,
condition files/Stage2_1.xlsx,,T1,B1,s,"['s', 'r']","['Stratego', 'Risk']","[-0.15, 0.5]","[0.15, 0.5]",1,1,,,,,,,,,,,,,,,,,0,2,2,2,0,2,2,2,,,,,,,,,,,,,,,,,,,,,,,,,,,,,,,,,,,,,,,,,,,,,,,931.1774603100002,None,931.1774603100002,None,931.1774603100002,None,s,1,0.5160284450012114,932.7118547400005,None,932.7118547400005,None,932.7118547400005,None,933.2773935780006,None,933.2773935780006,None,933.2773935780006,None,933.2773935780006,None,,,,,,,,,,,,,,,,,,,,,,,,,,,,,,,,,,,,,,,,,,,,001,177,2020_Feb_27_1030,spring_faces,3.1.5,60.0685457792749,
condition files/Stage2_1.xlsx,,B2,T2,r,"['s', 'r']","['Stratego', 'Risk']","[-0.15, 0.5]","[0.15, 0.5]",1,1,,,,,,,,,,,,,,,,,0,2,2,2,0,3,3,3,,,,,,,,,,,,,,,,,,,,,,,,,,,,,,,,,,,,,,,,,,,,,,,935.2442503399998,None,935.2442503399998,None,935.2442503399998,None,r,1,0.8488576409999951,936.7791160739998,None,936.7791160739998,None,936.7791160739998,None,937.6945160800005,None,937.6945160800005,None,937.6945160800005,None,937.6945160800005,None,,,,,,,,,,,,,,,,,,,,,,,,,,,,,,,,,,,,,,,,,,,,001,177,2020_Feb_27_1030,spring_faces,3.1.5,60.0685457792749,
condition files/Stage2_1.xlsx,,B6,T6,r,"['s', 'r']","['Stratego', 'Risk']","[-0.15, 0.5]","[0.15, 0.5]",1,1,,,,,,,,,,,,,,,,,0,2,2,2,0,4,4,1,,,,,,,,,,,,,,,,,,,,,,,,,,,,,,,,,,,,,,,,,,,,,,,939.6441803870002,None,939.6441803870002,None,939.6441803870002,None,s,0,0.5291512259991578,941.1787313019995,None,941.1787313019995,None,941.1787313019995,None,941.7613863000006,None,941.7613863000006,None,941.7613863000006,None,941.7613863000006,None,,,,,,,,,,,,,,,,,,,,,,,,,,,,,,,,,,,,,,,,,,,,001,177,2020_Feb_27_1030,spring_faces,3.1.5,60.0685457792749,
condition files/Stage2_1.xlsx,,T3,B3,s,"['s', 'r']","['Stratego', 'Risk']","[-0.15, 0.5]","[0.15, 0.5]",1,1,,,,,,,,,,,,,,,,,0,2,2,2,0,5,5,4,,,,,,,,,,,,,,,,,,,,,,,,,,,,,,,,,,,,,,,,,,,,,,,943.7280521119992,None,943.7280521119992,None,943.7280521119992,None,r,0,0.30192520699893066,945.2779894659998,None,945.2779894659998,None,945.2779894659998,None,945.6465249579996,None,945.6465249579996,None,945.6465249579996,None,945.6465249579996,None,,,,,,,,,,,,,,,,,,,,,,,,,,,,,,,,,,,,,,,,,,,,001,177,2020_Feb_27_1030,spring_faces,3.1.5,60.0685457792749,
condition files/Stage2_2.xlsx,,B3,T3,s,"['s', 'r']","['Stratego', 'Risk']","[-0.15, 0.5]","[0.15, 0.5]",1,1,,,,,,,,,,,,,,,,,0,3,3,3,0,0,0,4,,,,,,,,,,,,,,,,,,,,,,,,,,,,,,,,,,,,,,,,,,,,,,,947.6280440350001,None,947.6280440350001,None,947.6280440350001,None,s,1,0.2901044959999126,949.1619338639994,None,949.1619338639994,None,949.1619338639994,None,949.5117035370004,None,949.5117035370004,None,949.5117035370004,None,949.5117035370004,None,,,,,,,,,,,,,,,,,,,,,,,,,,,,,,,,,,,,,,,,,,,,001,177,2020_Feb_27_1030,spring_faces,3.1.5,60.0685457792749,
condition files/Stage2_2.xlsx,,T2,B2,r,"['s', 'r']","['Stratego', 'Risk']","[-0.15, 0.5]","[0.15, 0.5]",1,1,,,,,,,,,,,,,,,,,0,3,3,3,0,1,1,3,,,,,,,,,,,,,,,,,,,,,,,,,,,,,,,,,,,,,,,,,,,,,,,951.4778143129988,None,951.4778143129988,None,951.4778143129988,None,s,0,0.3920003319999523,953.0280154890006,None,953.0280154890006,None,953.0280154890006,None,953.4789170509994,None,953.4789170509994,None,953.4789170509994,None,953.4789170509994,None,,,,,,,,,,,,,,,,,,,,,,,,,,,,,,,,,,,,,,,,,,,,001,177,2020_Feb_27_1030,spring_faces,3.1.5,60.0685457792749,
condition files/Stage2_2.xlsx,,T4,B4,r,"['s', 'r']","['Stratego', 'Risk']","[-0.15, 0.5]","[0.15, 0.5]",1,1,,,,,,,,,,,,,,,,,0,3,3,3,0,2,2,5,,,,,,,,,,,,,,,,,,,,,,,,,,,,,,,,,,,,,,,,,,,,,,,955.4439510449993,None,955.4439510449993,None,955.4439510449993,None,r,1,0.217473444999996,956.9784574969999,None,956.9784574969999,None,956.9784574969999,None,957.2612194129997,None,957.2612194129997,None,957.2612194129997,None,957.2612194129997,None,,,,,,,,,,,,,,,,,,,,,,,,,,,,,,,,,,,,,,,,,,,,001,177,2020_Feb_27_1030,spring_faces,3.1.5,60.0685457792749,
condition files/Stage2_2.xlsx,,B1,T1,s,"['s', 'r']","['Stratego', 'Risk']","[-0.15, 0.5]","[0.15, 0.5]",1,1,,,,,,,,,,,,,,,,,0,3,3,3,0,3,3,2,,,,,,,,,,,,,,,,,,,,,,,,,,,,,,,,,,,,,,,,,,,,,,,959.2276970189996,None,959.2276970189996,None,959.2276970189996,None,r,0,0.5147900720003236,960.7611805119996,None,960.7611805119996,None,960.7611805119996,None,961.3299751819995,None,961.3299751819995,None,961.3299751819995,None,961.3299751819995,None,,,,,,,,,,,,,,,,,,,,,,,,,,,,,,,,,,,,,,,,,,,,001,177,2020_Feb_27_1030,spring_faces,3.1.5,60.0685457792749,
condition files/Stage2_2.xlsx,,T6,B6,r,"['s', 'r']","['Stratego', 'Risk']","[-0.15, 0.5]","[0.15, 0.5]",1,1,,,,,,,,,,,,,,,,,0,3,3,3,0,4,4,1,,,,,,,,,,,,,,,,,,,,,,,,,,,,,,,,,,,,,,,,,,,,,,,963.2944396610001,None,963.2944396610001,None,963.2944396610001,None,r,1,0.2392064070008928,964.8448030849995,None,964.8448030849995,None,964.8448030849995,None,965.1459055060004,None,965.1459055060004,None,965.1459055060004,None,965.1459055060004,None,,,,,,,,,,,,,,,,,,,,,,,,,,,,,,,,,,,,,,,,,,,,001,177,2020_Feb_27_1030,spring_faces,3.1.5,60.0685457792749,
condition files/Stage2_2.xlsx,,B5,T5,s,"['s', 'r']","['Stratego', 'Risk']","[-0.15, 0.5]","[0.15, 0.5]",1,1,,,,,,,,,,,,,,,,,0,3,3,3,0,5,5,0,,,,,,,,,,,,,,,,,,,,,,,,,,,,,,,,,,,,,,,,,,,,,,,967.1105751470004,None,967.1105751470004,None,967.1105751470004,None,s,1,0.5505238359983196,968.6453964920001,None,968.6453964920001,None,968.6453964920001,None,969.2632210399988,None,969.2632210399988,None,969.2632210399988,None,969.2632210399988,None,,,,,,,,,,,,,,,,,,,,,,,,,,,,,,,,,,,,,,,,,,,,001,177,2020_Feb_27_1030,spring_faces,3.1.5,60.0685457792749,
condition files/Stage2_1.xlsx,,B2,T2,r,"['s', 'r']","['Stratego', 'Risk']","[-0.15, 0.5]","[0.15, 0.5]",1,1,,,,,,,,,,,,,,,,,0,4,4,4,0,0,0,3,,,,,,,,,,,,,,,,,,,,,,,,,,,,,,,,,,,,,,,,,,,,,,,971.2443461559997,None,971.2443461559997,None,971.2443461559997,None,s,0,0.41703372099982516,972.7948597880004,None,972.7948597880004,None,972.7948597880004,None,973.2945308549988,None,973.2945308549988,None,973.2945308549988,None,973.2945308549988,None,,,,,,,,,,,,,,,,,,,,,,,,,,,,,,,,,,,,,,,,,,,,001,177,2020_Feb_27_1030,spring_faces,3.1.5,60.0685457792749,
condition files/Stage2_1.xlsx,,T1,B1,s,"['s', 'r']","['Stratego', 'Risk']","[-0.15, 0.5]","[0.15, 0.5]",1,1,,,,,,,,,,,,,,,,,0,4,4,4,0,1,1,2,,,,,,,,,,,,,,,,,,,,,,,,,,,,,,,,,,,,,,,,,,,,,,,975.2444198329995,None,975.2444198329995,None,975.2444198329995,None,s,1,0.2901551280010608,976.7778735020001,None,976.7778735020001,None,976.7778735020001,None,977.1278503649992,None,977.1278503649992,None,977.1278503649992,None,977.1278503649992,None,,,,,,,,,,,,,,,,,,,,,,,,,,,,,,,,,,,,,,,,,,,,001,177,2020_Feb_27_1030,spring_faces,3.1.5,60.0685457792749,
condition files/Stage2_1.xlsx,,B4,T4,r,"['s', 'r']","['Stratego', 'Risk']","[-0.15, 0.5]","[0.15, 0.5]",1,1,,,,,,,,,,,,,,,,,0,4,4,4,0,2,2,5,,,,,,,,,,,,,,,,,,,,,,,,,,,,,,,,,,,,,,,,,,,,,,,979.0944188909998,None,979.0944188909998,None,979.0944188909998,None,r,1,0.2792810750015633,980.6446755349989,None,980.6446755349989,None,980.6446755349989,None,980.9792118519999,None,980.9792118519999,None,980.9792118519999,None,980.9792118519999,None,,,,,,,,,,,,,,,,,,,,,,,,,,,,,,,,,,,,,,,,,,,,001,177,2020_Feb_27_1030,spring_faces,3.1.5,60.0685457792749,
condition files/Stage2_1.xlsx,,T3,B3,s,"['s', 'r']","['Stratego', 'Risk']","[-0.15, 0.5]","[0.15, 0.5]",1,1,,,,,,,,,,,,,,,,,0,4,4,4,0,3,3,4,,,,,,,,,,,,,,,,,,,,,,,,,,,,,,,,,,,,,,,,,,,,,,,982.9438870140002,None,982.9438870140002,None,982.9438870140002,None,s,1,0.3798591109989502,984.4801048459994,None,984.4801048459994,None,984.4801048459994,None,984.9135472429989,None,984.9135472429989,None,984.9135472429989,None,984.9135472429989,None,,,,,,,,,,,,,,,,,,,,,,,,,,,,,,,,,,,,,,,,,,,,001,177,2020_Feb_27_1030,spring_faces,3.1.5,60.0685457792749,
