condsFile,subStage,cue1,cue2,correct,responseKeys,responseNames,cue1Position,cue2Position,cue1Opacity,cue2Opacity,stageLoop0.thisRepN,stageLoop0.thisTrialN,stageLoop0.thisN,stageLoop0.thisIndex,blockLoop0.thisRepN,blockLoop0.thisTrialN,blockLoop0.thisN,blockLoop0.thisIndex,stage1Loop.thisRepN,stage1Loop.thisTrialN,stage1Loop.thisN,stage1Loop.thisIndex,blockLoop1.thisRepN,blockLoop1.thisTrialN,blockLoop1.thisN,blockLoop1.thisIndex,stage2Loop.thisRepN,stage2Loop.thisTrialN,stage2Loop.thisN,stage2Loop.thisIndex,blockLoop2.thisRepN,blockLoop2.thisTrialN,blockLoop2.thisN,blockLoop2.thisIndex,testLoop.thisRepN,testLoop.thisTrialN,testLoop.thisN,testLoop.thisIndex,blockLoopTest.thisRepN,blockLoopTest.thisTrialN,blockLoopTest.thisN,blockLoopTest.thisIndex,cuePics,id_instr_text.started,id_instr_text.stopped,space_to_continue_2.started,space_to_continue_2.stopped,end_instructions_resp_3.keys,end_instructions_resp_3.rt,end_instructions_resp_3.started,end_instructions_resp_3.stopped,id_input_instr.started,id_input_instr.stopped,id_input_rect.started,id_input_rect.stopped,id_input_resp.keys,id_input_resp.rt,id_input_resp.started,id_input_resp.stopped,sonaID,id_input_text.started,id_input_text.stopped,final_text.started,final_text.stopped,instructions.started,instructions.stopped,end_instructions_resp.keys,end_instructions_resp.rt,end_instructions_resp.started,end_instructions_resp.stopped,space_to_continue.started,space_to_continue.stopped,instructions_stage0.started,instructions_stage0.stopped,end_instructions_resp_stage0.keys,end_instructions_resp_stage0.rt,end_instructions_resp_stage0.started,end_instructions_resp_stage0.stopped,space_to_continue_stage0.started,space_to_continue_stage0.stopped,text.started,text.stopped,resp_text1.started,resp_text1.stopped,resp_text2.started,resp_text2.stopped,trial_resp.keys,trial_resp.corr,trial_resp.rt,trial_resp.started,trial_resp.stopped,cue1Image.started,cue1Image.stopped,cue2Image.started,cue2Image.stopped,cue1Image_fb.started,cue1Image_fb.stopped,cue2Image_fb.started,cue2Image_fb.stopped,fb_text_answer.started,fb_text_answer.stopped,feedback_image.started,feedback_image.stopped,instructions_stage1.started,instructions_stage1.stopped,end_instructions_resp_stage1.keys,end_instructions_resp_stage1.rt,end_instructions_resp_stage1.started,end_instructions_resp_stage1.stopped,space_to_continue_stage1.started,space_to_continue_stage1.stopped,instructions_2.started,instructions_2.stopped,end_instructions_resp_2.keys,end_instructions_resp_2.rt,end_instructions_resp_2.started,end_instructions_resp_2.stopped,press_space_to_continue_stage2.started,press_space_to_continue_stage2.stopped,instructions_testStage1.started,instructions_testStage1.stopped,end_instructions_resp_test1.keys,end_instructions_resp_test1.rt,end_instructions_resp_test1.started,end_instructions_resp_test1.stopped,press_space_to_continue_test1.started,press_space_to_continue_test1.stopped,cue1Image_testChoice.started,cue1Image_testChoice.stopped,cue2Image_testChoice.started,cue2Image_testChoice.stopped,test_resp.keys,test_resp.corr,test_resp.rt,test_resp.started,test_resp.stopped,cue1Image_testConf.started,cue1Image_testConf.stopped,cue2Image_testConf.started,cue2Image_testConf.stopped,conf_reminder.started,conf_reminder.stopped,conf_rating.response,conf_rating.rt,conf_rating.started,conf_rating.stopped,session,participant,date,expName,psychopyVersion,frameRate,
,,,,,,,,,,,,,,,,,,,,,,,,,,,,,,,,,,,,,,,,,,,"{'none': 'pictures/20M_AN_C.png', 'alpha': 'pictures/SHINEd_pepper.png', 'beta': 'pictures/SHINEd_melon.png', 'theta': 'pictures/SHINEd_apple.png', 'phi': 'pictures/SHINEd_pear.png', 'T1': 'pictures/22M_AN_C.png', 'T2': 'pictures/32M_AN_C.png', 'T3': 'pictures/38M_AN_C.png', 'T4': 'pictures/34M_AN_C.png', 'T5': 'pictures/23M_AN_C.png', 'T6': 'pictures/26M_AN_C.png', 'B1': 'pictures/20M_NE_C.png', 'B2': 'pictures/36M_NE_C.png', 'B3': 'pictures/25M_NE_C.png', 'B4': 'pictures/37M_NE_C.png', 'B5': 'pictures/33M_NE_C.png', 'B6': 'pictures/31M_NE_C.png'}",11.451895090000107,None,16.435006192999936,None,space,81.1447981149995,16.435006192999936,None,,,,,,,,,,,,,,,,,,,,,,,,,,,,,,,,,,,,,,,,,,,,,,,,,,,,,,,,,,,,,,,,,,,,,,,,,,,,,,,,,,,,,,,,,,,,,,,,001,179,2020_Feb_27_1054,spring_faces,3.1.5,60.0347992915847,
,,,,,,,,,,,,,,,,,,,,,,,,,,,,,,,,,,,,,,,,,,,,,,,,,,,,97.95233864000147,None,97.95233864000147,None,"['0', '5', '0', '1', 't', 'r', 'b', 'o', 'u', '1', '2', '3', 'backspace', '1', '2', 't', 'r', 'backspace', 'backspace', 'a', 'b', 'b', 'o', 'u', 'backspace', '1', '2', '3', '4', '5', '6', '7', 'backspace', 'backspace', 'backspace', 'backspace', 'backspace', 'backspace', 'backspace', '0', '5', '0', '1', 't', 'r', 'b', 'o', 'u']","[10.571482848999949, 11.53142637199926, 15.643471888000931, 16.043475267999384, 21.995439848000387, 22.155489700000544, 27.739496714999405, 28.011419790000218, 28.091541965999568, 37.723543555001015, 37.819489777000854, 38.18750010599979, 40.3794001389997, 44.13949765899997, 44.31547267799942, 45.45142456100075, 45.547471273001065, 46.71547753300001, 46.87551420999989, 47.483412945000964, 47.947473098000046, 51.73952722499962, 51.89945167699989, 51.97943975000089, 54.20353668200005, 58.10753226000088, 58.251475056000345, 58.53951876000065, 59.25953776300048, 60.57149505000052, 60.971491082000284, 61.22743287999947, 68.60350199400091, 69.77149969399943, 69.96346986800017, 70.13947115600058, 70.29941343700011, 70.45954320300007, 70.61948083800053, 74.79543835699951, 75.17960245699942, 77.6595428569999, 78.25145223000072, 80.53949717199976, 80.61950327200066, 81.89948724699934, 82.10754555600033, 82.17150440099977]",97.95233864000147,None,,,,,,,,,,,,,,,,,,,,,,,,,,,,,,,,,,,,,,,,,,,,,,,,,,,,,,,,,,,,,,,,,,,,,,,,,,,,,,,,,,,,,,,,001,179,2020_Feb_27_1054,spring_faces,3.1.5,60.0347992915847,
,,,,,,,,,,,,,,,,,,,,,,,,,,,,,,,,,,,,,,,,,,,,,,,,,,,,,,,,,,,,0501trbou,97.95233864000147,None,97.95233864000147,None,185.20148079800128,None,space,3.0741511069991247,190.2017320670002,None,,,,,,,,,,,,,,,,,,,,,,,,,,,,,,,,,,,,,,,,,,,,,,,,,,,,,,,,,,,,,,,,,,,,,,,,,,,,,001,179,2020_Feb_27_1054,spring_faces,3.1.5,60.0347992915847,
,,,,,,,,,,,,,,,,,,,,,,,,,,,,,,,,,,,,,,,,,,,,,,,,,,,,,,,,,,,,,,,,,,,,,,,190.2017320670002,None,193.31853779700032,None,space,2.76537407899923,198.3184453140002,None,,,,,,,,,,,,,,,,,,,,,,,,,,,,,,,,,,,,,,,,,,,,,,,,,,,,,,,,,,,,,,,,,,,,,001,179,2020_Feb_27_1054,spring_faces,3.1.5,60.0347992915847,
condition files/Stage0a.xlsx,0a,alpha,none,h,"['h', 'g']","['Chess', 'Go']","[0, 0.5]","[0, 0]",1,0,0,0,0,0,0,0,0,0,,,,,,,,,,,,,,,,,,,,,,,,,,,,,,,,,,,,,,,,,,,,,,,,,,,,,,,,,,,,,198.3184453140002,None,201.13466389400128,None,201.13466389400128,None,201.13466389400128,None,g,0,4.15730217700002,202.71857060300135,None,202.71857060300135,None,202.71857060300135,None,206.9520741060005,None,206.9520741060005,None,206.9520741060005,None,206.9520741060005,None,,,,,,,,,,,,,,,,,,,,,,,,,,,,,,,,,,,,,,,,,,,,001,179,2020_Feb_27_1054,spring_faces,3.1.5,60.0347992915847,
condition files/Stage0a.xlsx,0a,beta,none,g,"['h', 'g']","['Chess', 'Go']","[0, 0.5]","[0, 0]",1,0,0,0,0,0,0,1,1,1,,,,,,,,,,,,,,,,,,,,,,,,,,,,,,,,,,,,,,,,,,,,,,,,,,,,,,,,,,,,,,,208.90166436400068,None,208.90166436400068,None,208.90166436400068,None,h,0,2.0086433249998663,210.43523318000007,None,210.43523318000007,None,210.43523318000007,None,212.50212057000135,None,212.50212057000135,None,212.50212057000135,None,212.50212057000135,None,,,,,,,,,,,,,,,,,,,,,,,,,,,,,,,,,,,,,,,,,,,,001,179,2020_Feb_27_1054,spring_faces,3.1.5,60.0347992915847,
condition files/Stage0a.xlsx,0a,beta,none,g,"['h', 'g']","['Chess', 'Go']","[0, 0.5]","[0, 0]",1,0,0,1,1,1,0,0,0,1,,,,,,,,,,,,,,,,,,,,,,,,,,,,,,,,,,,,,,,,,,,,,,,,,,,,,,,,,,,,,,,214.48509039000055,None,214.48509039000055,None,214.48509039000055,None,g,1,1.6581895590006752,216.01768229500158,None,216.01768229500158,None,216.01768229500158,None,217.735198974,None,217.735198974,None,217.735198974,None,217.735198974,None,,,,,,,,,,,,,,,,,,,,,,,,,,,,,,,,,,,,,,,,,,,,001,179,2020_Feb_27_1054,spring_faces,3.1.5,60.0347992915847,
condition files/Stage0a.xlsx,0a,alpha,none,h,"['h', 'g']","['Chess', 'Go']","[0, 0.5]","[0, 0]",1,0,0,1,1,1,0,1,1,0,,,,,,,,,,,,,,,,,,,,,,,,,,,,,,,,,,,,,,,,,,,,,,,,,,,,,,,,,,,,,,,219.70098477100146,None,219.70098477100146,None,219.70098477100146,None,h,1,1.1765609029989719,221.23530961800134,None,221.23530961800134,None,221.23530961800134,None,222.46820823800044,None,222.46820823800044,None,222.46820823800044,None,222.46820823800044,None,,,,,,,,,,,,,,,,,,,,,,,,,,,,,,,,,,,,,,,,,,,,001,179,2020_Feb_27_1054,spring_faces,3.1.5,60.0347992915847,
condition files/Stage0a.xlsx,0a,beta,none,g,"['h', 'g']","['Chess', 'Go']","[0, 0.5]","[0, 0]",1,0,0,2,2,2,0,0,0,1,,,,,,,,,,,,,,,,,,,,,,,,,,,,,,,,,,,,,,,,,,,,,,,,,,,,,,,,,,,,,,,224.45199123400016,None,224.45199123400016,None,224.45199123400016,None,g,1,1.5144202840001526,225.98539115400126,None,225.98539115400126,None,225.98539115400126,None,227.55182117500044,None,227.55182117500044,None,227.55182117500044,None,227.55182117500044,None,,,,,,,,,,,,,,,,,,,,,,,,,,,,,,,,,,,,,,,,,,,,001,179,2020_Feb_27_1054,spring_faces,3.1.5,60.0347992915847,
condition files/Stage0a.xlsx,0a,alpha,none,h,"['h', 'g']","['Chess', 'Go']","[0, 0.5]","[0, 0]",1,0,0,2,2,2,0,1,1,0,,,,,,,,,,,,,,,,,,,,,,,,,,,,,,,,,,,,,,,,,,,,,,,,,,,,,,,,,,,,,,,229.51819575100126,None,229.51819575100126,None,229.51819575100126,None,h,1,0.5122193679999327,231.05156137300037,None,231.05156137300037,None,231.05156137300037,None,231.61784346600143,None,231.61784346600143,None,231.61784346600143,None,231.61784346600143,None,,,,,,,,,,,,,,,,,,,,,,,,,,,,,,,,,,,,,,,,,,,,001,179,2020_Feb_27_1054,spring_faces,3.1.5,60.0347992915847,
condition files/Stage0a.xlsx,0a,alpha,none,h,"['h', 'g']","['Chess', 'Go']","[0, 0.5]","[0, 0]",1,0,0,3,3,3,0,0,0,0,,,,,,,,,,,,,,,,,,,,,,,,,,,,,,,,,,,,,,,,,,,,,,,,,,,,,,,,,,,,,,,233.60203492600158,None,233.60203492600158,None,233.60203492600158,None,h,1,1.052893893998771,235.13492044099985,None,235.13492044099985,None,235.13492044099985,None,236.25189155500084,None,236.25189155500084,None,236.25189155500084,None,236.25189155500084,None,,,,,,,,,,,,,,,,,,,,,,,,,,,,,,,,,,,,,,,,,,,,001,179,2020_Feb_27_1054,spring_faces,3.1.5,60.0347992915847,
condition files/Stage0a.xlsx,0a,beta,none,g,"['h', 'g']","['Chess', 'Go']","[0, 0.5]","[0, 0]",1,0,0,3,3,3,0,1,1,1,,,,,,,,,,,,,,,,,,,,,,,,,,,,,,,,,,,,,,,,,,,,,,,,,,,,,,,,,,,,,,,238.21813729400128,None,238.21813729400128,None,238.21813729400128,None,g,1,0.6435630569994828,239.75224545499987,None,239.75224545499987,None,239.75224545499987,None,240.45138381800098,None,240.45138381800098,None,240.45138381800098,None,240.45138381800098,None,,,,,,,,,,,,,,,,,,,,,,,,,,,,,,,,,,,,,,,,,,,,001,179,2020_Feb_27_1054,spring_faces,3.1.5,60.0347992915847,
condition files/Stage0a.xlsx,0a,beta,none,g,"['h', 'g']","['Chess', 'Go']","[0, 0.5]","[0, 0]",1,0,0,4,4,4,0,0,0,1,,,,,,,,,,,,,,,,,,,,,,,,,,,,,,,,,,,,,,,,,,,,,,,,,,,,,,,,,,,,,,,242.43537401499998,None,242.43537401499998,None,242.43537401499998,None,g,1,1.5474159250006778,243.96840881700155,None,243.96840881700155,None,243.96840881700155,None,245.56819926900062,None,245.56819926900062,None,245.56819926900062,None,245.56819926900062,None,,,,,,,,,,,,,,,,,,,,,,,,,,,,,,,,,,,,,,,,,,,,001,179,2020_Feb_27_1054,spring_faces,3.1.5,60.0347992915847,
condition files/Stage0a.xlsx,0a,alpha,none,h,"['h', 'g']","['Chess', 'Go']","[0, 0.5]","[0, 0]",1,0,0,4,4,4,0,1,1,0,,,,,,,,,,,,,,,,,,,,,,,,,,,,,,,,,,,,,,,,,,,,,,,,,,,,,,,,,,,,,,,247.53479204200084,None,247.53479204200084,None,247.53479204200084,None,h,1,0.5754820189995371,249.06837519500004,None,249.06837519500004,None,249.06837519500004,None,249.70130381000126,None,249.70130381000126,None,249.70130381000126,None,249.70130381000126,None,,,,,,,,,,,,,,,,,,,,,,,,,,,,,,,,,,,,,,,,,,,,001,179,2020_Feb_27_1054,spring_faces,3.1.5,60.0347992915847,
condition files/Stage0a.xlsx,0a,alpha,none,h,"['h', 'g']","['Chess', 'Go']","[0, 0.5]","[0, 0]",1,0,0,5,5,5,0,0,0,0,,,,,,,,,,,,,,,,,,,,,,,,,,,,,,,,,,,,,,,,,,,,,,,,,,,,,,,,,,,,,,,251.6848624459999,None,251.6848624459999,None,251.6848624459999,None,h,1,0.7616615320002893,253.21814229600022,None,253.21814229600022,None,253.21814229600022,None,254.03533274300025,None,254.03533274300025,None,254.03533274300025,None,254.03533274300025,None,,,,,,,,,,,,,,,,,,,,,,,,,,,,,,,,,,,,,,,,,,,,001,179,2020_Feb_27_1054,spring_faces,3.1.5,60.0347992915847,
condition files/Stage0a.xlsx,0a,beta,none,g,"['h', 'g']","['Chess', 'Go']","[0, 0.5]","[0, 0]",1,0,0,5,5,5,0,1,1,1,,,,,,,,,,,,,,,,,,,,,,,,,,,,,,,,,,,,,,,,,,,,,,,,,,,,,,,,,,,,,,,256.0010972230011,None,256.0010972230011,None,256.0010972230011,None,g,1,0.9886243569999351,257.535187681,None,257.535187681,None,257.535187681,None,258.58508762400015,None,258.58508762400015,None,258.58508762400015,None,258.58508762400015,None,,,,,,,,,,,,,,,,,,,,,,,,,,,,,,,,,,,,,,,,,,,,001,179,2020_Feb_27_1054,spring_faces,3.1.5,60.0347992915847,
condition files/Stage0b_1.xlsx,0b,alpha,none,h,"['h', 'g']","['Chess', 'Go']","[-0.15, 0.5]","[0.15, 0.5]",1,0,0,6,6,6,0,0,0,0,,,,,,,,,,,,,,,,,,,,,,,,,,,,,,,,,,,,,,,,,,,,,,,,,,,,,,,,,,,,,,,260.56875600900094,None,260.56875600900094,None,260.56875600900094,None,h,1,0.8708515700000135,262.1009811570002,None,262.1009811570002,None,262.1009811570002,None,263.03490693599997,None,263.03490693599997,None,263.03490693599997,None,263.03490693599997,None,,,,,,,,,,,,,,,,,,,,,,,,,,,,,,,,,,,,,,,,,,,,001,179,2020_Feb_27_1054,spring_faces,3.1.5,60.0347992915847,
condition files/Stage0b_1.xlsx,0b,none,beta,g,"['h', 'g']","['Chess', 'Go']","[-0.15, 0.5]","[0.15, 0.5]",0,1,0,6,6,6,0,1,1,1,,,,,,,,,,,,,,,,,,,,,,,,,,,,,,,,,,,,,,,,,,,,,,,,,,,,,,,,,,,,,,,265.0015420030013,None,265.0015420030013,None,265.0015420030013,None,g,1,0.7365268260000448,266.5393251080004,None,266.5393251080004,None,266.5393251080004,None,267.3519339510003,None,267.3519339510003,None,267.3519339510003,None,267.3519339510003,None,,,,,,,,,,,,,,,,,,,,,,,,,,,,,,,,,,,,,,,,,,,,001,179,2020_Feb_27_1054,spring_faces,3.1.5,60.0347992915847,
condition files/Stage0b_2.xlsx,0b,none,alpha,h,"['h', 'g']","['Chess', 'Go']","[-0.15, 0.5]","[0.15, 0.5]",0,1,0,7,7,7,0,0,0,0,,,,,,,,,,,,,,,,,,,,,,,,,,,,,,,,,,,,,,,,,,,,,,,,,,,,,,,,,,,,,,,269.31888047100074,None,269.31888047100074,None,269.31888047100074,None,h,1,0.5999853480007005,270.8518484410015,None,270.8518484410015,None,270.8518484410015,None,271.5017386610016,None,271.5017386610016,None,271.5017386610016,None,271.5017386610016,None,,,,,,,,,,,,,,,,,,,,,,,,,,,,,,,,,,,,,,,,,,,,001,179,2020_Feb_27_1054,spring_faces,3.1.5,60.0347992915847,
condition files/Stage0b_2.xlsx,0b,beta,none,g,"['h', 'g']","['Chess', 'Go']","[-0.15, 0.5]","[0.15, 0.5]",1,0,0,7,7,7,0,1,1,1,,,,,,,,,,,,,,,,,,,,,,,,,,,,,,,,,,,,,,,,,,,,,,,,,,,,,,,,,,,,,,,273.46738856900083,None,273.46738856900083,None,273.46738856900083,None,g,1,0.6730268930004968,275.0188053040001,None,275.0188053040001,None,275.0188053040001,None,275.76874495500124,None,275.76874495500124,None,275.76874495500124,None,275.76874495500124,None,,,,,,,,,,,,,,,,,,,,,,,,,,,,,,,,,,,,,,,,,,,,001,179,2020_Feb_27_1054,spring_faces,3.1.5,60.0347992915847,
condition files/Stage0b_1.xlsx,0b,alpha,none,h,"['h', 'g']","['Chess', 'Go']","[-0.15, 0.5]","[0.15, 0.5]",1,0,0,8,8,8,0,0,0,0,,,,,,,,,,,,,,,,,,,,,,,,,,,,,,,,,,,,,,,,,,,,,,,,,,,,,,,,,,,,,,,277.735278438,None,277.735278438,None,277.735278438,None,h,1,0.5993771459998243,279.2684386560013,None,279.2684386560013,None,279.2684386560013,None,279.9180757990016,None,279.9180757990016,None,279.9180757990016,None,279.9180757990016,None,,,,,,,,,,,,,,,,,,,,,,,,,,,,,,,,,,,,,,,,,,,,001,179,2020_Feb_27_1054,spring_faces,3.1.5,60.0347992915847,
condition files/Stage0b_1.xlsx,0b,none,beta,g,"['h', 'g']","['Chess', 'Go']","[-0.15, 0.5]","[0.15, 0.5]",0,1,0,8,8,8,0,1,1,1,,,,,,,,,,,,,,,,,,,,,,,,,,,,,,,,,,,,,,,,,,,,,,,,,,,,,,,,,,,,,,,281.8843294670005,None,281.8843294670005,None,281.8843294670005,None,g,1,0.7845680030004587,283.43520436700055,None,283.43520436700055,None,283.43520436700055,None,284.2899405670014,None,284.2899405670014,None,284.2899405670014,None,284.2899405670014,None,,,,,,,,,,,,,,,,,,,,,,,,,,,,,,,,,,,,,,,,,,,,001,179,2020_Feb_27_1054,spring_faces,3.1.5,60.0347992915847,
condition files/Stage0b_2.xlsx,0b,none,alpha,h,"['h', 'g']","['Chess', 'Go']","[-0.15, 0.5]","[0.15, 0.5]",0,1,0,9,9,9,0,0,0,0,,,,,,,,,,,,,,,,,,,,,,,,,,,,,,,,,,,,,,,,,,,,,,,,,,,,,,,,,,,,,,,286.26854783199997,None,286.26854783199997,None,286.26854783199997,None,h,1,0.5936981240010937,287.8021154350008,None,287.8021154350008,None,287.8021154350008,None,288.45086262100085,None,288.45086262100085,None,288.45086262100085,None,288.45086262100085,None,,,,,,,,,,,,,,,,,,,,,,,,,,,,,,,,,,,,,,,,,,,,001,179,2020_Feb_27_1054,spring_faces,3.1.5,60.0347992915847,
condition files/Stage0b_2.xlsx,0b,beta,none,g,"['h', 'g']","['Chess', 'Go']","[-0.15, 0.5]","[0.15, 0.5]",1,0,0,9,9,9,0,1,1,1,,,,,,,,,,,,,,,,,,,,,,,,,,,,,,,,,,,,,,,,,,,,,,,,,,,,,,,,,,,,,,,290.4182555690004,None,290.4182555690004,None,290.4182555690004,None,g,1,0.7635270110004058,291.96844913899986,None,291.96844913899986,None,291.96844913899986,None,292.7887938950007,None,292.7887938950007,None,292.7887938950007,None,292.7887938950007,None,,,,,,,,,,,,,,,,,,,,,,,,,,,,,,,,,,,,,,,,,,,,001,179,2020_Feb_27_1054,spring_faces,3.1.5,60.0347992915847,
condition files/Stage0b_1.xlsx,0b,alpha,none,h,"['h', 'g']","['Chess', 'Go']","[-0.15, 0.5]","[0.15, 0.5]",1,0,0,10,10,10,0,0,0,0,,,,,,,,,,,,,,,,,,,,,,,,,,,,,,,,,,,,,,,,,,,,,,,,,,,,,,,,,,,,,,,294.7685291580001,None,294.7685291580001,None,294.7685291580001,None,h,1,0.6841610809988197,296.30365709800026,None,296.30365709800026,None,296.30365709800026,None,297.0514021430008,None,297.0514021430008,None,297.0514021430008,None,297.0514021430008,None,,,,,,,,,,,,,,,,,,,,,,,,,,,,,,,,,,,,,,,,,,,,001,179,2020_Feb_27_1054,spring_faces,3.1.5,60.0347992915847,
condition files/Stage0b_1.xlsx,0b,none,beta,g,"['h', 'g']","['Chess', 'Go']","[-0.15, 0.5]","[0.15, 0.5]",0,1,0,10,10,10,0,1,1,1,,,,,,,,,,,,,,,,,,,,,,,,,,,,,,,,,,,,,,,,,,,,,,,,,,,,,,,,,,,,,,,299.01827450100063,None,299.01827450100063,None,299.01827450100063,None,g,1,0.7034345020001638,300.5564245639998,None,300.5564245639998,None,300.5564245639998,None,301.32186686800014,None,301.32186686800014,None,301.32186686800014,None,301.32186686800014,None,,,,,,,,,,,,,,,,,,,,,,,,,,,,,,,,,,,,,,,,,,,,001,179,2020_Feb_27_1054,spring_faces,3.1.5,60.0347992915847,
condition files/Stage0b_2.xlsx,0b,beta,none,g,"['h', 'g']","['Chess', 'Go']","[-0.15, 0.5]","[0.15, 0.5]",1,0,0,11,11,11,0,0,0,1,,,,,,,,,,,,,,,,,,,,,,,,,,,,,,,,,,,,,,,,,,,,,,,,,,,,,,,,,,,,,,,303.3015568810006,None,303.3015568810006,None,303.3015568810006,None,g,1,0.696857523998915,304.83508352300123,None,304.83508352300123,None,304.83508352300123,None,305.58482800599995,None,305.58482800599995,None,305.58482800599995,None,305.58482800599995,None,,,,,,,,,,,,,,,,,,,,,,,,,,,,,,,,,,,,,,,,,,,,001,179,2020_Feb_27_1054,spring_faces,3.1.5,60.0347992915847,
condition files/Stage0b_2.xlsx,0b,none,alpha,h,"['h', 'g']","['Chess', 'Go']","[-0.15, 0.5]","[0.15, 0.5]",0,1,0,11,11,11,0,1,1,0,,,,,,,,,,,,,,,,,,,,,,,,,,,,,,,,,,,,,,,,,,,,,,,,,,,,,,,,,,,,,,,307.5508612120011,None,307.5508612120011,None,307.5508612120011,None,h,1,0.6544650499999989,309.085364822,None,309.085364822,None,309.085364822,None,309.80722222000077,None,309.80722222000077,None,309.80722222000077,None,309.80722222000077,None,,,,,,,,,,,,,,,,,,,,,,,,,,,,,,,,,,,,,,,,,,,,001,179,2020_Feb_27_1054,spring_faces,3.1.5,60.0347992915847,
condition files/Stage0c_1.xlsx,0c,beta,theta,g,"['h', 'g']","['Chess', 'Go']","[-0.15, 0.5]","[0.15, 0.5]",1,1,0,12,12,12,0,0,0,2,,,,,,,,,,,,,,,,,,,,,,,,,,,,,,,,,,,,,,,,,,,,,,,,,,,,,,,,,,,,,,,311.78546032800114,None,311.78546032800114,None,311.78546032800114,None,g,1,1.7971187389994157,313.3186924440015,None,313.3186924440015,None,313.3186924440015,None,315.16819916500026,None,315.16819916500026,None,315.16819916500026,None,315.16819916500026,None,,,,,,,,,,,,,,,,,,,,,,,,,,,,,,,,,,,,,,,,,,,,001,179,2020_Feb_27_1054,spring_faces,3.1.5,60.0347992915847,
condition files/Stage0c_1.xlsx,0c,phi,beta,g,"['h', 'g']","['Chess', 'Go']","[-0.15, 0.5]","[0.15, 0.5]",1,1,0,12,12,12,0,1,1,3,,,,,,,,,,,,,,,,,,,,,,,,,,,,,,,,,,,,,,,,,,,,,,,,,,,,,,,,,,,,,,,317.13487291300044,None,317.13487291300044,None,317.13487291300044,None,g,1,1.1357818359992962,318.668026233001,None,318.668026233001,None,318.668026233001,None,319.8549356190015,None,319.8549356190015,None,319.8549356190015,None,319.8549356190015,None,,,,,,,,,,,,,,,,,,,,,,,,,,,,,,,,,,,,,,,,,,,,001,179,2020_Feb_27_1054,spring_faces,3.1.5,60.0347992915847,
condition files/Stage0c_1.xlsx,0c,theta,alpha,h,"['h', 'g']","['Chess', 'Go']","[-0.15, 0.5]","[0.15, 0.5]",1,1,0,12,12,12,0,2,2,0,,,,,,,,,,,,,,,,,,,,,,,,,,,,,,,,,,,,,,,,,,,,,,,,,,,,,,,,,,,,,,,321.8347823150016,None,321.8347823150016,None,321.8347823150016,None,h,1,0.8034410079999361,323.3683706910015,None,323.3683706910015,None,323.3683706910015,None,324.2348008170011,None,324.2348008170011,None,324.2348008170011,None,324.2348008170011,None,,,,,,,,,,,,,,,,,,,,,,,,,,,,,,,,,,,,,,,,,,,,001,179,2020_Feb_27_1054,spring_faces,3.1.5,60.0347992915847,
condition files/Stage0c_1.xlsx,0c,alpha,phi,h,"['h', 'g']","['Chess', 'Go']","[-0.15, 0.5]","[0.15, 0.5]",1,1,0,12,12,12,0,3,3,1,,,,,,,,,,,,,,,,,,,,,,,,,,,,,,,,,,,,,,,,,,,,,,,,,,,,,,,,,,,,,,,326.2015020859999,None,326.2015020859999,None,326.2015020859999,None,h,1,1.2364010819983378,327.7354215760006,None,327.7354215760006,None,327.7354215760006,None,329.02033577400107,None,329.02033577400107,None,329.02033577400107,None,329.02033577400107,None,,,,,,,,,,,,,,,,,,,,,,,,,,,,,,,,,,,,,,,,,,,,001,179,2020_Feb_27_1054,spring_faces,3.1.5,60.0347992915847,
condition files/Stage0c_2.xlsx,0c,theta,beta,g,"['h', 'g']","['Chess', 'Go']","[-0.15, 0.5]","[0.15, 0.5]",1,1,0,13,13,13,0,0,0,2,,,,,,,,,,,,,,,,,,,,,,,,,,,,,,,,,,,,,,,,,,,,,,,,,,,,,,,,,,,,,,,331.0686501730015,None,331.0686501730015,None,331.0686501730015,None,g,1,1.060154672999488,332.5517241060006,None,332.5517241060006,None,332.5517241060006,None,333.6685266530003,None,333.6685266530003,None,333.6685266530003,None,333.6685266530003,None,,,,,,,,,,,,,,,,,,,,,,,,,,,,,,,,,,,,,,,,,,,,001,179,2020_Feb_27_1054,spring_faces,3.1.5,60.0347992915847,
condition files/Stage0c_2.xlsx,0c,alpha,theta,h,"['h', 'g']","['Chess', 'Go']","[-0.15, 0.5]","[0.15, 0.5]",1,1,0,13,13,13,0,1,1,0,,,,,,,,,,,,,,,,,,,,,,,,,,,,,,,,,,,,,,,,,,,,,,,,,,,,,,,,,,,,,,,335.63492310400034,None,335.63492310400034,None,335.63492310400034,None,h,1,1.0992722089995368,337.1685219110004,None,337.1685219110004,None,337.1685219110004,None,338.3186008820012,None,338.3186008820012,None,338.3186008820012,None,338.3186008820012,None,,,,,,,,,,,,,,,,,,,,,,,,,,,,,,,,,,,,,,,,,,,,001,179,2020_Feb_27_1054,spring_faces,3.1.5,60.0347992915847,
condition files/Stage0c_2.xlsx,0c,phi,alpha,h,"['h', 'g']","['Chess', 'Go']","[-0.15, 0.5]","[0.15, 0.5]",1,1,0,13,13,13,0,2,2,1,,,,,,,,,,,,,,,,,,,,,,,,,,,,,,,,,,,,,,,,,,,,,,,,,,,,,,,,,,,,,,,340.2847512590015,None,340.2847512590015,None,340.2847512590015,None,h,1,1.1212609959984547,341.81855871100015,None,341.81855871100015,None,341.81855871100015,None,342.9854280460004,None,342.9854280460004,None,342.9854280460004,None,342.9854280460004,None,,,,,,,,,,,,,,,,,,,,,,,,,,,,,,,,,,,,,,,,,,,,001,179,2020_Feb_27_1054,spring_faces,3.1.5,60.0347992915847,
condition files/Stage0c_2.xlsx,0c,beta,phi,g,"['h', 'g']","['Chess', 'Go']","[-0.15, 0.5]","[0.15, 0.5]",1,1,0,13,13,13,0,3,3,3,,,,,,,,,,,,,,,,,,,,,,,,,,,,,,,,,,,,,,,,,,,,,,,,,,,,,,,,,,,,,,,344.9682195020014,None,344.9682195020014,None,344.9682195020014,None,g,1,1.0298391110009106,346.5019018290004,None,346.5019018290004,None,346.5019018290004,None,347.58462621800027,None,347.58462621800027,None,347.58462621800027,None,347.58462621800027,None,,,,,,,,,,,,,,,,,,,,,,,,,,,,,,,,,,,,,,,,,,,,001,179,2020_Feb_27_1054,spring_faces,3.1.5,60.0347992915847,
condition files/Stage0c_1.xlsx,0c,theta,alpha,h,"['h', 'g']","['Chess', 'Go']","[-0.15, 0.5]","[0.15, 0.5]",1,1,0,14,14,14,0,0,0,0,,,,,,,,,,,,,,,,,,,,,,,,,,,,,,,,,,,,,,,,,,,,,,,,,,,,,,,,,,,,,,,349.5688297530014,None,349.5688297530014,None,349.5688297530014,None,h,1,1.117458164000709,351.1022776810005,None,351.1022776810005,None,351.1022776810005,None,352.2846562020004,None,352.2846562020004,None,352.2846562020004,None,352.2846562020004,None,,,,,,,,,,,,,,,,,,,,,,,,,,,,,,,,,,,,,,,,,,,,001,179,2020_Feb_27_1054,spring_faces,3.1.5,60.0347992915847,
condition files/Stage0c_1.xlsx,0c,beta,theta,g,"['h', 'g']","['Chess', 'Go']","[-0.15, 0.5]","[0.15, 0.5]",1,1,0,14,14,14,0,1,1,2,,,,,,,,,,,,,,,,,,,,,,,,,,,,,,,,,,,,,,,,,,,,,,,,,,,,,,,,,,,,,,,354.2516152700009,None,354.2516152700009,None,354.2516152700009,None,g,1,1.0586393670000689,355.78522758500003,None,355.78522758500003,None,355.78522758500003,None,356.9018964679999,None,356.9018964679999,None,356.9018964679999,None,356.9018964679999,None,,,,,,,,,,,,,,,,,,,,,,,,,,,,,,,,,,,,,,,,,,,,001,179,2020_Feb_27_1054,spring_faces,3.1.5,60.0347992915847,
condition files/Stage0c_1.xlsx,0c,phi,beta,g,"['h', 'g']","['Chess', 'Go']","[-0.15, 0.5]","[0.15, 0.5]",1,1,0,14,14,14,0,2,2,3,,,,,,,,,,,,,,,,,,,,,,,,,,,,,,,,,,,,,,,,,,,,,,,,,,,,,,,,,,,,,,,358.867895880001,None,358.867895880001,None,358.867895880001,None,g,1,1.0019459890008875,360.4018614100005,None,360.4018614100005,None,360.4018614100005,None,361.45222448999994,None,361.45222448999994,None,361.45222448999994,None,361.45222448999994,None,,,,,,,,,,,,,,,,,,,,,,,,,,,,,,,,,,,,,,,,,,,,001,179,2020_Feb_27_1054,spring_faces,3.1.5,60.0347992915847,
condition files/Stage0c_1.xlsx,0c,alpha,phi,h,"['h', 'g']","['Chess', 'Go']","[-0.15, 0.5]","[0.15, 0.5]",1,1,0,14,14,14,0,3,3,1,,,,,,,,,,,,,,,,,,,,,,,,,,,,,,,,,,,,,,,,,,,,,,,,,,,,,,,,,,,,,,,363.4351642260008,None,363.4351642260008,None,363.4351642260008,None,h,1,1.1714155879999453,364.9684075610003,None,364.9684075610003,None,364.9684075610003,None,366.20196305600075,None,366.20196305600075,None,366.20196305600075,None,366.20196305600075,None,,,,,,,,,,,,,,,,,,,,,,,,,,,,,,,,,,,,,,,,,,,,001,179,2020_Feb_27_1054,spring_faces,3.1.5,60.0347992915847,
condition files/Stage0c_2.xlsx,0c,phi,alpha,h,"['h', 'g']","['Chess', 'Go']","[-0.15, 0.5]","[0.15, 0.5]",1,1,0,15,15,15,0,0,0,1,,,,,,,,,,,,,,,,,,,,,,,,,,,,,,,,,,,,,,,,,,,,,,,,,,,,,,,,,,,,,,,368.18522791600117,None,368.18522791600117,None,368.18522791600117,None,h,1,1.076956467000855,369.7188637400013,None,369.7188637400013,None,369.7188637400013,None,370.83729539700107,None,370.83729539700107,None,370.83729539700107,None,370.83729539700107,None,,,,,,,,,,,,,,,,,,,,,,,,,,,,,,,,,,,,,,,,,,,,001,179,2020_Feb_27_1054,spring_faces,3.1.5,60.0347992915847,
condition files/Stage0c_2.xlsx,0c,beta,phi,g,"['h', 'g']","['Chess', 'Go']","[-0.15, 0.5]","[0.15, 0.5]",1,1,0,15,15,15,0,1,1,3,,,,,,,,,,,,,,,,,,,,,,,,,,,,,,,,,,,,,,,,,,,,,,,,,,,,,,,,,,,,,,,372.8178458910006,None,372.8178458910006,None,372.8178458910006,None,g,1,1.323898246000681,374.3519663240004,None,374.3519663240004,None,374.3519663240004,None,375.7351400389998,None,375.7351400389998,None,375.7351400389998,None,375.7351400389998,None,,,,,,,,,,,,,,,,,,,,,,,,,,,,,,,,,,,,,,,,,,,,001,179,2020_Feb_27_1054,spring_faces,3.1.5,60.0347992915847,
condition files/Stage0c_2.xlsx,0c,alpha,theta,h,"['h', 'g']","['Chess', 'Go']","[-0.15, 0.5]","[0.15, 0.5]",1,1,0,15,15,15,0,2,2,0,,,,,,,,,,,,,,,,,,,,,,,,,,,,,,,,,,,,,,,,,,,,,,,,,,,,,,,,,,,,,,,377.7016094660012,None,377.7016094660012,None,377.7016094660012,None,h,1,0.7765053359999001,379.2353627379998,None,379.2353627379998,None,379.2353627379998,None,380.06806729300115,None,380.06806729300115,None,380.06806729300115,None,380.06806729300115,None,,,,,,,,,,,,,,,,,,,,,,,,,,,,,,,,,,,,,,,,,,,,001,179,2020_Feb_27_1054,spring_faces,3.1.5,60.0347992915847,
condition files/Stage0c_2.xlsx,0c,theta,beta,g,"['h', 'g']","['Chess', 'Go']","[-0.15, 0.5]","[0.15, 0.5]",1,1,0,15,15,15,0,3,3,2,,,,,,,,,,,,,,,,,,,,,,,,,,,,,,,,,,,,,,,,,,,,,,,,,,,,,,,,,,,,,,,382.03499088100034,None,382.03499088100034,None,382.03499088100034,None,g,1,1.099109747001421,383.56870160700055,None,383.56870160700055,None,383.56870160700055,None,384.7185945800011,None,384.7185945800011,None,384.7185945800011,None,384.7185945800011,None,,,,,,,,,,,,,,,,,,,,,,,,,,,,,,,,,,,,,,,,,,,,001,179,2020_Feb_27_1054,spring_faces,3.1.5,60.0347992915847,
condition files/Stage0c_1.xlsx,0c,phi,beta,g,"['h', 'g']","['Chess', 'Go']","[-0.15, 0.5]","[0.15, 0.5]",1,1,0,16,16,16,0,0,0,3,,,,,,,,,,,,,,,,,,,,,,,,,,,,,,,,,,,,,,,,,,,,,,,,,,,,,,,,,,,,,,,386.7016602270014,None,386.7016602270014,None,386.7016602270014,None,g,1,1.0251879989991721,388.2346919740012,None,388.2346919740012,None,388.2346919740012,None,389.30286000900014,None,389.30286000900014,None,389.30286000900014,None,389.30286000900014,None,,,,,,,,,,,,,,,,,,,,,,,,,,,,,,,,,,,,,,,,,,,,001,179,2020_Feb_27_1054,spring_faces,3.1.5,60.0347992915847,
condition files/Stage0c_1.xlsx,0c,theta,alpha,h,"['h', 'g']","['Chess', 'Go']","[-0.15, 0.5]","[0.15, 0.5]",1,1,0,16,16,16,0,1,1,0,,,,,,,,,,,,,,,,,,,,,,,,,,,,,,,,,,,,,,,,,,,,,,,,,,,,,,,,,,,,,,,391.2850689300012,None,391.2850689300012,None,391.2850689300012,None,h,1,0.969584307000332,392.8182265560008,None,392.8182265560008,None,392.8182265560008,None,393.8521131860016,None,393.8521131860016,None,393.8521131860016,None,393.8521131860016,None,,,,,,,,,,,,,,,,,,,,,,,,,,,,,,,,,,,,,,,,,,,,001,179,2020_Feb_27_1054,spring_faces,3.1.5,60.0347992915847,
condition files/Stage0c_1.xlsx,0c,beta,theta,g,"['h', 'g']","['Chess', 'Go']","[-0.15, 0.5]","[0.15, 0.5]",1,1,0,16,16,16,0,2,2,2,,,,,,,,,,,,,,,,,,,,,,,,,,,,,,,,,,,,,,,,,,,,,,,,,,,,,,,,,,,,,,,395.81829418300003,None,395.81829418300003,None,395.81829418300003,None,g,1,0.7723239049992117,397.35149346900107,None,397.35149346900107,None,397.35149346900107,None,398.1848682630007,None,398.1848682630007,None,398.1848682630007,None,398.1848682630007,None,,,,,,,,,,,,,,,,,,,,,,,,,,,,,,,,,,,,,,,,,,,,001,179,2020_Feb_27_1054,spring_faces,3.1.5,60.0347992915847,
condition files/Stage0c_1.xlsx,0c,alpha,phi,h,"['h', 'g']","['Chess', 'Go']","[-0.15, 0.5]","[0.15, 0.5]",1,1,0,16,16,16,0,3,3,1,,,,,,,,,,,,,,,,,,,,,,,,,,,,,,,,,,,,,,,,,,,,,,,,,,,,,,,,,,,,,,,400.1685297290005,None,400.1685297290005,None,400.1685297290005,None,h,1,0.8544735119994584,401.685343698,None,401.685343698,None,401.685343698,None,402.60194197500095,None,402.60194197500095,None,402.60194197500095,None,402.60194197500095,None,,,,,,,,,,,,,,,,,,,,,,,,,,,,,,,,,,,,,,,,,,,,001,179,2020_Feb_27_1054,spring_faces,3.1.5,60.0347992915847,
condition files/Stage0c_2.xlsx,0c,alpha,theta,h,"['h', 'g']","['Chess', 'Go']","[-0.15, 0.5]","[0.15, 0.5]",1,1,0,17,17,17,0,0,0,0,,,,,,,,,,,,,,,,,,,,,,,,,,,,,,,,,,,,,,,,,,,,,,,,,,,,,,,,,,,,,,,404.5848479590004,None,404.5848479590004,None,404.5848479590004,None,h,1,1.1257793650001986,406.1180983480008,None,406.1180983480008,None,406.1180983480008,None,407.2864370460011,None,407.2864370460011,None,407.2864370460011,None,407.2864370460011,None,,,,,,,,,,,,,,,,,,,,,,,,,,,,,,,,,,,,,,,,,,,,001,179,2020_Feb_27_1054,spring_faces,3.1.5,60.0347992915847,
condition files/Stage0c_2.xlsx,0c,theta,beta,g,"['h', 'g']","['Chess', 'Go']","[-0.15, 0.5]","[0.15, 0.5]",1,1,0,17,17,17,0,1,1,2,,,,,,,,,,,,,,,,,,,,,,,,,,,,,,,,,,,,,,,,,,,,,,,,,,,,,,,,,,,,,,,409.26826490700114,None,409.26826490700114,None,409.26826490700114,None,g,1,1.4179810299992823,410.80179919500006,None,410.80179919500006,None,410.80179919500006,None,412.2846262150015,None,412.2846262150015,None,412.2846262150015,None,412.2846262150015,None,,,,,,,,,,,,,,,,,,,,,,,,,,,,,,,,,,,,,,,,,,,,001,179,2020_Feb_27_1054,spring_faces,3.1.5,60.0347992915847,
condition files/Stage0c_2.xlsx,0c,beta,phi,g,"['h', 'g']","['Chess', 'Go']","[-0.15, 0.5]","[0.15, 0.5]",1,1,0,17,17,17,0,2,2,3,,,,,,,,,,,,,,,,,,,,,,,,,,,,,,,,,,,,,,,,,,,,,,,,,,,,,,,,,,,,,,,414.25152086600065,None,414.25152086600065,None,414.25152086600065,None,g,1,0.8026554309999483,415.7851629430006,None,415.7851629430006,None,415.7851629430006,None,416.635310392001,None,416.635310392001,None,416.635310392001,None,416.635310392001,None,,,,,,,,,,,,,,,,,,,,,,,,,,,,,,,,,,,,,,,,,,,,001,179,2020_Feb_27_1054,spring_faces,3.1.5,60.0347992915847,
condition files/Stage0c_2.xlsx,0c,phi,alpha,h,"['h', 'g']","['Chess', 'Go']","[-0.15, 0.5]","[0.15, 0.5]",1,1,0,17,17,17,0,3,3,1,,,,,,,,,,,,,,,,,,,,,,,,,,,,,,,,,,,,,,,,,,,,,,,,,,,,,,,,,,,,,,,418.61814634000075,None,418.61814634000075,None,418.61814634000075,None,h,1,0.9003959280016716,420.1514271640008,None,420.1514271640008,None,420.1514271640008,None,421.10204249800154,None,421.10204249800154,None,421.10204249800154,None,421.10204249800154,None,,,,,,,,,,,,,,,,,,,,,,,,,,,,,,,,,,,,,,,,,,,,001,179,2020_Feb_27_1054,spring_faces,3.1.5,60.0347992915847,
,,,,,,,,,,,,,,,,,,,,,,,,,,,,,,,,,,,,,,,,,,,,,,,,,,,,,,,,,,,,,,,,,,,,,,,,,,,,,,,,,,,,,,,,,,,,,,,,,,,,,,,,423.08522244400046,None,space,0.6468306419992587,428.0849618430002,None,,,,,,,,,,,,,,,,,,,,,,,,,,,,,,,,,,,,,,001,179,2020_Feb_27_1054,spring_faces,3.1.5,60.0347992915847,
condition files/Stage1_1.xlsx,,T3,B4,c,"['c', 'm']","['Clue', 'Monopoly']","[-0.15, 0.5]","[0.15, 0.5]",1,1,,,,,,,,,0,0,0,0,0,0,0,5,,,,,,,,,,,,,,,,,,,,,,,,,,,,,,,,,,,,,,,,,,,,,,,,,,,,,,,428.7852811130015,None,428.7852811130015,None,428.7852811130015,None,c,1,2.717747172999225,430.30207527899984,None,430.30207527899984,None,430.30207527899984,None,433.1028470320016,None,433.1028470320016,None,433.1028470320016,None,433.1028470320016,None,,,,,,,428.0849618430002,None,,,,,,,,,,,,,,,,,,,,,,,,,,,,,,,,,,,,001,179,2020_Feb_27_1054,spring_faces,3.1.5,60.0347992915847,
condition files/Stage1_1.xlsx,,B1,T2,c,"['c', 'm']","['Clue', 'Monopoly']","[-0.15, 0.5]","[0.15, 0.5]",1,1,,,,,,,,,0,0,0,0,0,1,1,1,,,,,,,,,,,,,,,,,,,,,,,,,,,,,,,,,,,,,,,,,,,,,,,,,,,,,,,435.05166391200146,None,435.05166391200146,None,435.05166391200146,None,m,0,1.6304601359988737,436.6373639810008,None,436.6373639810008,None,436.6373639810008,None,438.3184832370007,None,438.3184832370007,None,438.3184832370007,None,438.3184832370007,None,,,,,,,,,,,,,,,,,,,,,,,,,,,,,,,,,,,,,,,,,,,,001,179,2020_Feb_27_1054,spring_faces,3.1.5,60.0347992915847,
condition files/Stage1_1.xlsx,,T1,B1,c,"['c', 'm']","['Clue', 'Monopoly']","[-0.15, 0.5]","[0.15, 0.5]",1,1,,,,,,,,,0,0,0,0,0,2,2,0,,,,,,,,,,,,,,,,,,,,,,,,,,,,,,,,,,,,,,,,,,,,,,,,,,,,,,,440.28489815300054,None,440.28489815300054,None,440.28489815300054,None,c,1,3.3286532029997034,441.8351699350005,None,441.8351699350005,None,441.8351699350005,None,445.21798597199995,None,445.21798597199995,None,445.21798597199995,None,445.21798597199995,None,,,,,,,,,,,,,,,,,,,,,,,,,,,,,,,,,,,,,,,,,,,,001,179,2020_Feb_27_1054,spring_faces,3.1.5,60.0347992915847,
condition files/Stage1_1.xlsx,,T4,B3,m,"['c', 'm']","['Clue', 'Monopoly']","[-0.15, 0.5]","[0.15, 0.5]",1,1,,,,,,,,,0,0,0,0,0,3,3,6,,,,,,,,,,,,,,,,,,,,,,,,,,,,,,,,,,,,,,,,,,,,,,,,,,,,,,,447.18428778700036,None,447.18428778700036,None,447.18428778700036,None,m,1,1.2127123360005498,448.73510035600157,None,448.73510035600157,None,448.73510035600157,None,450.0026478790005,None,450.0026478790005,None,450.0026478790005,None,450.0026478790005,None,,,,,,,,,,,,,,,,,,,,,,,,,,,,,,,,,,,,,,,,,,,,001,179,2020_Feb_27_1054,spring_faces,3.1.5,60.0347992915847,
condition files/Stage1_1.xlsx,,B2,T1,m,"['c', 'm']","['Clue', 'Monopoly']","[-0.15, 0.5]","[0.15, 0.5]",1,1,,,,,,,,,0,0,0,0,0,4,4,2,,,,,,,,,,,,,,,,,,,,,,,,,,,,,,,,,,,,,,,,,,,,,,,,,,,,,,,451.967897388,None,451.967897388,None,451.967897388,None,m,1,2.3962748199992348,453.5515352070015,None,453.5515352070015,None,453.5515352070015,None,456.0018318600014,None,456.0018318600014,None,456.0018318600014,None,456.0018318600014,None,,,,,,,,,,,,,,,,,,,,,,,,,,,,,,,,,,,,,,,,,,,,001,179,2020_Feb_27_1054,spring_faces,3.1.5,60.0347992915847,
condition files/Stage1_1.xlsx,,T2,B2,m,"['c', 'm']","['Clue', 'Monopoly']","[-0.15, 0.5]","[0.15, 0.5]",1,1,,,,,,,,,0,0,0,0,0,5,5,3,,,,,,,,,,,,,,,,,,,,,,,,,,,,,,,,,,,,,,,,,,,,,,,,,,,,,,,457.9682895250007,None,457.9682895250007,None,457.9682895250007,None,c,0,1.1330302339993068,459.50273166700026,None,459.50273166700026,None,459.50273166700026,None,460.702296200001,None,460.702296200001,None,460.702296200001,None,460.702296200001,None,,,,,,,,,,,,,,,,,,,,,,,,,,,,,,,,,,,,,,,,,,,,001,179,2020_Feb_27_1054,spring_faces,3.1.5,60.0347992915847,
condition files/Stage1_1.xlsx,,B4,T4,m,"['c', 'm']","['Clue', 'Monopoly']","[-0.15, 0.5]","[0.15, 0.5]",1,1,,,,,,,,,0,0,0,0,0,6,6,7,,,,,,,,,,,,,,,,,,,,,,,,,,,,,,,,,,,,,,,,,,,,,,,,,,,,,,,462.6679245250016,None,462.6679245250016,None,462.6679245250016,None,m,1,1.1361767799990048,464.2036463410004,None,464.2036463410004,None,464.2036463410004,None,465.4016892489999,None,465.4016892489999,None,465.4016892489999,None,465.4016892489999,None,,,,,,,,,,,,,,,,,,,,,,,,,,,,,,,,,,,,,,,,,,,,001,179,2020_Feb_27_1054,spring_faces,3.1.5,60.0347992915847,
condition files/Stage1_1.xlsx,,B3,T3,c,"['c', 'm']","['Clue', 'Monopoly']","[-0.15, 0.5]","[0.15, 0.5]",1,1,,,,,,,,,0,0,0,0,0,7,7,4,,,,,,,,,,,,,,,,,,,,,,,,,,,,,,,,,,,,,,,,,,,,,,,,,,,,,,,467.3682137430005,None,467.3682137430005,None,467.3682137430005,None,c,1,2.42212261900022,468.901695595001,None,468.901695595001,None,468.901695595001,None,471.4018989690012,None,471.4018989690012,None,471.4018989690012,None,471.4018989690012,None,,,,,,,,,,,,,,,,,,,,,,,,,,,,,,,,,,,,,,,,,,,,001,179,2020_Feb_27_1054,spring_faces,3.1.5,60.0347992915847,
condition files/Stage1_2.xlsx,,B2,T2,m,"['c', 'm']","['Clue', 'Monopoly']","[-0.15, 0.5]","[0.15, 0.5]",1,1,,,,,,,,,0,1,1,1,0,0,0,3,,,,,,,,,,,,,,,,,,,,,,,,,,,,,,,,,,,,,,,,,,,,,,,,,,,,,,,473.3686565020016,None,473.3686565020016,None,473.3686565020016,None,m,1,3.718042869000783,474.9017713640005,None,474.9017713640005,None,474.9017713640005,None,478.7021010690005,None,478.7021010690005,None,478.7021010690005,None,478.7021010690005,None,,,,,,,,,,,,,,,,,,,,,,,,,,,,,,,,,,,,,,,,,,,,001,179,2020_Feb_27_1054,spring_faces,3.1.5,60.0347992915847,
condition files/Stage1_2.xlsx,,T4,B4,m,"['c', 'm']","['Clue', 'Monopoly']","[-0.15, 0.5]","[0.15, 0.5]",1,1,,,,,,,,,0,1,1,1,0,1,1,7,,,,,,,,,,,,,,,,,,,,,,,,,,,,,,,,,,,,,,,,,,,,,,,,,,,,,,,480.650811249001,None,480.650811249001,None,480.650811249001,None,m,1,0.8990094410000893,482.1848108210015,None,482.1848108210015,None,482.1848108210015,None,483.13461470600123,None,483.13461470600123,None,483.13461470600123,None,483.13461470600123,None,,,,,,,,,,,,,,,,,,,,,,,,,,,,,,,,,,,,,,,,,,,,001,179,2020_Feb_27_1054,spring_faces,3.1.5,60.0347992915847,
condition files/Stage1_2.xlsx,,B1,T1,c,"['c', 'm']","['Clue', 'Monopoly']","[-0.15, 0.5]","[0.15, 0.5]",1,1,,,,,,,,,0,1,1,1,0,2,2,0,,,,,,,,,,,,,,,,,,,,,,,,,,,,,,,,,,,,,,,,,,,,,,,,,,,,,,,485.1017152050008,None,485.1017152050008,None,485.1017152050008,None,m,0,1.7589739060003922,486.63683595800103,None,486.63683595800103,None,486.63683595800103,None,488.453762213001,None,488.453762213001,None,488.453762213001,None,488.453762213001,None,,,,,,,,,,,,,,,,,,,,,,,,,,,,,,,,,,,,,,,,,,,,001,179,2020_Feb_27_1054,spring_faces,3.1.5,60.0347992915847,
condition files/Stage1_2.xlsx,,T2,B1,c,"['c', 'm']","['Clue', 'Monopoly']","[-0.15, 0.5]","[0.15, 0.5]",1,1,,,,,,,,,0,1,1,1,0,3,3,1,,,,,,,,,,,,,,,,,,,,,,,,,,,,,,,,,,,,,,,,,,,,,,,,,,,,,,,490.41825500900086,None,490.41825500900086,None,490.41825500900086,None,c,1,1.0518019110004388,491.9679509690013,None,491.9679509690013,None,491.9679509690013,None,493.0851218710013,None,493.0851218710013,None,493.0851218710013,None,493.0851218710013,None,,,,,,,,,,,,,,,,,,,,,,,,,,,,,,,,,,,,,,,,,,,,001,179,2020_Feb_27_1054,spring_faces,3.1.5,60.0347992915847,
condition files/Stage1_2.xlsx,,T3,B3,c,"['c', 'm']","['Clue', 'Monopoly']","[-0.15, 0.5]","[0.15, 0.5]",1,1,,,,,,,,,0,1,1,1,0,4,4,4,,,,,,,,,,,,,,,,,,,,,,,,,,,,,,,,,,,,,,,,,,,,,,,,,,,,,,,495.05137038700013,None,495.05137038700013,None,495.05137038700013,None,m,0,1.714673500000572,496.60113760700006,None,496.60113760700006,None,496.60113760700006,None,498.3685760420012,None,498.3685760420012,None,498.3685760420012,None,498.3685760420012,None,,,,,,,,,,,,,,,,,,,,,,,,,,,,,,,,,,,,,,,,,,,,001,179,2020_Feb_27_1054,spring_faces,3.1.5,60.0347992915847,
condition files/Stage1_2.xlsx,,B4,T3,c,"['c', 'm']","['Clue', 'Monopoly']","[-0.15, 0.5]","[0.15, 0.5]",1,1,,,,,,,,,0,1,1,1,0,5,5,5,,,,,,,,,,,,,,,,,,,,,,,,,,,,,,,,,,,,,,,,,,,,,,,,,,,,,,,500.33498900700033,None,500.33498900700033,None,500.33498900700033,None,m,0,2.111007943000004,501.8847539360013,None,501.8847539360013,None,501.8847539360013,None,504.05174449900005,None,504.05174449900005,None,504.05174449900005,None,504.05174449900005,None,,,,,,,,,,,,,,,,,,,,,,,,,,,,,,,,,,,,,,,,,,,,001,179,2020_Feb_27_1054,spring_faces,3.1.5,60.0347992915847,
condition files/Stage1_2.xlsx,,B3,T4,m,"['c', 'm']","['Clue', 'Monopoly']","[-0.15, 0.5]","[0.15, 0.5]",1,1,,,,,,,,,0,1,1,1,0,6,6,6,,,,,,,,,,,,,,,,,,,,,,,,,,,,,,,,,,,,,,,,,,,,,,,,,,,,,,,506.0179142779998,None,506.0179142779998,None,506.0179142779998,None,m,1,0.9722900410015427,507.55155482400005,None,507.55155482400005,None,507.55155482400005,None,508.58536401700076,None,508.58536401700076,None,508.58536401700076,None,508.58536401700076,None,,,,,,,,,,,,,,,,,,,,,,,,,,,,,,,,,,,,,,,,,,,,001,179,2020_Feb_27_1054,spring_faces,3.1.5,60.0347992915847,
condition files/Stage1_2.xlsx,,T1,B2,m,"['c', 'm']","['Clue', 'Monopoly']","[-0.15, 0.5]","[0.15, 0.5]",1,1,,,,,,,,,0,1,1,1,0,7,7,2,,,,,,,,,,,,,,,,,,,,,,,,,,,,,,,,,,,,,,,,,,,,,,,,,,,,,,,510.55153027600136,None,510.55153027600136,None,510.55153027600136,None,c,0,2.757725763000053,512.1021537200013,None,512.1021537200013,None,512.1021537200013,None,514.9186481340003,None,514.9186481340003,None,514.9186481340003,None,514.9186481340003,None,,,,,,,,,,,,,,,,,,,,,,,,,,,,,,,,,,,,,,,,,,,,001,179,2020_Feb_27_1054,spring_faces,3.1.5,60.0347992915847,
condition files/Stage1_1.xlsx,,B4,T4,m,"['c', 'm']","['Clue', 'Monopoly']","[-0.15, 0.5]","[0.15, 0.5]",1,1,,,,,,,,,0,2,2,2,0,0,0,7,,,,,,,,,,,,,,,,,,,,,,,,,,,,,,,,,,,,,,,,,,,,,,,,,,,,,,,516.9015693050005,None,516.9015693050005,None,516.9015693050005,None,m,1,1.7367926690003515,518.4350452540002,None,518.4350452540002,None,518.4350452540002,None,520.2345279710007,None,520.2345279710007,None,520.2345279710007,None,520.2345279710007,None,,,,,,,,,,,,,,,,,,,,,,,,,,,,,,,,,,,,,,,,,,,,001,179,2020_Feb_27_1054,spring_faces,3.1.5,60.0347992915847,
condition files/Stage1_1.xlsx,,T1,B1,c,"['c', 'm']","['Clue', 'Monopoly']","[-0.15, 0.5]","[0.15, 0.5]",1,1,,,,,,,,,0,2,2,2,0,1,1,0,,,,,,,,,,,,,,,,,,,,,,,,,,,,,,,,,,,,,,,,,,,,,,,,,,,,,,,522.201603124,None,522.201603124,None,522.201603124,None,c,1,1.4928803429993422,523.7348814000015,None,523.7348814000015,None,523.7348814000015,None,525.2851956580016,None,525.2851956580016,None,525.2851956580016,None,525.2851956580016,None,,,,,,,,,,,,,,,,,,,,,,,,,,,,,,,,,,,,,,,,,,,,001,179,2020_Feb_27_1054,spring_faces,3.1.5,60.0347992915847,
condition files/Stage1_1.xlsx,,B1,T2,c,"['c', 'm']","['Clue', 'Monopoly']","[-0.15, 0.5]","[0.15, 0.5]",1,1,,,,,,,,,0,2,2,2,0,2,2,1,,,,,,,,,,,,,,,,,,,,,,,,,,,,,,,,,,,,,,,,,,,,,,,,,,,,,,,527.2512144600005,None,527.2512144600005,None,527.2512144600005,None,c,1,0.76125034100005,528.7865753700007,None,528.7865753700007,None,528.7865753700007,None,529.6013526580009,None,529.6013526580009,None,529.6013526580009,None,529.6013526580009,None,,,,,,,,,,,,,,,,,,,,,,,,,,,,,,,,,,,,,,,,,,,,001,179,2020_Feb_27_1054,spring_faces,3.1.5,60.0347992915847,
condition files/Stage1_1.xlsx,,T2,B2,m,"['c', 'm']","['Clue', 'Monopoly']","[-0.15, 0.5]","[0.15, 0.5]",1,1,,,,,,,,,0,2,2,2,0,3,3,3,,,,,,,,,,,,,,,,,,,,,,,,,,,,,,,,,,,,,,,,,,,,,,,,,,,,,,,531.5682619840009,None,531.5682619840009,None,531.5682619840009,None,c,0,2.3962944819995755,533.1035352910003,None,533.1035352910003,None,533.1035352910003,None,535.5679095209998,None,535.5679095209998,None,535.5679095209998,None,535.5679095209998,None,,,,,,,,,,,,,,,,,,,,,,,,,,,,,,,,,,,,,,,,,,,,001,179,2020_Feb_27_1054,spring_faces,3.1.5,60.0347992915847,
condition files/Stage1_1.xlsx,,B3,T3,c,"['c', 'm']","['Clue', 'Monopoly']","[-0.15, 0.5]","[0.15, 0.5]",1,1,,,,,,,,,0,2,2,2,0,4,4,4,,,,,,,,,,,,,,,,,,,,,,,,,,,,,,,,,,,,,,,,,,,,,,,,,,,,,,,537.5182174520014,None,537.5182174520014,None,537.5182174520014,None,c,1,2.4481837900002574,539.0516428250012,None,539.0516428250012,None,539.0516428250012,None,541.5520276610005,None,541.5520276610005,None,541.5520276610005,None,541.5520276610005,None,,,,,,,,,,,,,,,,,,,,,,,,,,,,,,,,,,,,,,,,,,,,001,179,2020_Feb_27_1054,spring_faces,3.1.5,60.0347992915847,
condition files/Stage1_1.xlsx,,T3,B4,c,"['c', 'm']","['Clue', 'Monopoly']","[-0.15, 0.5]","[0.15, 0.5]",1,1,,,,,,,,,0,2,2,2,0,5,5,5,,,,,,,,,,,,,,,,,,,,,,,,,,,,,,,,,,,,,,,,,,,,,,,,,,,,,,,543.5178955380015,None,543.5178955380015,None,543.5178955380015,None,c,1,2.527289761999782,545.0524754460002,None,545.0524754460002,None,545.0524754460002,None,547.6346701440016,None,547.6346701440016,None,547.6346701440016,None,547.6346701440016,None,,,,,,,,,,,,,,,,,,,,,,,,,,,,,,,,,,,,,,,,,,,,001,179,2020_Feb_27_1054,spring_faces,3.1.5,60.0347992915847,
condition files/Stage1_1.xlsx,,T4,B3,m,"['c', 'm']","['Clue', 'Monopoly']","[-0.15, 0.5]","[0.15, 0.5]",1,1,,,,,,,,,0,2,2,2,0,6,6,6,,,,,,,,,,,,,,,,,,,,,,,,,,,,,,,,,,,,,,,,,,,,,,,,,,,,,,,549.6013974840007,None,549.6013974840007,None,549.6013974840007,None,m,1,1.3546800250005617,551.1372004090008,None,551.1372004090008,None,551.1372004090008,None,552.551904068001,None,552.551904068001,None,552.551904068001,None,552.551904068001,None,,,,,,,,,,,,,,,,,,,,,,,,,,,,,,,,,,,,,,,,,,,,001,179,2020_Feb_27_1054,spring_faces,3.1.5,60.0347992915847,
condition files/Stage1_1.xlsx,,B2,T1,m,"['c', 'm']","['Clue', 'Monopoly']","[-0.15, 0.5]","[0.15, 0.5]",1,1,,,,,,,,,0,2,2,2,0,7,7,2,,,,,,,,,,,,,,,,,,,,,,,,,,,,,,,,,,,,,,,,,,,,,,,,,,,,,,,554.5180389040015,None,554.5180389040015,None,554.5180389040015,None,m,1,1.7521786890010844,556.0516481080012,None,556.0516481080012,None,556.0516481080012,None,557.8679408020016,None,557.8679408020016,None,557.8679408020016,None,557.8679408020016,None,,,,,,,,,,,,,,,,,,,,,,,,,,,,,,,,,,,,,,,,,,,,001,179,2020_Feb_27_1054,spring_faces,3.1.5,60.0347992915847,
condition files/Stage1_2.xlsx,,T2,B1,c,"['c', 'm']","['Clue', 'Monopoly']","[-0.15, 0.5]","[0.15, 0.5]",1,1,,,,,,,,,0,3,3,3,0,0,0,1,,,,,,,,,,,,,,,,,,,,,,,,,,,,,,,,,,,,,,,,,,,,,,,,,,,,,,,559.8519403179998,None,559.8519403179998,None,559.8519403179998,None,c,1,1.057922817999497,561.3859617100006,None,561.3859617100006,None,561.3859617100006,None,562.5034655650015,None,562.5034655650015,None,562.5034655650015,None,562.5034655650015,None,,,,,,,,,,,,,,,,,,,,,,,,,,,,,,,,,,,,,,,,,,,,001,179,2020_Feb_27_1054,spring_faces,3.1.5,60.0347992915847,
condition files/Stage1_2.xlsx,,B4,T3,c,"['c', 'm']","['Clue', 'Monopoly']","[-0.15, 0.5]","[0.15, 0.5]",1,1,,,,,,,,,0,3,3,3,0,1,1,5,,,,,,,,,,,,,,,,,,,,,,,,,,,,,,,,,,,,,,,,,,,,,,,,,,,,,,,564.4682345410001,None,564.4682345410001,None,564.4682345410001,None,c,1,2.010567388999334,566.0013233059999,None,566.0013233059999,None,566.0013233059999,None,568.0680756780002,None,568.0680756780002,None,568.0680756780002,None,568.0680756780002,None,,,,,,,,,,,,,,,,,,,,,,,,,,,,,,,,,,,,,,,,,,,,001,179,2020_Feb_27_1054,spring_faces,3.1.5,60.0347992915847,
condition files/Stage1_2.xlsx,,B3,T4,m,"['c', 'm']","['Clue', 'Monopoly']","[-0.15, 0.5]","[0.15, 0.5]",1,1,,,,,,,,,0,3,3,3,0,2,2,6,,,,,,,,,,,,,,,,,,,,,,,,,,,,,,,,,,,,,,,,,,,,,,,,,,,,,,,570.0350315610012,None,570.0350315610012,None,570.0350315610012,None,m,1,1.2592932560000918,571.5685391830011,None,571.5685391830011,None,571.5685391830011,None,572.9021503010008,None,572.9021503010008,None,572.9021503010008,None,572.9021503010008,None,,,,,,,,,,,,,,,,,,,,,,,,,,,,,,,,,,,,,,,,,,,,001,179,2020_Feb_27_1054,spring_faces,3.1.5,60.0347992915847,
condition files/Stage1_2.xlsx,,B1,T1,c,"['c', 'm']","['Clue', 'Monopoly']","[-0.15, 0.5]","[0.15, 0.5]",1,1,,,,,,,,,0,3,3,3,0,3,3,0,,,,,,,,,,,,,,,,,,,,,,,,,,,,,,,,,,,,,,,,,,,,,,,,,,,,,,,574.851369295,None,574.851369295,None,574.851369295,None,c,1,1.1140113249985006,576.4017947890006,None,576.4017947890006,None,576.4017947890006,None,577.5698060030008,None,577.5698060030008,None,577.5698060030008,None,577.5698060030008,None,,,,,,,,,,,,,,,,,,,,,,,,,,,,,,,,,,,,,,,,,,,,001,179,2020_Feb_27_1054,spring_faces,3.1.5,60.0347992915847,
condition files/Stage1_2.xlsx,,T3,B3,c,"['c', 'm']","['Clue', 'Monopoly']","[-0.15, 0.5]","[0.15, 0.5]",1,1,,,,,,,,,0,3,3,3,0,4,4,4,,,,,,,,,,,,,,,,,,,,,,,,,,,,,,,,,,,,,,,,,,,,,,,,,,,,,,,579.534809095001,None,579.534809095001,None,579.534809095001,None,m,0,1.917222612999467,581.0706107060014,None,581.0706107060014,None,581.0706107060014,None,583.0514128410014,None,583.0514128410014,None,583.0514128410014,None,583.0514128410014,None,,,,,,,,,,,,,,,,,,,,,,,,,,,,,,,,,,,,,,,,,,,,001,179,2020_Feb_27_1054,spring_faces,3.1.5,60.0347992915847,
condition files/Stage1_2.xlsx,,B2,T2,m,"['c', 'm']","['Clue', 'Monopoly']","[-0.15, 0.5]","[0.15, 0.5]",1,1,,,,,,,,,0,3,3,3,0,5,5,3,,,,,,,,,,,,,,,,,,,,,,,,,,,,,,,,,,,,,,,,,,,,,,,,,,,,,,,585.0183236850007,None,585.0183236850007,None,585.0183236850007,None,c,0,4.627673804998267,586.5521482090007,None,586.5521482090007,None,586.5521482090007,None,591.2514285329999,None,591.2514285329999,None,591.2514285329999,None,591.2514285329999,None,,,,,,,,,,,,,,,,,,,,,,,,,,,,,,,,,,,,,,,,,,,,001,179,2020_Feb_27_1054,spring_faces,3.1.5,60.0347992915847,
condition files/Stage1_2.xlsx,,T4,B4,m,"['c', 'm']","['Clue', 'Monopoly']","[-0.15, 0.5]","[0.15, 0.5]",1,1,,,,,,,,,0,3,3,3,0,6,6,7,,,,,,,,,,,,,,,,,,,,,,,,,,,,,,,,,,,,,,,,,,,,,,,,,,,,,,,593.2016185690009,None,593.2016185690009,None,593.2016185690009,None,m,1,3.596783551000044,594.7351448040008,None,594.7351448040008,None,594.7351448040008,None,598.3854884150005,None,598.3854884150005,None,598.3854884150005,None,598.3854884150005,None,,,,,,,,,,,,,,,,,,,,,,,,,,,,,,,,,,,,,,,,,,,,001,179,2020_Feb_27_1054,spring_faces,3.1.5,60.0347992915847,
condition files/Stage1_2.xlsx,,T1,B2,m,"['c', 'm']","['Clue', 'Monopoly']","[-0.15, 0.5]","[0.15, 0.5]",1,1,,,,,,,,,0,3,3,3,0,7,7,2,,,,,,,,,,,,,,,,,,,,,,,,,,,,,,,,,,,,,,,,,,,,,,,,,,,,,,,600.3516512080005,None,600.3516512080005,None,600.3516512080005,None,m,1,1.870329811999909,601.8855037820013,None,601.8855037820013,None,601.8855037820013,None,603.8177766150002,None,603.8177766150002,None,603.8177766150002,None,603.8177766150002,None,,,,,,,,,,,,,,,,,,,,,,,,,,,,,,,,,,,,,,,,,,,,001,179,2020_Feb_27_1054,spring_faces,3.1.5,60.0347992915847,
condition files/Stage1_1.xlsx,,T2,B2,m,"['c', 'm']","['Clue', 'Monopoly']","[-0.15, 0.5]","[0.15, 0.5]",1,1,,,,,,,,,0,4,4,4,0,0,0,3,,,,,,,,,,,,,,,,,,,,,,,,,,,,,,,,,,,,,,,,,,,,,,,,,,,,,,,605.8019513980016,None,605.8019513980016,None,605.8019513980016,None,c,0,2.307788169999185,607.3361256000007,None,607.3361256000007,None,607.3361256000007,None,609.7017938240006,None,609.7017938240006,None,609.7017938240006,None,609.7017938240006,None,,,,,,,,,,,,,,,,,,,,,,,,,,,,,,,,,,,,,,,,,,,,001,179,2020_Feb_27_1054,spring_faces,3.1.5,60.0347992915847,
condition files/Stage1_1.xlsx,,B4,T4,m,"['c', 'm']","['Clue', 'Monopoly']","[-0.15, 0.5]","[0.15, 0.5]",1,1,,,,,,,,,0,4,4,4,0,1,1,7,,,,,,,,,,,,,,,,,,,,,,,,,,,,,,,,,,,,,,,,,,,,,,,,,,,,,,,611.6681940980015,None,611.6681940980015,None,611.6681940980015,None,m,1,1.801959493999675,613.2018613700002,None,613.2018613700002,None,613.2018613700002,None,615.068424250001,None,615.068424250001,None,615.068424250001,None,615.068424250001,None,,,,,,,,,,,,,,,,,,,,,,,,,,,,,,,,,,,,,,,,,,,,001,179,2020_Feb_27_1054,spring_faces,3.1.5,60.0347992915847,
condition files/Stage1_1.xlsx,,T4,B3,m,"['c', 'm']","['Clue', 'Monopoly']","[-0.15, 0.5]","[0.15, 0.5]",1,1,,,,,,,,,0,4,4,4,0,2,2,6,,,,,,,,,,,,,,,,,,,,,,,,,,,,,,,,,,,,,,,,,,,,,,,,,,,,,,,617.0348637620009,None,617.0348637620009,None,617.0348637620009,None,m,1,1.153540574001454,618.570302786,None,618.570302786,None,618.570302786,None,619.785327208001,None,619.785327208001,None,619.785327208001,None,619.785327208001,None,,,,,,,,,,,,,,,,,,,,,,,,,,,,,,,,,,,,,,,,,,,,001,179,2020_Feb_27_1054,spring_faces,3.1.5,60.0347992915847,
condition files/Stage1_1.xlsx,,B3,T3,c,"['c', 'm']","['Clue', 'Monopoly']","[-0.15, 0.5]","[0.15, 0.5]",1,1,,,,,,,,,0,4,4,4,0,3,3,4,,,,,,,,,,,,,,,,,,,,,,,,,,,,,,,,,,,,,,,,,,,,,,,,,,,,,,,621.7515466130008,None,621.7515466130008,None,621.7515466130008,None,m,0,1.8786714739999297,623.2851169100013,None,623.2851169100013,None,623.2851169100013,None,625.2355279720014,None,625.2355279720014,None,625.2355279720014,None,625.2355279720014,None,,,,,,,,,,,,,,,,,,,,,,,,,,,,,,,,,,,,,,,,,,,,001,179,2020_Feb_27_1054,spring_faces,3.1.5,60.0347992915847,
condition files/Stage1_1.xlsx,,T3,B4,c,"['c', 'm']","['Clue', 'Monopoly']","[-0.15, 0.5]","[0.15, 0.5]",1,1,,,,,,,,,0,4,4,4,0,4,4,5,,,,,,,,,,,,,,,,,,,,,,,,,,,,,,,,,,,,,,,,,,,,,,,,,,,,,,,627.1849387820002,None,627.1849387820002,None,627.1849387820002,None,c,1,1.3897093060004408,628.7181191340005,None,628.7181191340005,None,628.7181191340005,None,630.1685513320008,None,630.1685513320008,None,630.1685513320008,None,630.1685513320008,None,,,,,,,,,,,,,,,,,,,,,,,,,,,,,,,,,,,,,,,,,,,,001,179,2020_Feb_27_1054,spring_faces,3.1.5,60.0347992915847,
condition files/Stage1_1.xlsx,,B1,T2,c,"['c', 'm']","['Clue', 'Monopoly']","[-0.15, 0.5]","[0.15, 0.5]",1,1,,,,,,,,,0,4,4,4,0,5,5,1,,,,,,,,,,,,,,,,,,,,,,,,,,,,,,,,,,,,,,,,,,,,,,,,,,,,,,,632.1343672540006,None,632.1343672540006,None,632.1343672540006,None,c,1,0.9350229160008894,633.6687808440001,None,633.6687808440001,None,633.6687808440001,None,634.6687007790006,None,634.6687007790006,None,634.6687007790006,None,634.6687007790006,None,,,,,,,,,,,,,,,,,,,,,,,,,,,,,,,,,,,,,,,,,,,,001,179,2020_Feb_27_1054,spring_faces,3.1.5,60.0347992915847,
condition files/Stage1_1.xlsx,,T1,B1,c,"['c', 'm']","['Clue', 'Monopoly']","[-0.15, 0.5]","[0.15, 0.5]",1,1,,,,,,,,,0,4,4,4,0,6,6,0,,,,,,,,,,,,,,,,,,,,,,,,,,,,,,,,,,,,,,,,,,,,,,,,,,,,,,,636.6350125990011,None,636.6350125990011,None,636.6350125990011,None,c,1,0.6743672510001488,638.1854980879998,None,638.1854980879998,None,638.1854980879998,None,638.9187455750016,None,638.9187455750016,None,638.9187455750016,None,638.9187455750016,None,,,,,,,,,,,,,,,,,,,,,,,,,,,,,,,,,,,,,,,,,,,,001,179,2020_Feb_27_1054,spring_faces,3.1.5,60.0347992915847,
condition files/Stage1_1.xlsx,,B2,T1,m,"['c', 'm']","['Clue', 'Monopoly']","[-0.15, 0.5]","[0.15, 0.5]",1,1,,,,,,,,,0,4,4,4,0,7,7,2,,,,,,,,,,,,,,,,,,,,,,,,,,,,,,,,,,,,,,,,,,,,,,,,,,,,,,,640.88498377,None,640.88498377,None,640.88498377,None,m,1,1.4499603059994115,642.4178471440009,None,642.4178471440009,None,642.4178471440009,None,643.9207195899999,None,643.9207195899999,None,643.9207195899999,None,643.9207195899999,None,,,,,,,,,,,,,,,,,,,,,,,,,,,,,,,,,,,,,,,,,,,,001,179,2020_Feb_27_1054,spring_faces,3.1.5,60.0347992915847,
condition files/Stage1_2.xlsx,,T2,B1,c,"['c', 'm']","['Clue', 'Monopoly']","[-0.15, 0.5]","[0.15, 0.5]",1,1,,,,,,,,,0,5,5,5,0,0,0,1,,,,,,,,,,,,,,,,,,,,,,,,,,,,,,,,,,,,,,,,,,,,,,,,,,,,,,,645.9020877319999,None,645.9020877319999,None,645.9020877319999,None,c,1,1.1208905820003565,647.4349495390015,None,647.4349495390015,None,647.4349495390015,None,648.6181819640005,None,648.6181819640005,None,648.6181819640005,None,648.6181819640005,None,,,,,,,,,,,,,,,,,,,,,,,,,,,,,,,,,,,,,,,,,,,,001,179,2020_Feb_27_1054,spring_faces,3.1.5,60.0347992915847,
condition files/Stage1_2.xlsx,,T1,B2,m,"['c', 'm']","['Clue', 'Monopoly']","[-0.15, 0.5]","[0.15, 0.5]",1,1,,,,,,,,,0,5,5,5,0,1,1,2,,,,,,,,,,,,,,,,,,,,,,,,,,,,,,,,,,,,,,,,,,,,,,,,,,,,,,,650.5849105180005,None,650.5849105180005,None,650.5849105180005,None,m,1,1.029737163999016,652.1180739420015,None,652.1180739420015,None,652.1180739420015,None,653.2016716500002,None,653.2016716500002,None,653.2016716500002,None,653.2016716500002,None,,,,,,,,,,,,,,,,,,,,,,,,,,,,,,,,,,,,,,,,,,,,001,179,2020_Feb_27_1054,spring_faces,3.1.5,60.0347992915847,
condition files/Stage1_2.xlsx,,T4,B4,m,"['c', 'm']","['Clue', 'Monopoly']","[-0.15, 0.5]","[0.15, 0.5]",1,1,,,,,,,,,0,5,5,5,0,2,2,7,,,,,,,,,,,,,,,,,,,,,,,,,,,,,,,,,,,,,,,,,,,,,,,,,,,,,,,655.1682668170015,None,655.1682668170015,None,655.1682668170015,None,m,1,0.8942281680010638,656.701562874001,None,656.701562874001,None,656.701562874001,None,657.6518823550014,None,657.6518823550014,None,657.6518823550014,None,657.6518823550014,None,,,,,,,,,,,,,,,,,,,,,,,,,,,,,,,,,,,,,,,,,,,,001,179,2020_Feb_27_1054,spring_faces,3.1.5,60.0347992915847,
condition files/Stage1_2.xlsx,,B3,T4,m,"['c', 'm']","['Clue', 'Monopoly']","[-0.15, 0.5]","[0.15, 0.5]",1,1,,,,,,,,,0,5,5,5,0,3,3,6,,,,,,,,,,,,,,,,,,,,,,,,,,,,,,,,,,,,,,,,,,,,,,,,,,,,,,,659.6181174440007,None,659.6181174440007,None,659.6181174440007,None,m,1,1.5480407749982987,661.151777645,None,661.151777645,None,661.151777645,None,662.7518716900013,None,662.7518716900013,None,662.7518716900013,None,662.7518716900013,None,,,,,,,,,,,,,,,,,,,,,,,,,,,,,,,,,,,,,,,,,,,,001,179,2020_Feb_27_1054,spring_faces,3.1.5,60.0347992915847,
condition files/Stage1_2.xlsx,,B2,T2,m,"['c', 'm']","['Clue', 'Monopoly']","[-0.15, 0.5]","[0.15, 0.5]",1,1,,,,,,,,,0,5,5,5,0,4,4,3,,,,,,,,,,,,,,,,,,,,,,,,,,,,,,,,,,,,,,,,,,,,,,,,,,,,,,,664.718252820001,None,664.718252820001,None,664.718252820001,None,m,1,4.365862507000202,666.2539334620014,None,666.2539334620014,None,666.2539334620014,None,670.6855942040002,None,670.6855942040002,None,670.6855942040002,None,670.6855942040002,None,,,,,,,,,,,,,,,,,,,,,,,,,,,,,,,,,,,,,,,,,,,,001,179,2020_Feb_27_1054,spring_faces,3.1.5,60.0347992915847,
condition files/Stage1_2.xlsx,,T3,B3,c,"['c', 'm']","['Clue', 'Monopoly']","[-0.15, 0.5]","[0.15, 0.5]",1,1,,,,,,,,,0,5,5,5,0,5,5,4,,,,,,,,,,,,,,,,,,,,,,,,,,,,,,,,,,,,,,,,,,,,,,,,,,,,,,,672.6513996100002,None,672.6513996100002,None,672.6513996100002,None,m,0,3.0577071240004443,674.1861737180006,None,674.1861737180006,None,674.1861737180006,None,677.3185775990005,None,677.3185775990005,None,677.3185775990005,None,677.3185775990005,None,,,,,,,,,,,,,,,,,,,,,,,,,,,,,,,,,,,,,,,,,,,,001,179,2020_Feb_27_1054,spring_faces,3.1.5,60.0347992915847,
condition files/Stage1_2.xlsx,,B4,T3,c,"['c', 'm']","['Clue', 'Monopoly']","[-0.15, 0.5]","[0.15, 0.5]",1,1,,,,,,,,,0,5,5,5,0,6,6,5,,,,,,,,,,,,,,,,,,,,,,,,,,,,,,,,,,,,,,,,,,,,,,,,,,,,,,,679.2675906040004,None,679.2675906040004,None,679.2675906040004,None,c,1,3.066416849000234,680.801411116001,None,680.801411116001,None,680.801411116001,None,683.9184919899999,None,683.9184919899999,None,683.9184919899999,None,683.9184919899999,None,,,,,,,,,,,,,,,,,,,,,,,,,,,,,,,,,,,,,,,,,,,,001,179,2020_Feb_27_1054,spring_faces,3.1.5,60.0347992915847,
condition files/Stage1_2.xlsx,,B1,T1,c,"['c', 'm']","['Clue', 'Monopoly']","[-0.15, 0.5]","[0.15, 0.5]",1,1,,,,,,,,,0,5,5,5,0,7,7,0,,,,,,,,,,,,,,,,,,,,,,,,,,,,,,,,,,,,,,,,,,,,,,,,,,,,,,,685.8850300030008,None,685.8850300030008,None,685.8850300030008,None,c,1,0.6727228380004817,687.4351526690007,None,687.4351526690007,None,687.4351526690007,None,688.1685797010014,None,688.1685797010014,None,688.1685797010014,None,688.1685797010014,None,,,,,,,,,,,,,,,,,,,,,,,,,,,,,,,,,,,,,,,,,,,,001,179,2020_Feb_27_1054,spring_faces,3.1.5,60.0347992915847,
condition files/Stage1_1.xlsx,,B2,T1,m,"['c', 'm']","['Clue', 'Monopoly']","[-0.15, 0.5]","[0.15, 0.5]",1,1,,,,,,,,,0,6,6,6,0,0,0,2,,,,,,,,,,,,,,,,,,,,,,,,,,,,,,,,,,,,,,,,,,,,,,,,,,,,,,,690.1520446530012,None,690.1520446530012,None,690.1520446530012,None,m,1,1.5897959049998462,691.6861100210008,None,691.6861100210008,None,691.6861100210008,None,693.3365024840004,None,693.3365024840004,None,693.3365024840004,None,693.3365024840004,None,,,,,,,,,,,,,,,,,,,,,,,,,,,,,,,,,,,,,,,,,,,,001,179,2020_Feb_27_1054,spring_faces,3.1.5,60.0347992915847,
condition files/Stage1_1.xlsx,,T1,B1,c,"['c', 'm']","['Clue', 'Monopoly']","[-0.15, 0.5]","[0.15, 0.5]",1,1,,,,,,,,,0,6,6,6,0,1,1,0,,,,,,,,,,,,,,,,,,,,,,,,,,,,,,,,,,,,,,,,,,,,,,,,,,,,,,,695.3013138790011,None,695.3013138790011,None,695.3013138790011,None,c,1,2.4242317770003865,696.8356534250015,None,696.8356534250015,None,696.8356534250015,None,699.318133398001,None,699.318133398001,None,699.318133398001,None,699.318133398001,None,,,,,,,,,,,,,,,,,,,,,,,,,,,,,,,,,,,,,,,,,,,,001,179,2020_Feb_27_1054,spring_faces,3.1.5,60.0347992915847,
condition files/Stage1_1.xlsx,,B4,T4,m,"['c', 'm']","['Clue', 'Monopoly']","[-0.15, 0.5]","[0.15, 0.5]",1,1,,,,,,,,,0,6,6,6,0,2,2,7,,,,,,,,,,,,,,,,,,,,,,,,,,,,,,,,,,,,,,,,,,,,,,,,,,,,,,,701.2851677760009,None,701.2851677760009,None,701.2851677760009,None,m,1,1.3366652289987542,702.8191688120005,None,702.8191688120005,None,702.8191688120005,None,704.2199237240002,None,704.2199237240002,None,704.2199237240002,None,704.2199237240002,None,,,,,,,,,,,,,,,,,,,,,,,,,,,,,,,,,,,,,,,,,,,,001,179,2020_Feb_27_1054,spring_faces,3.1.5,60.0347992915847,
condition files/Stage1_1.xlsx,,T4,B3,m,"['c', 'm']","['Clue', 'Monopoly']","[-0.15, 0.5]","[0.15, 0.5]",1,1,,,,,,,,,0,6,6,6,0,3,3,6,,,,,,,,,,,,,,,,,,,,,,,,,,,,,,,,,,,,,,,,,,,,,,,,,,,,,,,706.1846887990014,None,706.1846887990014,None,706.1846887990014,None,m,1,1.0448293979989103,707.7349498980002,None,707.7349498980002,None,707.7349498980002,None,708.83505745,None,708.83505745,None,708.83505745,None,708.83505745,None,,,,,,,,,,,,,,,,,,,,,,,,,,,,,,,,,,,,,,,,,,,,001,179,2020_Feb_27_1054,spring_faces,3.1.5,60.0347992915847,
condition files/Stage1_1.xlsx,,B3,T3,c,"['c', 'm']","['Clue', 'Monopoly']","[-0.15, 0.5]","[0.15, 0.5]",1,1,,,,,,,,,0,6,6,6,0,4,4,4,,,,,,,,,,,,,,,,,,,,,,,,,,,,,,,,,,,,,,,,,,,,,,,,,,,,,,,710.8016076029999,None,710.8016076029999,None,710.8016076029999,None,c,1,3.915045297000688,712.3367400960014,None,712.3367400960014,None,712.3367400960014,None,716.302516179001,None,716.302516179001,None,716.302516179001,None,716.302516179001,None,,,,,,,,,,,,,,,,,,,,,,,,,,,,,,,,,,,,,,,,,,,,001,179,2020_Feb_27_1054,spring_faces,3.1.5,60.0347992915847,
condition files/Stage1_1.xlsx,,T2,B2,m,"['c', 'm']","['Clue', 'Monopoly']","[-0.15, 0.5]","[0.15, 0.5]",1,1,,,,,,,,,0,6,6,6,0,5,5,3,,,,,,,,,,,,,,,,,,,,,,,,,,,,,,,,,,,,,,,,,,,,,,,,,,,,,,,718.2679029540013,None,718.2679029540013,None,718.2679029540013,None,c,0,2.209598865998487,719.8182504630004,None,719.8182504630004,None,719.8182504630004,None,722.1018710050012,None,722.1018710050012,None,722.1018710050012,None,722.1018710050012,None,,,,,,,,,,,,,,,,,,,,,,,,,,,,,,,,,,,,,,,,,,,,001,179,2020_Feb_27_1054,spring_faces,3.1.5,60.0347992915847,
condition files/Stage1_1.xlsx,,B1,T2,c,"['c', 'm']","['Clue', 'Monopoly']","[-0.15, 0.5]","[0.15, 0.5]",1,1,,,,,,,,,0,6,6,6,0,6,6,1,,,,,,,,,,,,,,,,,,,,,,,,,,,,,,,,,,,,,,,,,,,,,,,,,,,,,,,724.051597312,None,724.051597312,None,724.051597312,None,c,1,0.825783741000123,725.6020461200005,None,725.6020461200005,None,725.6020461200005,None,726.4851726610013,None,726.4851726610013,None,726.4851726610013,None,726.4851726610013,None,,,,,,,,,,,,,,,,,,,,,,,,,,,,,,,,,,,,,,,,,,,,001,179,2020_Feb_27_1054,spring_faces,3.1.5,60.0347992915847,
condition files/Stage1_1.xlsx,,T3,B4,c,"['c', 'm']","['Clue', 'Monopoly']","[-0.15, 0.5]","[0.15, 0.5]",1,1,,,,,,,,,0,6,6,6,0,7,7,5,,,,,,,,,,,,,,,,,,,,,,,,,,,,,,,,,,,,,,,,,,,,,,,,,,,,,,,728.4513088860003,None,728.4513088860003,None,728.4513088860003,None,c,1,1.7704288230015663,730.001395438001,None,730.001395438001,None,730.001395438001,None,731.8353352520007,None,731.8353352520007,None,731.8353352520007,None,731.8353352520007,None,,,,,,,,,,,,,,,,,,,,,,,,,,,,,,,,,,,,,,,,,,,,001,179,2020_Feb_27_1054,spring_faces,3.1.5,60.0347992915847,
condition files/Stage1_2.xlsx,,T3,B3,c,"['c', 'm']","['Clue', 'Monopoly']","[-0.15, 0.5]","[0.15, 0.5]",1,1,,,,,,,,,0,7,7,7,0,0,0,4,,,,,,,,,,,,,,,,,,,,,,,,,,,,,,,,,,,,,,,,,,,,,,,,,,,,,,,733.8188036720003,None,733.8188036720003,None,733.8188036720003,None,c,1,0.994983118998789,735.3688031649999,None,735.3688031649999,None,735.3688031649999,None,736.4185687919999,None,736.4185687919999,None,736.4185687919999,None,736.4185687919999,None,,,,,,,,,,,,,,,,,,,,,,,,,,,,,,,,,,,,,,,,,,,,001,179,2020_Feb_27_1054,spring_faces,3.1.5,60.0347992915847,
condition files/Stage1_2.xlsx,,B1,T1,c,"['c', 'm']","['Clue', 'Monopoly']","[-0.15, 0.5]","[0.15, 0.5]",1,1,,,,,,,,,0,7,7,7,0,1,1,0,,,,,,,,,,,,,,,,,,,,,,,,,,,,,,,,,,,,,,,,,,,,,,,,,,,,,,,738.3843206689999,None,738.3843206689999,None,738.3843206689999,None,c,1,0.9092440559998067,739.91859931,None,739.91859931,None,739.91859931,None,740.885221433,None,740.885221433,None,740.885221433,None,740.885221433,None,,,,,,,,,,,,,,,,,,,,,,,,,,,,,,,,,,,,,,,,,,,,001,179,2020_Feb_27_1054,spring_faces,3.1.5,60.0347992915847,
condition files/Stage1_2.xlsx,,T4,B4,m,"['c', 'm']","['Clue', 'Monopoly']","[-0.15, 0.5]","[0.15, 0.5]",1,1,,,,,,,,,0,7,7,7,0,2,2,7,,,,,,,,,,,,,,,,,,,,,,,,,,,,,,,,,,,,,,,,,,,,,,,,,,,,,,,742.8514121910011,None,742.8514121910011,None,742.8514121910011,None,m,1,1.786930674001269,744.3848895589999,None,744.3848895589999,None,744.3848895589999,None,746.234915297,None,746.234915297,None,746.234915297,None,746.234915297,None,,,,,,,,,,,,,,,,,,,,,,,,,,,,,,,,,,,,,,,,,,,,001,179,2020_Feb_27_1054,spring_faces,3.1.5,60.0347992915847,
condition files/Stage1_2.xlsx,,B2,T2,m,"['c', 'm']","['Clue', 'Monopoly']","[-0.15, 0.5]","[0.15, 0.5]",1,1,,,,,,,,,0,7,7,7,0,3,3,3,,,,,,,,,,,,,,,,,,,,,,,,,,,,,,,,,,,,,,,,,,,,,,,,,,,,,,,748.2014509290002,None,748.2014509290002,None,748.2014509290002,None,c,0,1.5569096580002224,749.7349700690011,None,749.7349700690011,None,749.7349700690011,None,751.3523111250015,None,751.3523111250015,None,751.3523111250015,None,751.3523111250015,None,,,,,,,,,,,,,,,,,,,,,,,,,,,,,,,,,,,,,,,,,,,,001,179,2020_Feb_27_1054,spring_faces,3.1.5,60.0347992915847,
condition files/Stage1_2.xlsx,,T2,B1,c,"['c', 'm']","['Clue', 'Monopoly']","[-0.15, 0.5]","[0.15, 0.5]",1,1,,,,,,,,,0,7,7,7,0,4,4,1,,,,,,,,,,,,,,,,,,,,,,,,,,,,,,,,,,,,,,,,,,,,,,,,,,,,,,,753.3180602620014,None,753.3180602620014,None,753.3180602620014,None,c,1,1.3191054449998774,754.8527358830015,None,754.8527358830015,None,754.8527358830015,None,756.2351148380003,None,756.2351148380003,None,756.2351148380003,None,756.2351148380003,None,,,,,,,,,,,,,,,,,,,,,,,,,,,,,,,,,,,,,,,,,,,,001,179,2020_Feb_27_1054,spring_faces,3.1.5,60.0347992915847,
condition files/Stage1_2.xlsx,,B3,T4,m,"['c', 'm']","['Clue', 'Monopoly']","[-0.15, 0.5]","[0.15, 0.5]",1,1,,,,,,,,,0,7,7,7,0,5,5,6,,,,,,,,,,,,,,,,,,,,,,,,,,,,,,,,,,,,,,,,,,,,,,,,,,,,,,,758.201600190001,None,758.201600190001,None,758.201600190001,None,m,1,0.96231312800046,759.7375128510012,None,759.7375128510012,None,759.7375128510012,None,760.7519535930005,None,760.7519535930005,None,760.7519535930005,None,760.7519535930005,None,,,,,,,,,,,,,,,,,,,,,,,,,,,,,,,,,,,,,,,,,,,,001,179,2020_Feb_27_1054,spring_faces,3.1.5,60.0347992915847,
condition files/Stage1_2.xlsx,,T1,B2,m,"['c', 'm']","['Clue', 'Monopoly']","[-0.15, 0.5]","[0.15, 0.5]",1,1,,,,,,,,,0,7,7,7,0,6,6,2,,,,,,,,,,,,,,,,,,,,,,,,,,,,,,,,,,,,,,,,,,,,,,,,,,,,,,,762.7182407650016,None,762.7182407650016,None,762.7182407650016,None,m,1,1.1363992710012099,764.2514363770006,None,764.2514363770006,None,764.2514363770006,None,765.451941229001,None,765.451941229001,None,765.451941229001,None,765.451941229001,None,,,,,,,,,,,,,,,,,,,,,,,,,,,,,,,,,,,,,,,,,,,,001,179,2020_Feb_27_1054,spring_faces,3.1.5,60.0347992915847,
condition files/Stage1_2.xlsx,,B4,T3,c,"['c', 'm']","['Clue', 'Monopoly']","[-0.15, 0.5]","[0.15, 0.5]",1,1,,,,,,,,,0,7,7,7,0,7,7,5,,,,,,,,,,,,,,,,,,,,,,,,,,,,,,,,,,,,,,,,,,,,,,,,,,,,,,,767.4179486320008,None,767.4179486320008,None,767.4179486320008,None,c,1,1.0899699299989152,768.9539625650013,None,768.9539625650013,None,768.9539625650013,None,770.1030322980005,None,770.1030322980005,None,770.1030322980005,None,770.1030322980005,None,,,,,,,,,,,,,,,,,,,,,,,,,,,,,,,,,,,,,,,,,,,,001,179,2020_Feb_27_1054,spring_faces,3.1.5,60.0347992915847,
condition files/Stage1_1.xlsx,,B4,T4,m,"['c', 'm']","['Clue', 'Monopoly']","[-0.15, 0.5]","[0.15, 0.5]",1,1,,,,,,,,,0,8,8,8,0,0,0,7,,,,,,,,,,,,,,,,,,,,,,,,,,,,,,,,,,,,,,,,,,,,,,,,,,,,,,,772.0850021490005,None,772.0850021490005,None,772.0850021490005,None,m,1,1.0495866229994135,773.6182288020009,None,773.6182288020009,None,773.6182288020009,None,774.7354717950002,None,774.7354717950002,None,774.7354717950002,None,774.7354717950002,None,,,,,,,,,,,,,,,,,,,,,,,,,,,,,,,,,,,,,,,,,,,,001,179,2020_Feb_27_1054,spring_faces,3.1.5,60.0347992915847,
condition files/Stage1_1.xlsx,,B2,T1,m,"['c', 'm']","['Clue', 'Monopoly']","[-0.15, 0.5]","[0.15, 0.5]",1,1,,,,,,,,,0,8,8,8,0,1,1,2,,,,,,,,,,,,,,,,,,,,,,,,,,,,,,,,,,,,,,,,,,,,,,,,,,,,,,,776.6845472420009,None,776.6845472420009,None,776.6845472420009,None,m,1,0.6873920500001987,778.2204985600001,None,778.2204985600001,None,778.2204985600001,None,778.9685601410001,None,778.9685601410001,None,778.9685601410001,None,778.9685601410001,None,,,,,,,,,,,,,,,,,,,,,,,,,,,,,,,,,,,,,,,,,,,,001,179,2020_Feb_27_1054,spring_faces,3.1.5,60.0347992915847,
condition files/Stage1_1.xlsx,,T3,B4,c,"['c', 'm']","['Clue', 'Monopoly']","[-0.15, 0.5]","[0.15, 0.5]",1,1,,,,,,,,,0,8,8,8,0,2,2,5,,,,,,,,,,,,,,,,,,,,,,,,,,,,,,,,,,,,,,,,,,,,,,,,,,,,,,,780.9351525540005,None,780.9351525540005,None,780.9351525540005,None,c,1,0.8708742749986413,782.4849542190004,None,782.4849542190004,None,782.4849542190004,None,783.4183758590007,None,783.4183758590007,None,783.4183758590007,None,783.4183758590007,None,,,,,,,,,,,,,,,,,,,,,,,,,,,,,,,,,,,,,,,,,,,,001,179,2020_Feb_27_1054,spring_faces,3.1.5,60.0347992915847,
condition files/Stage1_1.xlsx,,T4,B3,m,"['c', 'm']","['Clue', 'Monopoly']","[-0.15, 0.5]","[0.15, 0.5]",1,1,,,,,,,,,0,8,8,8,0,3,3,6,,,,,,,,,,,,,,,,,,,,,,,,,,,,,,,,,,,,,,,,,,,,,,,,,,,,,,,785.3850499540004,None,785.3850499540004,None,785.3850499540004,None,m,1,2.389453900999797,786.9184341079999,None,786.9184341079999,None,786.9184341079999,None,789.368698327,None,789.368698327,None,789.368698327,None,789.368698327,None,,,,,,,,,,,,,,,,,,,,,,,,,,,,,,,,,,,,,,,,,,,,001,179,2020_Feb_27_1054,spring_faces,3.1.5,60.0347992915847,
condition files/Stage1_1.xlsx,,T1,B1,c,"['c', 'm']","['Clue', 'Monopoly']","[-0.15, 0.5]","[0.15, 0.5]",1,1,,,,,,,,,0,8,8,8,0,4,4,0,,,,,,,,,,,,,,,,,,,,,,,,,,,,,,,,,,,,,,,,,,,,,,,,,,,,,,,791.3348372199998,None,791.3348372199998,None,791.3348372199998,None,m,0,1.2718554759994731,792.8679814620009,None,792.8679814620009,None,792.8679814620009,None,794.2018086550015,None,794.2018086550015,None,794.2018086550015,None,794.2018086550015,None,,,,,,,,,,,,,,,,,,,,,,,,,,,,,,,,,,,,,,,,,,,,001,179,2020_Feb_27_1054,spring_faces,3.1.5,60.0347992915847,
condition files/Stage1_1.xlsx,,B1,T2,c,"['c', 'm']","['Clue', 'Monopoly']","[-0.15, 0.5]","[0.15, 0.5]",1,1,,,,,,,,,0,8,8,8,0,5,5,1,,,,,,,,,,,,,,,,,,,,,,,,,,,,,,,,,,,,,,,,,,,,,,,,,,,,,,,796.1682553760002,None,796.1682553760002,None,796.1682553760002,None,c,1,0.565505859998666,797.7183035400012,None,797.7183035400012,None,797.7183035400012,None,798.3353525769999,None,798.3353525769999,None,798.3353525769999,None,798.3353525769999,None,,,,,,,,,,,,,,,,,,,,,,,,,,,,,,,,,,,,,,,,,,,,001,179,2020_Feb_27_1054,spring_faces,3.1.5,60.0347992915847,
condition files/Stage1_1.xlsx,,B3,T3,c,"['c', 'm']","['Clue', 'Monopoly']","[-0.15, 0.5]","[0.15, 0.5]",1,1,,,,,,,,,0,8,8,8,0,6,6,4,,,,,,,,,,,,,,,,,,,,,,,,,,,,,,,,,,,,,,,,,,,,,,,,,,,,,,,800.3013752960014,None,800.3013752960014,None,800.3013752960014,None,c,1,1.4402454139999463,801.8356567320006,None,801.8356567320006,None,801.8356567320006,None,803.3348521070002,None,803.3348521070002,None,803.3348521070002,None,803.3348521070002,None,,,,,,,,,,,,,,,,,,,,,,,,,,,,,,,,,,,,,,,,,,,,001,179,2020_Feb_27_1054,spring_faces,3.1.5,60.0347992915847,
condition files/Stage1_1.xlsx,,T2,B2,m,"['c', 'm']","['Clue', 'Monopoly']","[-0.15, 0.5]","[0.15, 0.5]",1,1,,,,,,,,,0,8,8,8,0,7,7,3,,,,,,,,,,,,,,,,,,,,,,,,,,,,,,,,,,,,,,,,,,,,,,,,,,,,,,,805.3009898110013,None,805.3009898110013,None,805.3009898110013,None,m,1,1.3525311979992694,806.8353168630001,None,806.8353168630001,None,806.8353168630001,None,808.2685585930012,None,808.2685585930012,None,808.2685585930012,None,808.2685585930012,None,,,,,,,,,,,,,,,,,,,,,,,,,,,,,,,,,,,,,,,,,,,,001,179,2020_Feb_27_1054,spring_faces,3.1.5,60.0347992915847,
condition files/Stage1_2.xlsx,,B2,T2,m,"['c', 'm']","['Clue', 'Monopoly']","[-0.15, 0.5]","[0.15, 0.5]",1,1,,,,,,,,,0,9,9,9,0,0,0,3,,,,,,,,,,,,,,,,,,,,,,,,,,,,,,,,,,,,,,,,,,,,,,,,,,,,,,,810.2348655080004,None,810.2348655080004,None,810.2348655080004,None,m,1,1.6988495259993215,811.7689887300003,None,811.7689887300003,None,811.7689887300003,None,813.5186837100009,None,813.5186837100009,None,813.5186837100009,None,813.5186837100009,None,,,,,,,,,,,,,,,,,,,,,,,,,,,,,,,,,,,,,,,,,,,,001,179,2020_Feb_27_1054,spring_faces,3.1.5,60.0347992915847,
condition files/Stage1_2.xlsx,,B1,T1,c,"['c', 'm']","['Clue', 'Monopoly']","[-0.15, 0.5]","[0.15, 0.5]",1,1,,,,,,,,,0,9,9,9,0,1,1,0,,,,,,,,,,,,,,,,,,,,,,,,,,,,,,,,,,,,,,,,,,,,,,,,,,,,,,,815.4849406070007,None,815.4849406070007,None,815.4849406070007,None,c,1,0.6412312109987397,817.0186486450002,None,817.0186486450002,None,817.0186486450002,None,817.7354833480003,None,817.7354833480003,None,817.7354833480003,None,817.7354833480003,None,,,,,,,,,,,,,,,,,,,,,,,,,,,,,,,,,,,,,,,,,,,,001,179,2020_Feb_27_1054,spring_faces,3.1.5,60.0347992915847,
condition files/Stage1_2.xlsx,,T3,B3,c,"['c', 'm']","['Clue', 'Monopoly']","[-0.15, 0.5]","[0.15, 0.5]",1,1,,,,,,,,,0,9,9,9,0,2,2,4,,,,,,,,,,,,,,,,,,,,,,,,,,,,,,,,,,,,,,,,,,,,,,,,,,,,,,,819.6848709570004,None,819.6848709570004,None,819.6848709570004,None,m,0,1.0970958200014138,821.2347137830002,None,821.2347137830002,None,821.2347137830002,None,822.3851562050004,None,822.3851562050004,None,822.3851562050004,None,822.3851562050004,None,,,,,,,,,,,,,,,,,,,,,,,,,,,,,,,,,,,,,,,,,,,,001,179,2020_Feb_27_1054,spring_faces,3.1.5,60.0347992915847,
condition files/Stage1_2.xlsx,,T1,B2,m,"['c', 'm']","['Clue', 'Monopoly']","[-0.15, 0.5]","[0.15, 0.5]",1,1,,,,,,,,,0,9,9,9,0,3,3,2,,,,,,,,,,,,,,,,,,,,,,,,,,,,,,,,,,,,,,,,,,,,,,,,,,,,,,,824.3515940600009,None,824.3515940600009,None,824.3515940600009,None,m,1,1.6284217749998788,825.8874162500015,None,825.8874162500015,None,825.8874162500015,None,827.5852022140007,None,827.5852022140007,None,827.5852022140007,None,827.5852022140007,None,,,,,,,,,,,,,,,,,,,,,,,,,,,,,,,,,,,,,,,,,,,,001,179,2020_Feb_27_1054,spring_faces,3.1.5,60.0347992915847,
condition files/Stage1_2.xlsx,,B4,T3,c,"['c', 'm']","['Clue', 'Monopoly']","[-0.15, 0.5]","[0.15, 0.5]",1,1,,,,,,,,,0,9,9,9,0,4,4,5,,,,,,,,,,,,,,,,,,,,,,,,,,,,,,,,,,,,,,,,,,,,,,,,,,,,,,,829.5343788530008,None,829.5343788530008,None,829.5343788530008,None,c,1,1.5196053130002838,831.0682420980011,None,831.0682420980011,None,831.0682420980011,None,832.651362818,None,832.651362818,None,832.651362818,None,832.651362818,None,,,,,,,,,,,,,,,,,,,,,,,,,,,,,,,,,,,,,,,,,,,,001,179,2020_Feb_27_1054,spring_faces,3.1.5,60.0347992915847,
condition files/Stage1_2.xlsx,,T4,B4,m,"['c', 'm']","['Clue', 'Monopoly']","[-0.15, 0.5]","[0.15, 0.5]",1,1,,,,,,,,,0,9,9,9,0,5,5,7,,,,,,,,,,,,,,,,,,,,,,,,,,,,,,,,,,,,,,,,,,,,,,,,,,,,,,,834.6183893990001,None,834.6183893990001,None,834.6183893990001,None,m,1,0.7872674800000823,836.1685570210011,None,836.1685570210011,None,836.1685570210011,None,837.0181478360009,None,837.0181478360009,None,837.0181478360009,None,837.0181478360009,None,,,,,,,,,,,,,,,,,,,,,,,,,,,,,,,,,,,,,,,,,,,,001,179,2020_Feb_27_1054,spring_faces,3.1.5,60.0347992915847,
condition files/Stage1_2.xlsx,,T2,B1,c,"['c', 'm']","['Clue', 'Monopoly']","[-0.15, 0.5]","[0.15, 0.5]",1,1,,,,,,,,,0,9,9,9,0,6,6,1,,,,,,,,,,,,,,,,,,,,,,,,,,,,,,,,,,,,,,,,,,,,,,,,,,,,,,,838.9846674,None,838.9846674,None,838.9846674,None,c,1,1.0452904869998747,840.5184931250005,None,840.5184931250005,None,840.5184931250005,None,841.6200532800012,None,841.6200532800012,None,841.6200532800012,None,841.6200532800012,None,,,,,,,,,,,,,,,,,,,,,,,,,,,,,,,,,,,,,,,,,,,,001,179,2020_Feb_27_1054,spring_faces,3.1.5,60.0347992915847,
condition files/Stage1_2.xlsx,,B3,T4,m,"['c', 'm']","['Clue', 'Monopoly']","[-0.15, 0.5]","[0.15, 0.5]",1,1,,,,,,,,,0,9,9,9,0,7,7,6,,,,,,,,,,,,,,,,,,,,,,,,,,,,,,,,,,,,,,,,,,,,,,,,,,,,,,,843.585283407001,None,843.585283407001,None,843.585283407001,None,m,1,1.5167444970011275,845.1190576780009,None,845.1190576780009,None,845.1190576780009,None,846.7017038130016,None,846.7017038130016,None,846.7017038130016,None,846.7017038130016,None,,,,,,,,,,,,,,,,,,,,,,,,,,,,,,,,,,,,,,,,,,,,001,179,2020_Feb_27_1054,spring_faces,3.1.5,60.0347992915847,
condition files/Stage1_1.xlsx,,T2,B2,m,"['c', 'm']","['Clue', 'Monopoly']","[-0.15, 0.5]","[0.15, 0.5]",1,1,,,,,,,,,0,10,10,10,0,0,0,3,,,,,,,,,,,,,,,,,,,,,,,,,,,,,,,,,,,,,,,,,,,,,,,,,,,,,,,848.6853762030005,None,848.6853762030005,None,848.6853762030005,None,m,1,1.0083363720004854,850.2355568940002,None,850.2355568940002,None,850.2355568940002,None,851.3014874210003,None,851.3014874210003,None,851.3014874210003,None,851.3014874210003,None,,,,,,,,,,,,,,,,,,,,,,,,,,,,,,,,,,,,,,,,,,,,001,179,2020_Feb_27_1054,spring_faces,3.1.5,60.0347992915847,
condition files/Stage1_1.xlsx,,B4,T4,m,"['c', 'm']","['Clue', 'Monopoly']","[-0.15, 0.5]","[0.15, 0.5]",1,1,,,,,,,,,0,10,10,10,0,1,1,7,,,,,,,,,,,,,,,,,,,,,,,,,,,,,,,,,,,,,,,,,,,,,,,,,,,,,,,853.2681752460012,None,853.2681752460012,None,853.2681752460012,None,m,1,0.7760649740012013,854.8037569799999,None,854.8037569799999,None,854.8037569799999,None,855.6353665290007,None,855.6353665290007,None,855.6353665290007,None,855.6353665290007,None,,,,,,,,,,,,,,,,,,,,,,,,,,,,,,,,,,,,,,,,,,,,001,179,2020_Feb_27_1054,spring_faces,3.1.5,60.0347992915847,
condition files/Stage1_1.xlsx,,T3,B4,c,"['c', 'm']","['Clue', 'Monopoly']","[-0.15, 0.5]","[0.15, 0.5]",1,1,,,,,,,,,0,10,10,10,0,2,2,5,,,,,,,,,,,,,,,,,,,,,,,,,,,,,,,,,,,,,,,,,,,,,,,,,,,,,,,857.6010493600006,None,857.6010493600006,None,857.6010493600006,None,c,1,0.603908600000068,859.151916752,None,859.151916752,None,859.151916752,None,859.8187112150008,None,859.8187112150008,None,859.8187112150008,None,859.8187112150008,None,,,,,,,,,,,,,,,,,,,,,,,,,,,,,,,,,,,,,,,,,,,,001,179,2020_Feb_27_1054,spring_faces,3.1.5,60.0347992915847,
condition files/Stage1_1.xlsx,,T1,B1,c,"['c', 'm']","['Clue', 'Monopoly']","[-0.15, 0.5]","[0.15, 0.5]",1,1,,,,,,,,,0,10,10,10,0,3,3,0,,,,,,,,,,,,,,,,,,,,,,,,,,,,,,,,,,,,,,,,,,,,,,,,,,,,,,,861.7849997310004,None,861.7849997310004,None,861.7849997310004,None,c,1,0.6447474169999623,863.3190365420014,None,863.3190365420014,None,863.3190365420014,None,864.01862024,None,864.01862024,None,864.01862024,None,864.01862024,None,,,,,,,,,,,,,,,,,,,,,,,,,,,,,,,,,,,,,,,,,,,,001,179,2020_Feb_27_1054,spring_faces,3.1.5,60.0347992915847,
condition files/Stage1_1.xlsx,,B3,T3,c,"['c', 'm']","['Clue', 'Monopoly']","[-0.15, 0.5]","[0.15, 0.5]",1,1,,,,,,,,,0,10,10,10,0,4,4,4,,,,,,,,,,,,,,,,,,,,,,,,,,,,,,,,,,,,,,,,,,,,,,,,,,,,,,,865.985042454,None,865.985042454,None,865.985042454,None,c,1,1.7572958410000865,867.5186044590009,None,867.5186044590009,None,867.5186044590009,None,869.3346409170008,None,869.3346409170008,None,869.3346409170008,None,869.3346409170008,None,,,,,,,,,,,,,,,,,,,,,,,,,,,,,,,,,,,,,,,,,,,,001,179,2020_Feb_27_1054,spring_faces,3.1.5,60.0347992915847,
condition files/Stage1_1.xlsx,,B1,T2,c,"['c', 'm']","['Clue', 'Monopoly']","[-0.15, 0.5]","[0.15, 0.5]",1,1,,,,,,,,,0,10,10,10,0,5,5,1,,,,,,,,,,,,,,,,,,,,,,,,,,,,,,,,,,,,,,,,,,,,,,,,,,,,,,,871.3011838130005,None,871.3011838130005,None,871.3011838130005,None,c,1,0.7276735310006188,872.8521279080014,None,872.8521279080014,None,872.8521279080014,None,873.6352400980013,None,873.6352400980013,None,873.6352400980013,None,873.6352400980013,None,,,,,,,,,,,,,,,,,,,,,,,,,,,,,,,,,,,,,,,,,,,,001,179,2020_Feb_27_1054,spring_faces,3.1.5,60.0347992915847,
condition files/Stage1_1.xlsx,,B2,T1,m,"['c', 'm']","['Clue', 'Monopoly']","[-0.15, 0.5]","[0.15, 0.5]",1,1,,,,,,,,,0,10,10,10,0,6,6,2,,,,,,,,,,,,,,,,,,,,,,,,,,,,,,,,,,,,,,,,,,,,,,,,,,,,,,,875.6009123700005,None,875.6009123700005,None,875.6009123700005,None,m,1,0.9731757030003791,877.1346284850006,None,877.1346284850006,None,877.1346284850006,None,878.1681934910011,None,878.1681934910011,None,878.1681934910011,None,878.1681934910011,None,,,,,,,,,,,,,,,,,,,,,,,,,,,,,,,,,,,,,,,,,,,,001,179,2020_Feb_27_1054,spring_faces,3.1.5,60.0347992915847,
condition files/Stage1_1.xlsx,,T4,B3,m,"['c', 'm']","['Clue', 'Monopoly']","[-0.15, 0.5]","[0.15, 0.5]",1,1,,,,,,,,,0,10,10,10,0,7,7,6,,,,,,,,,,,,,,,,,,,,,,,,,,,,,,,,,,,,,,,,,,,,,,,,,,,,,,,880.1349856850011,None,880.1349856850011,None,880.1349856850011,None,m,1,0.7110228679994179,881.6687934230013,None,881.6687934230013,None,881.6687934230013,None,882.4354314230004,None,882.4354314230004,None,882.4354314230004,None,882.4354314230004,None,,,,,,,,,,,,,,,,,,,,,,,,,,,,,,,,,,,,,,,,,,,,001,179,2020_Feb_27_1054,spring_faces,3.1.5,60.0347992915847,
condition files/Stage1_2.xlsx,,B4,T3,c,"['c', 'm']","['Clue', 'Monopoly']","[-0.15, 0.5]","[0.15, 0.5]",1,1,,,,,,,,,0,11,11,11,0,0,0,5,,,,,,,,,,,,,,,,,,,,,,,,,,,,,,,,,,,,,,,,,,,,,,,,,,,,,,,884.418225808,None,884.418225808,None,884.418225808,None,c,1,0.7963163849999546,885.9515270130014,None,885.9515270130014,None,885.9515270130014,None,886.8183366810008,None,886.8183366810008,None,886.8183366810008,None,886.8183366810008,None,,,,,,,,,,,,,,,,,,,,,,,,,,,,,,,,,,,,,,,,,,,,001,179,2020_Feb_27_1054,spring_faces,3.1.5,60.0347992915847,
condition files/Stage1_2.xlsx,,B3,T4,m,"['c', 'm']","['Clue', 'Monopoly']","[-0.15, 0.5]","[0.15, 0.5]",1,1,,,,,,,,,0,11,11,11,0,1,1,6,,,,,,,,,,,,,,,,,,,,,,,,,,,,,,,,,,,,,,,,,,,,,,,,,,,,,,,888.7682361180014,None,888.7682361180014,None,888.7682361180014,None,m,1,0.7660193829997297,890.3018174230001,None,890.3018174230001,None,890.3018174230001,None,891.1183506320012,None,891.1183506320012,None,891.1183506320012,None,891.1183506320012,None,,,,,,,,,,,,,,,,,,,,,,,,,,,,,,,,,,,,,,,,,,,,001,179,2020_Feb_27_1054,spring_faces,3.1.5,60.0347992915847,
condition files/Stage1_2.xlsx,,B1,T1,c,"['c', 'm']","['Clue', 'Monopoly']","[-0.15, 0.5]","[0.15, 0.5]",1,1,,,,,,,,,0,11,11,11,0,2,2,0,,,,,,,,,,,,,,,,,,,,,,,,,,,,,,,,,,,,,,,,,,,,,,,,,,,,,,,893.0848001410013,None,893.0848001410013,None,893.0848001410013,None,c,1,0.7688920900000085,894.6189534860005,None,894.6189534860005,None,894.6189534860005,None,895.4685798610008,None,895.4685798610008,None,895.4685798610008,None,895.4685798610008,None,,,,,,,,,,,,,,,,,,,,,,,,,,,,,,,,,,,,,,,,,,,,001,179,2020_Feb_27_1054,spring_faces,3.1.5,60.0347992915847,
condition files/Stage1_2.xlsx,,B2,T2,m,"['c', 'm']","['Clue', 'Monopoly']","[-0.15, 0.5]","[0.15, 0.5]",1,1,,,,,,,,,0,11,11,11,0,3,3,3,,,,,,,,,,,,,,,,,,,,,,,,,,,,,,,,,,,,,,,,,,,,,,,,,,,,,,,897.418237336,None,897.418237336,None,897.418237336,None,m,1,1.347883175001698,898.9519485130004,None,898.9519485130004,None,898.9519485130004,None,900.3537911029998,None,900.3537911029998,None,900.3537911029998,None,900.3537911029998,None,,,,,,,,,,,,,,,,,,,,,,,,,,,,,,,,,,,,,,,,,,,,001,179,2020_Feb_27_1054,spring_faces,3.1.5,60.0347992915847,
condition files/Stage1_2.xlsx,,T3,B3,c,"['c', 'm']","['Clue', 'Monopoly']","[-0.15, 0.5]","[0.15, 0.5]",1,1,,,,,,,,,0,11,11,11,0,4,4,4,,,,,,,,,,,,,,,,,,,,,,,,,,,,,,,,,,,,,,,,,,,,,,,,,,,,,,,902.3180398640015,None,902.3180398640015,None,902.3180398640015,None,c,1,1.2145085409993044,903.853330244001,None,903.853330244001,None,903.853330244001,None,905.120891849001,None,905.120891849001,None,905.120891849001,None,905.120891849001,None,,,,,,,,,,,,,,,,,,,,,,,,,,,,,,,,,,,,,,,,,,,,001,179,2020_Feb_27_1054,spring_faces,3.1.5,60.0347992915847,
condition files/Stage1_2.xlsx,,T2,B1,c,"['c', 'm']","['Clue', 'Monopoly']","[-0.15, 0.5]","[0.15, 0.5]",1,1,,,,,,,,,0,11,11,11,0,5,5,1,,,,,,,,,,,,,,,,,,,,,,,,,,,,,,,,,,,,,,,,,,,,,,,,,,,,,,,907.0845366490012,None,907.0845366490012,None,907.0845366490012,None,c,1,1.0417883850004728,908.6181037340011,None,908.6181037340011,None,908.6181037340011,None,909.7183025710001,None,909.7183025710001,None,909.7183025710001,None,909.7183025710001,None,,,,,,,,,,,,,,,,,,,,,,,,,,,,,,,,,,,,,,,,,,,,001,179,2020_Feb_27_1054,spring_faces,3.1.5,60.0347992915847,
condition files/Stage1_2.xlsx,,T4,B4,m,"['c', 'm']","['Clue', 'Monopoly']","[-0.15, 0.5]","[0.15, 0.5]",1,1,,,,,,,,,0,11,11,11,0,6,6,7,,,,,,,,,,,,,,,,,,,,,,,,,,,,,,,,,,,,,,,,,,,,,,,,,,,,,,,911.6847108670008,None,911.6847108670008,None,911.6847108670008,None,m,1,1.0965050619997783,913.2193256570008,None,913.2193256570008,None,913.2193256570008,None,914.3708945940016,None,914.3708945940016,None,914.3708945940016,None,914.3708945940016,None,,,,,,,,,,,,,,,,,,,,,,,,,,,,,,,,,,,,,,,,,,,,001,179,2020_Feb_27_1054,spring_faces,3.1.5,60.0347992915847,
condition files/Stage1_2.xlsx,,T1,B2,m,"['c', 'm']","['Clue', 'Monopoly']","[-0.15, 0.5]","[0.15, 0.5]",1,1,,,,,,,,,0,11,11,11,0,7,7,2,,,,,,,,,,,,,,,,,,,,,,,,,,,,,,,,,,,,,,,,,,,,,,,,,,,,,,,916.335269571,None,916.335269571,None,916.335269571,None,m,1,0.9908264869991399,917.8690722990013,None,917.8690722990013,None,917.8690722990013,None,918.9186536400011,None,918.9186536400011,None,918.9186536400011,None,918.9186536400011,None,,,,,,,,,,,,,,,,,,,,,,,,,,,,,,,,,,,,,,,,,,,,001,179,2020_Feb_27_1054,spring_faces,3.1.5,60.0347992915847,
,,,,,,,,,,,,,,,,,,,,,,,,,,,,,,,,,,,,,,,,,,,,,,,,,,,,,,,,,,,,,,,,,,,,,,,,,,,,,,,,,,,,,,,,,,,,,,,,,,,,,,,,,,,,,,,,920.901639054,None,space,6.462076802999945,925.9017533240003,None,,,,,,,,,,,,,,,,,,,,,,,,,,,,,,001,179,2020_Feb_27_1054,spring_faces,3.1.5,60.0347992915847,
condition files/Stage2_1.xlsx,,T5,B5,s,"['s', 'r']","['Stratego', 'Risk']","[-0.15, 0.5]","[0.15, 0.5]",1,1,,,,,,,,,,,,,,,,,0,0,0,0,0,0,0,0,,,,,,,,,,,,,,,,,,,,,,,,,,,,,,,,,,,,,,,,,,,,,,,932.4187394170003,None,932.4187394170003,None,932.4187394170003,None,r,0,1.5327932349991897,933.935045536,None,933.935045536,None,933.935045536,None,935.5210120030006,None,935.5210120030006,None,935.5210120030006,None,935.5210120030006,None,,,,,,,,,,,,,,,925.9017533240003,None,,,,,,,,,,,,,,,,,,,,,,,,,,,,001,179,2020_Feb_27_1054,spring_faces,3.1.5,60.0347992915847,
condition files/Stage2_1.xlsx,,B6,T6,r,"['s', 'r']","['Stratego', 'Risk']","[-0.15, 0.5]","[0.15, 0.5]",1,1,,,,,,,,,,,,,,,,,0,0,0,0,0,1,1,1,,,,,,,,,,,,,,,,,,,,,,,,,,,,,,,,,,,,,,,,,,,,,,,937.4848472320009,None,937.4848472320009,None,937.4848472320009,None,r,1,1.6326468469997053,939.0351755860011,None,939.0351755860011,None,939.0351755860011,None,940.7352850380012,None,940.7352850380012,None,940.7352850380012,None,940.7352850380012,None,,,,,,,,,,,,,,,,,,,,,,,,,,,,,,,,,,,,,,,,,,,,001,179,2020_Feb_27_1054,spring_faces,3.1.5,60.0347992915847,
condition files/Stage2_1.xlsx,,T1,B1,s,"['s', 'r']","['Stratego', 'Risk']","[-0.15, 0.5]","[0.15, 0.5]",1,1,,,,,,,,,,,,,,,,,0,0,0,0,0,2,2,2,,,,,,,,,,,,,,,,,,,,,,,,,,,,,,,,,,,,,,,,,,,,,,,942.6848184300015,None,942.6848184300015,None,942.6848184300015,None,s,1,2.0806952849998197,944.2191404390014,None,944.2191404390014,None,944.2191404390014,None,946.3540736390005,None,946.3540736390005,None,946.3540736390005,None,946.3540736390005,None,,,,,,,,,,,,,,,,,,,,,,,,,,,,,,,,,,,,,,,,,,,,001,179,2020_Feb_27_1054,spring_faces,3.1.5,60.0347992915847,
condition files/Stage2_1.xlsx,,B4,T4,r,"['s', 'r']","['Stratego', 'Risk']","[-0.15, 0.5]","[0.15, 0.5]",1,1,,,,,,,,,,,,,,,,,0,0,0,0,0,3,3,5,,,,,,,,,,,,,,,,,,,,,,,,,,,,,,,,,,,,,,,,,,,,,,,948.3180021610005,None,948.3180021610005,None,948.3180021610005,None,s,0,0.9592649639998854,949.8526331660014,None,949.8526331660014,None,949.8526331660014,None,950.8689595560008,None,950.8689595560008,None,950.8689595560008,None,950.8689595560008,None,,,,,,,,,,,,,,,,,,,,,,,,,,,,,,,,,,,,,,,,,,,,001,179,2020_Feb_27_1054,spring_faces,3.1.5,60.0347992915847,
condition files/Stage2_1.xlsx,,T3,B3,s,"['s', 'r']","['Stratego', 'Risk']","[-0.15, 0.5]","[0.15, 0.5]",1,1,,,,,,,,,,,,,,,,,0,0,0,0,0,4,4,4,,,,,,,,,,,,,,,,,,,,,,,,,,,,,,,,,,,,,,,,,,,,,,,952.8346337560015,None,952.8346337560015,None,952.8346337560015,None,r,0,1.1303982970002835,954.3694440380004,None,954.3694440380004,None,954.3694440380004,None,955.5685297670007,None,955.5685297670007,None,955.5685297670007,None,955.5685297670007,None,,,,,,,,,,,,,,,,,,,,,,,,,,,,,,,,,,,,,,,,,,,,001,179,2020_Feb_27_1054,spring_faces,3.1.5,60.0347992915847,
condition files/Stage2_1.xlsx,,B2,T2,r,"['s', 'r']","['Stratego', 'Risk']","[-0.15, 0.5]","[0.15, 0.5]",1,1,,,,,,,,,,,,,,,,,0,0,0,0,0,5,5,3,,,,,,,,,,,,,,,,,,,,,,,,,,,,,,,,,,,,,,,,,,,,,,,957.5182592370002,None,957.5182592370002,None,957.5182592370002,None,s,0,1.3597432450005726,959.0680989820012,None,959.0680989820012,None,959.0680989820012,None,960.5016217339999,None,960.5016217339999,None,960.5016217339999,None,960.5016217339999,None,,,,,,,,,,,,,,,,,,,,,,,,,,,,,,,,,,,,,,,,,,,,001,179,2020_Feb_27_1054,spring_faces,3.1.5,60.0347992915847,
condition files/Stage2_2.xlsx,,T2,B2,r,"['s', 'r']","['Stratego', 'Risk']","[-0.15, 0.5]","[0.15, 0.5]",1,1,,,,,,,,,,,,,,,,,0,1,1,1,0,0,0,3,,,,,,,,,,,,,,,,,,,,,,,,,,,,,,,,,,,,,,,,,,,,,,,962.4679328820002,None,962.4679328820002,None,962.4679328820002,None,r,1,0.9198122329999023,964.0040303260012,None,964.0040303260012,None,964.0040303260012,None,964.9854290720014,None,964.9854290720014,None,964.9854290720014,None,964.9854290720014,None,,,,,,,,,,,,,,,,,,,,,,,,,,,,,,,,,,,,,,,,,,,,001,179,2020_Feb_27_1054,spring_faces,3.1.5,60.0347992915847,
condition files/Stage2_2.xlsx,,B3,T3,s,"['s', 'r']","['Stratego', 'Risk']","[-0.15, 0.5]","[0.15, 0.5]",1,1,,,,,,,,,,,,,,,,,0,1,1,1,0,1,1,4,,,,,,,,,,,,,,,,,,,,,,,,,,,,,,,,,,,,,,,,,,,,,,,966.9510766150015,None,966.9510766150015,None,966.9510766150015,None,r,0,0.9823880450003344,968.5014281300009,None,968.5014281300009,None,968.5014281300009,None,969.5367410220006,None,969.5367410220006,None,969.5367410220006,None,969.5367410220006,None,,,,,,,,,,,,,,,,,,,,,,,,,,,,,,,,,,,,,,,,,,,,001,179,2020_Feb_27_1054,spring_faces,3.1.5,60.0347992915847,
condition files/Stage2_2.xlsx,,T4,B4,r,"['s', 'r']","['Stratego', 'Risk']","[-0.15, 0.5]","[0.15, 0.5]",1,1,,,,,,,,,,,,,,,,,0,1,1,1,0,2,2,5,,,,,,,,,,,,,,,,,,,,,,,,,,,,,,,,,,,,,,,,,,,,,,,971.501230273001,None,971.501230273001,None,971.501230273001,None,s,0,1.2808134599999903,973.0511330570007,None,973.0511330570007,None,973.0511330570007,None,974.3878040610016,None,974.3878040610016,None,974.3878040610016,None,974.3878040610016,None,,,,,,,,,,,,,,,,,,,,,,,,,,,,,,,,,,,,,,,,,,,,001,179,2020_Feb_27_1054,spring_faces,3.1.5,60.0347992915847,
condition files/Stage2_2.xlsx,,B5,T5,s,"['s', 'r']","['Stratego', 'Risk']","[-0.15, 0.5]","[0.15, 0.5]",1,1,,,,,,,,,,,,,,,,,0,1,1,1,0,3,3,0,,,,,,,,,,,,,,,,,,,,,,,,,,,,,,,,,,,,,,,,,,,,,,,976.3521662359999,None,976.3521662359999,None,976.3521662359999,None,r,0,1.87000960000114,977.9018196320012,None,977.9018196320012,None,977.9018196320012,None,979.8518901820007,None,979.8518901820007,None,979.8518901820007,None,979.8518901820007,None,,,,,,,,,,,,,,,,,,,,,,,,,,,,,,,,,,,,,,,,,,,,001,179,2020_Feb_27_1054,spring_faces,3.1.5,60.0347992915847,
condition files/Stage2_2.xlsx,,T6,B6,r,"['s', 'r']","['Stratego', 'Risk']","[-0.15, 0.5]","[0.15, 0.5]",1,1,,,,,,,,,,,,,,,,,0,1,1,1,0,4,4,1,,,,,,,,,,,,,,,,,,,,,,,,,,,,,,,,,,,,,,,,,,,,,,,981.801236958001,None,981.801236958001,None,981.801236958001,None,r,1,1.1557887969993317,983.3361152900015,None,983.3361152900015,None,983.3361152900015,None,984.552140017,None,984.552140017,None,984.552140017,None,984.552140017,None,,,,,,,,,,,,,,,,,,,,,,,,,,,,,,,,,,,,,,,,,,,,001,179,2020_Feb_27_1054,spring_faces,3.1.5,60.0347992915847,
condition files/Stage2_2.xlsx,,B1,T1,s,"['s', 'r']","['Stratego', 'Risk']","[-0.15, 0.5]","[0.15, 0.5]",1,1,,,,,,,,,,,,,,,,,0,1,1,1,0,5,5,2,,,,,,,,,,,,,,,,,,,,,,,,,,,,,,,,,,,,,,,,,,,,,,,986.5179663350009,None,986.5179663350009,None,986.5179663350009,None,s,1,1.1594263810002303,988.0524777340015,None,988.0524777340015,None,988.0524777340015,None,989.2846006100008,None,989.2846006100008,None,989.2846006100008,None,989.2846006100008,None,,,,,,,,,,,,,,,,,,,,,,,,,,,,,,,,,,,,,,,,,,,,001,179,2020_Feb_27_1054,spring_faces,3.1.5,60.0347992915847,
condition files/Stage2_1.xlsx,,B2,T2,r,"['s', 'r']","['Stratego', 'Risk']","[-0.15, 0.5]","[0.15, 0.5]",1,1,,,,,,,,,,,,,,,,,0,2,2,2,0,0,0,3,,,,,,,,,,,,,,,,,,,,,,,,,,,,,,,,,,,,,,,,,,,,,,,991.2518620900009,None,991.2518620900009,None,991.2518620900009,None,s,0,2.2659573490000184,992.8018728960014,None,992.8018728960014,None,992.8018728960014,None,995.1352002750009,None,995.1352002750009,None,995.1352002750009,None,995.1352002750009,None,,,,,,,,,,,,,,,,,,,,,,,,,,,,,,,,,,,,,,,,,,,,001,179,2020_Feb_27_1054,spring_faces,3.1.5,60.0347992915847,
condition files/Stage2_1.xlsx,,B6,T6,r,"['s', 'r']","['Stratego', 'Risk']","[-0.15, 0.5]","[0.15, 0.5]",1,1,,,,,,,,,,,,,,,,,0,2,2,2,0,1,1,1,,,,,,,,,,,,,,,,,,,,,,,,,,,,,,,,,,,,,,,,,,,,,,,997.0849376450005,None,997.0849376450005,None,997.0849376450005,None,r,1,1.280705876999491,998.635114404,None,998.635114404,None,998.635114404,None,999.9681541110003,None,999.9681541110003,None,999.9681541110003,None,999.9681541110003,None,,,,,,,,,,,,,,,,,,,,,,,,,,,,,,,,,,,,,,,,,,,,001,179,2020_Feb_27_1054,spring_faces,3.1.5,60.0347992915847,
condition files/Stage2_1.xlsx,,B4,T4,r,"['s', 'r']","['Stratego', 'Risk']","[-0.15, 0.5]","[0.15, 0.5]",1,1,,,,,,,,,,,,,,,,,0,2,2,2,0,2,2,5,,,,,,,,,,,,,,,,,,,,,,,,,,,,,,,,,,,,,,,,,,,,,,,1001.934320018001,None,1001.934320018001,None,1001.934320018001,None,r,1,1.1650905279984727,1003.4707048950004,None,1003.4707048950004,None,1003.4707048950004,None,1004.701666152001,None,1004.701666152001,None,1004.701666152001,None,1004.701666152001,None,,,,,,,,,,,,,,,,,,,,,,,,,,,,,,,,,,,,,,,,,,,,001,179,2020_Feb_27_1054,spring_faces,3.1.5,60.0347992915847,
condition files/Stage2_1.xlsx,,T1,B1,s,"['s', 'r']","['Stratego', 'Risk']","[-0.15, 0.5]","[0.15, 0.5]",1,1,,,,,,,,,,,,,,,,,0,2,2,2,0,3,3,2,,,,,,,,,,,,,,,,,,,,,,,,,,,,,,,,,,,,,,,,,,,,,,,1006.6679134310016,None,1006.6679134310016,None,1006.6679134310016,None,s,1,1.072464017999664,1008.2034430900003,None,1008.2034430900003,None,1008.2034430900003,None,1009.3519558750013,None,1009.3519558750013,None,1009.3519558750013,None,1009.3519558750013,None,,,,,,,,,,,,,,,,,,,,,,,,,,,,,,,,,,,,,,,,,,,,001,179,2020_Feb_27_1054,spring_faces,3.1.5,60.0347992915847,
condition files/Stage2_1.xlsx,,T5,B5,s,"['s', 'r']","['Stratego', 'Risk']","[-0.15, 0.5]","[0.15, 0.5]",1,1,,,,,,,,,,,,,,,,,0,2,2,2,0,4,4,0,,,,,,,,,,,,,,,,,,,,,,,,,,,,,,,,,,,,,,,,,,,,,,,1011.3012674230013,None,1011.3012674230013,None,1011.3012674230013,None,s,1,1.9603129730003275,1012.8355189869999,None,1012.8355189869999,None,1012.8355189869999,None,1014.8518845020008,None,1014.8518845020008,None,1014.8518845020008,None,1014.8518845020008,None,,,,,,,,,,,,,,,,,,,,,,,,,,,,,,,,,,,,,,,,,,,,001,179,2020_Feb_27_1054,spring_faces,3.1.5,60.0347992915847,
condition files/Stage2_1.xlsx,,T3,B3,s,"['s', 'r']","['Stratego', 'Risk']","[-0.15, 0.5]","[0.15, 0.5]",1,1,,,,,,,,,,,,,,,,,0,2,2,2,0,5,5,4,,,,,,,,,,,,,,,,,,,,,,,,,,,,,,,,,,,,,,,,,,,,,,,1016.8181562930004,None,1016.8181562930004,None,1016.8181562930004,None,s,1,1.3862872110003082,1018.3535627150013,None,1018.3535627150013,None,1018.3535627150013,None,1019.801970165001,None,1019.801970165001,None,1019.801970165001,None,1019.801970165001,None,,,,,,,,,,,,,,,,,,,,,,,,,,,,,,,,,,,,,,,,,,,,001,179,2020_Feb_27_1054,spring_faces,3.1.5,60.0347992915847,
condition files/Stage2_2.xlsx,,B1,T1,s,"['s', 'r']","['Stratego', 'Risk']","[-0.15, 0.5]","[0.15, 0.5]",1,1,,,,,,,,,,,,,,,,,0,3,3,3,0,0,0,2,,,,,,,,,,,,,,,,,,,,,,,,,,,,,,,,,,,,,,,,,,,,,,,1021.7852657820004,None,1021.7852657820004,None,1021.7852657820004,None,s,1,1.283969273999901,1023.3198791620016,None,1023.3198791620016,None,1023.3198791620016,None,1024.66782058,None,1024.66782058,None,1024.66782058,None,1024.66782058,None,,,,,,,,,,,,,,,,,,,,,,,,,,,,,,,,,,,,,,,,,,,,001,179,2020_Feb_27_1054,spring_faces,3.1.5,60.0347992915847,
condition files/Stage2_2.xlsx,,B5,T5,s,"['s', 'r']","['Stratego', 'Risk']","[-0.15, 0.5]","[0.15, 0.5]",1,1,,,,,,,,,,,,,,,,,0,3,3,3,0,1,1,0,,,,,,,,,,,,,,,,,,,,,,,,,,,,,,,,,,,,,,,,,,,,,,,1026.6341174810004,None,1026.6341174810004,None,1026.6341174810004,None,s,1,1.5554080389993032,1028.16844985,None,1028.16844985,None,1028.16844985,None,1029.7850811340013,None,1029.7850811340013,None,1029.7850811340013,None,1029.7850811340013,None,,,,,,,,,,,,,,,,,,,,,,,,,,,,,,,,,,,,,,,,,,,,001,179,2020_Feb_27_1054,spring_faces,3.1.5,60.0347992915847,
condition files/Stage2_2.xlsx,,T2,B2,r,"['s', 'r']","['Stratego', 'Risk']","[-0.15, 0.5]","[0.15, 0.5]",1,1,,,,,,,,,,,,,,,,,0,3,3,3,0,2,2,3,,,,,,,,,,,,,,,,,,,,,,,,,,,,,,,,,,,,,,,,,,,,,,,1031.751373176001,None,1031.751373176001,None,1031.751373176001,None,r,1,1.2858141329998034,1033.2860337520015,None,1033.2860337520015,None,1033.2860337520015,None,1034.6349529750005,None,1034.6349529750005,None,1034.6349529750005,None,1034.6349529750005,None,,,,,,,,,,,,,,,,,,,,,,,,,,,,,,,,,,,,,,,,,,,,001,179,2020_Feb_27_1054,spring_faces,3.1.5,60.0347992915847,
condition files/Stage2_2.xlsx,,B3,T3,s,"['s', 'r']","['Stratego', 'Risk']","[-0.15, 0.5]","[0.15, 0.5]",1,1,,,,,,,,,,,,,,,,,0,3,3,3,0,3,3,4,,,,,,,,,,,,,,,,,,,,,,,,,,,,,,,,,,,,,,,,,,,,,,,1036.6016206080003,None,1036.6016206080003,None,1036.6016206080003,None,s,1,1.2529949119998491,1038.1348368,None,1038.1348368,None,1038.1348368,None,1039.4686594190007,None,1039.4686594190007,None,1039.4686594190007,None,1039.4686594190007,None,,,,,,,,,,,,,,,,,,,,,,,,,,,,,,,,,,,,,,,,,,,,001,179,2020_Feb_27_1054,spring_faces,3.1.5,60.0347992915847,
condition files/Stage2_2.xlsx,,T4,B4,r,"['s', 'r']","['Stratego', 'Risk']","[-0.15, 0.5]","[0.15, 0.5]",1,1,,,,,,,,,,,,,,,,,0,3,3,3,0,4,4,5,,,,,,,,,,,,,,,,,,,,,,,,,,,,,,,,,,,,,,,,,,,,,,,1041.4183415740008,None,1041.4183415740008,None,1041.4183415740008,None,r,1,1.5246590099995956,1042.9512395890015,None,1042.9512395890015,None,1042.9512395890015,None,1044.537093543,None,1044.537093543,None,1044.537093543,None,1044.537093543,None,,,,,,,,,,,,,,,,,,,,,,,,,,,,,,,,,,,,,,,,,,,,001,179,2020_Feb_27_1054,spring_faces,3.1.5,60.0347992915847,
condition files/Stage2_2.xlsx,,T6,B6,r,"['s', 'r']","['Stratego', 'Risk']","[-0.15, 0.5]","[0.15, 0.5]",1,1,,,,,,,,,,,,,,,,,0,3,3,3,0,5,5,1,,,,,,,,,,,,,,,,,,,,,,,,,,,,,,,,,,,,,,,,,,,,,,,1046.5013037450008,None,1046.5013037450008,None,1046.5013037450008,None,r,1,0.9050969950003491,1048.0347564929998,None,1048.0347564929998,None,1048.0347564929998,None,1049.0013544770009,None,1049.0013544770009,None,1049.0013544770009,None,1049.0013544770009,None,,,,,,,,,,,,,,,,,,,,,,,,,,,,,,,,,,,,,,,,,,,,001,179,2020_Feb_27_1054,spring_faces,3.1.5,60.0347992915847,
condition files/Stage2_1.xlsx,,T1,B1,s,"['s', 'r']","['Stratego', 'Risk']","[-0.15, 0.5]","[0.15, 0.5]",1,1,,,,,,,,,,,,,,,,,0,4,4,4,0,0,0,2,,,,,,,,,,,,,,,,,,,,,,,,,,,,,,,,,,,,,,,,,,,,,,,1050.985395402,None,1050.985395402,None,1050.985395402,None,s,1,1.7489454910009954,1052.5188996470006,None,1052.5188996470006,None,1052.5188996470006,None,1054.334803822001,None,1054.334803822001,None,1054.334803822001,None,1054.334803822001,None,,,,,,,,,,,,,,,,,,,,,,,,,,,,,,,,,,,,,,,,,,,,001,179,2020_Feb_27_1054,spring_faces,3.1.5,60.0347992915847,
condition files/Stage2_1.xlsx,,T5,B5,s,"['s', 'r']","['Stratego', 'Risk']","[-0.15, 0.5]","[0.15, 0.5]",1,1,,,,,,,,,,,,,,,,,0,4,4,4,0,1,1,0,,,,,,,,,,,,,,,,,,,,,,,,,,,,,,,,,,,,,,,,,,,,,,,1056.284892996,None,1056.284892996,None,1056.284892996,None,s,1,1.4070260660009808,1057.8208561320007,None,1057.8208561320007,None,1057.8208561320007,None,1059.2854011730014,None,1059.2854011730014,None,1059.2854011730014,None,1059.2854011730014,None,,,,,,,,,,,,,,,,,,,,,,,,,,,,,,,,,,,,,,,,,,,,001,179,2020_Feb_27_1054,spring_faces,3.1.5,60.0347992915847,
condition files/Stage2_1.xlsx,,T3,B3,s,"['s', 'r']","['Stratego', 'Risk']","[-0.15, 0.5]","[0.15, 0.5]",1,1,,,,,,,,,,,,,,,,,0,4,4,4,0,2,2,4,,,,,,,,,,,,,,,,,,,,,,,,,,,,,,,,,,,,,,,,,,,,,,,1061.2515988100004,None,1061.2515988100004,None,1061.2515988100004,None,s,1,1.2430756890007615,1062.784788719,None,1062.784788719,None,1062.784788719,None,1064.0851974329998,None,1064.0851974329998,None,1064.0851974329998,None,1064.0851974329998,None,,,,,,,,,,,,,,,,,,,,,,,,,,,,,,,,,,,,,,,,,,,,001,179,2020_Feb_27_1054,spring_faces,3.1.5,60.0347992915847,
