condsFile,subStage,cue1,cue2,correct,responseKeys,responseNames,cue1Position,cue2Position,cue1Opacity,cue2Opacity,stageLoop0.thisRepN,stageLoop0.thisTrialN,stageLoop0.thisN,stageLoop0.thisIndex,blockLoop0.thisRepN,blockLoop0.thisTrialN,blockLoop0.thisN,blockLoop0.thisIndex,stage1Loop.thisRepN,stage1Loop.thisTrialN,stage1Loop.thisN,stage1Loop.thisIndex,blockLoop1.thisRepN,blockLoop1.thisTrialN,blockLoop1.thisN,blockLoop1.thisIndex,stage2Loop.thisRepN,stage2Loop.thisTrialN,stage2Loop.thisN,stage2Loop.thisIndex,blockLoop2.thisRepN,blockLoop2.thisTrialN,blockLoop2.thisN,blockLoop2.thisIndex,testLoop.thisRepN,testLoop.thisTrialN,testLoop.thisN,testLoop.thisIndex,blockLoopTest.thisRepN,blockLoopTest.thisTrialN,blockLoopTest.thisN,blockLoopTest.thisIndex,cuePics,id_instr_text.started,id_instr_text.stopped,space_to_continue_2.started,space_to_continue_2.stopped,end_instructions_resp_3.keys,end_instructions_resp_3.rt,end_instructions_resp_3.started,end_instructions_resp_3.stopped,id_input_instr.started,id_input_instr.stopped,id_input_rect.started,id_input_rect.stopped,id_input_resp.keys,id_input_resp.rt,id_input_resp.started,id_input_resp.stopped,sonaID,id_input_text.started,id_input_text.stopped,final_text.started,final_text.stopped,instructions.started,instructions.stopped,end_instructions_resp.keys,end_instructions_resp.rt,end_instructions_resp.started,end_instructions_resp.stopped,space_to_continue.started,space_to_continue.stopped,instructions_stage0.started,instructions_stage0.stopped,end_instructions_resp_stage0.keys,end_instructions_resp_stage0.rt,end_instructions_resp_stage0.started,end_instructions_resp_stage0.stopped,space_to_continue_stage0.started,space_to_continue_stage0.stopped,text.started,text.stopped,resp_text1.started,resp_text1.stopped,resp_text2.started,resp_text2.stopped,trial_resp.keys,trial_resp.corr,trial_resp.rt,trial_resp.started,trial_resp.stopped,cue1Image.started,cue1Image.stopped,cue2Image.started,cue2Image.stopped,cue1Image_fb.started,cue1Image_fb.stopped,cue2Image_fb.started,cue2Image_fb.stopped,fb_text_answer.started,fb_text_answer.stopped,feedback_image.started,feedback_image.stopped,instructions_stage1.started,instructions_stage1.stopped,end_instructions_resp_stage1.keys,end_instructions_resp_stage1.rt,end_instructions_resp_stage1.started,end_instructions_resp_stage1.stopped,space_to_continue_stage1.started,space_to_continue_stage1.stopped,instructions_2.started,instructions_2.stopped,end_instructions_resp_2.keys,end_instructions_resp_2.rt,end_instructions_resp_2.started,end_instructions_resp_2.stopped,press_space_to_continue_stage2.started,press_space_to_continue_stage2.stopped,instructions_testStage1.started,instructions_testStage1.stopped,end_instructions_resp_test1.keys,end_instructions_resp_test1.rt,end_instructions_resp_test1.started,end_instructions_resp_test1.stopped,press_space_to_continue_test1.started,press_space_to_continue_test1.stopped,cue1Image_testChoice.started,cue1Image_testChoice.stopped,cue2Image_testChoice.started,cue2Image_testChoice.stopped,test_resp.keys,test_resp.corr,test_resp.rt,test_resp.started,test_resp.stopped,cue1Image_testConf.started,cue1Image_testConf.stopped,cue2Image_testConf.started,cue2Image_testConf.stopped,conf_reminder.started,conf_reminder.stopped,conf_rating.response,conf_rating.rt,conf_rating.started,conf_rating.stopped,session,participant,date,expName,psychopyVersion,frameRate,
,,,,,,,,,,,,,,,,,,,,,,,,,,,,,,,,,,,,,,,,,,,"{'none': 'pictures/20M_AN_C.png', 'alpha': 'pictures/SHINEd_pepper.png', 'beta': 'pictures/SHINEd_melon.png', 'theta': 'pictures/SHINEd_apple.png', 'phi': 'pictures/SHINEd_pear.png', 'T1': 'pictures/23M_AN_C.png', 'T2': 'pictures/26M_AN_C.png', 'T3': 'pictures/32M_AN_C.png', 'T4': 'pictures/36M_AN_C.png', 'T5': 'pictures/38M_AN_C.png', 'T6': 'pictures/20M_AN_C.png', 'B1': 'pictures/33M_NE_C.png', 'B2': 'pictures/34M_NE_C.png', 'B3': 'pictures/22M_NE_C.png', 'B4': 'pictures/31M_NE_C.png', 'B5': 'pictures/25M_NE_C.png', 'B6': 'pictures/37M_NE_C.png'}",246.22358115899988,None,251.22314678600014,None,space,8.281945188999089,251.22314678600014,None,,,,,,,,,,,,,,,,,,,,,,,,,,,,,,,,,,,,,,,,,,,,,,,,,,,,,,,,,,,,,,,,,,,,,,,,,,,,,,,,,,,,,,,,,,,,,,,,001,17,2020_Jan_28_1453,spring_faces,3.1.5,60.068242329068426,
,,,,,,,,,,,,,,,,,,,,,,,,,,,,,,,,,,,,,,,,,,,,,,,,,,,,259.8906079039989,None,259.8906079039989,None,"['c', 'j', 'd', 'o', 'h', 'backspace', 'backspace', 'backspace', 'backspace', 'backspace', '0', '5', '0', '3', 'c', 'i', 'd', 'o', 'h']","[43.26249637399815, 43.614492224998685, 43.918433725000796, 44.19044997799938, 44.750436127000285, 45.66245636199892, 45.85450726599811, 46.03049095700044, 46.222505185000045, 46.70244578299753, 50.97456141699877, 51.71049749499798, 52.414489053997386, 52.87849546099824, 53.37456583399762, 53.96650600999783, 55.05449385400061, 55.198490148999554, 55.55044309599907]",259.8906079039989,None,,,,,,,,,,,,,,,,,,,,,,,,,,,,,,,,,,,,,,,,,,,,,,,,,,,,,,,,,,,,,,,,,,,,,,,,,,,,,,,,,,,,,,,,001,17,2020_Jan_28_1453,spring_faces,3.1.5,60.068242329068426,
,,,,,,,,,,,,,,,,,,,,,,,,,,,,,,,,,,,,,,,,,,,,,,,,,,,,,,,,,,,,0503cidoh,259.8906079039989,None,259.8906079039989,None,320.52343902499706,None,space,5.276954828997987,325.52413578599953,None,,,,,,,,,,,,,,,,,,,,,,,,,,,,,,,,,,,,,,,,,,,,,,,,,,,,,,,,,,,,,,,,,,,,,,,,,,,,,001,17,2020_Jan_28_1453,spring_faces,3.1.5,60.068242329068426,
,,,,,,,,,,,,,,,,,,,,,,,,,,,,,,,,,,,,,,,,,,,,,,,,,,,,,,,,,,,,,,,,,,,,,,,325.52413578599953,None,330.8406036649976,None,space,11.984665356998448,335.8404294599968,None,,,,,,,,,,,,,,,,,,,,,,,,,,,,,,,,,,,,,,,,,,,,,,,,,,,,,,,,,,,,,,,,,,,,,001,17,2020_Jan_28_1453,spring_faces,3.1.5,60.068242329068426,
condition files/Stage0a.xlsx,0a,beta,none,g,"['h', 'g']","['Chess', 'Go']","[0, 0.5]","[0, 0]",1,0,0,0,0,0,0,0,0,1,,,,,,,,,,,,,,,,,,,,,,,,,,,,,,,,,,,,,,,,,,,,,,,,,,,,,,,,,,,,,335.8404294599968,None,347.8905638599972,None,347.8905638599972,None,347.8905638599972,None,h,0,3.6324587570015865,349.4566635989977,None,349.4566635989977,None,349.4566635989977,None,353.15685926899823,None,353.15685926899823,None,353.15685926899823,None,353.15685926899823,None,,,,,,,,,,,,,,,,,,,,,,,,,,,,,,,,,,,,,,,,,,,,001,17,2020_Jan_28_1453,spring_faces,3.1.5,60.068242329068426,
condition files/Stage0a.xlsx,0a,alpha,none,h,"['h', 'g']","['Chess', 'Go']","[0, 0.5]","[0, 0]",1,0,0,0,0,0,0,1,1,0,,,,,,,,,,,,,,,,,,,,,,,,,,,,,,,,,,,,,,,,,,,,,,,,,,,,,,,,,,,,,,,355.10630994599705,None,355.10630994599705,None,355.10630994599705,None,h,1,2.015977489998477,356.65711470199676,None,356.65711470199676,None,356.65711470199676,None,358.7241417969999,None,358.7241417969999,None,358.7241417969999,None,358.7241417969999,None,,,,,,,,,,,,,,,,,,,,,,,,,,,,,,,,,,,,,,,,,,,,001,17,2020_Jan_28_1453,spring_faces,3.1.5,60.068242329068426,
condition files/Stage0a.xlsx,0a,alpha,none,h,"['h', 'g']","['Chess', 'Go']","[0, 0.5]","[0, 0]",1,0,0,1,1,1,0,0,0,0,,,,,,,,,,,,,,,,,,,,,,,,,,,,,,,,,,,,,,,,,,,,,,,,,,,,,,,,,,,,,,,360.70653044699793,None,360.70653044699793,None,360.70653044699793,None,h,1,0.7686076380014129,362.24046179200013,None,362.24046179200013,None,362.24046179200013,None,363.07371839199914,None,363.07371839199914,None,363.07371839199914,None,363.07371839199914,None,,,,,,,,,,,,,,,,,,,,,,,,,,,,,,,,,,,,,,,,,,,,001,17,2020_Jan_28_1453,spring_faces,3.1.5,60.068242329068426,
condition files/Stage0a.xlsx,0a,beta,none,g,"['h', 'g']","['Chess', 'Go']","[0, 0.5]","[0, 0]",1,0,0,1,1,1,0,1,1,1,,,,,,,,,,,,,,,,,,,,,,,,,,,,,,,,,,,,,,,,,,,,,,,,,,,,,,,,,,,,,,,365.0402248029968,None,365.0402248029968,None,365.0402248029968,None,g,1,0.5787233099981677,366.5744004329972,None,366.5744004329972,None,366.5744004329972,None,367.20926164999764,None,367.20926164999764,None,367.20926164999764,None,367.20926164999764,None,,,,,,,,,,,,,,,,,,,,,,,,,,,,,,,,,,,,,,,,,,,,001,17,2020_Jan_28_1453,spring_faces,3.1.5,60.068242329068426,
condition files/Stage0a.xlsx,0a,beta,none,g,"['h', 'g']","['Chess', 'Go']","[0, 0.5]","[0, 0]",1,0,0,2,2,2,0,0,0,1,,,,,,,,,,,,,,,,,,,,,,,,,,,,,,,,,,,,,,,,,,,,,,,,,,,,,,,,,,,,,,,369.18992505200004,None,369.18992505200004,None,369.18992505200004,None,g,1,2.1251973819998966,370.72397196399834,None,370.72397196399834,None,370.72397196399834,None,372.9065664519985,None,372.9065664519985,None,372.9065664519985,None,372.9065664519985,None,,,,,,,,,,,,,,,,,,,,,,,,,,,,,,,,,,,,,,,,,,,,001,17,2020_Jan_28_1453,spring_faces,3.1.5,60.068242329068426,
condition files/Stage0a.xlsx,0a,alpha,none,h,"['h', 'g']","['Chess', 'Go']","[0, 0.5]","[0, 0]",1,0,0,2,2,2,0,1,1,0,,,,,,,,,,,,,,,,,,,,,,,,,,,,,,,,,,,,,,,,,,,,,,,,,,,,,,,,,,,,,,,374.87353956699735,None,374.87353956699735,None,374.87353956699735,None,h,1,0.7945431299995107,376.4065742919993,None,376.4065742919993,None,376.4065742919993,None,377.2570745939993,None,377.2570745939993,None,377.2570745939993,None,377.2570745939993,None,,,,,,,,,,,,,,,,,,,,,,,,,,,,,,,,,,,,,,,,,,,,001,17,2020_Jan_28_1453,spring_faces,3.1.5,60.068242329068426,
condition files/Stage0a.xlsx,0a,beta,none,g,"['h', 'g']","['Chess', 'Go']","[0, 0.5]","[0, 0]",1,0,0,3,3,3,0,0,0,1,,,,,,,,,,,,,,,,,,,,,,,,,,,,,,,,,,,,,,,,,,,,,,,,,,,,,,,,,,,,,,,379.2400386879999,None,379.2400386879999,None,379.2400386879999,None,g,1,0.9549612699993304,380.7741529399973,None,380.7741529399973,None,380.7741529399973,None,381.790268681998,None,381.790268681998,None,381.790268681998,None,381.790268681998,None,,,,,,,,,,,,,,,,,,,,,,,,,,,,,,,,,,,,,,,,,,,,001,17,2020_Jan_28_1453,spring_faces,3.1.5,60.068242329068426,
condition files/Stage0a.xlsx,0a,alpha,none,h,"['h', 'g']","['Chess', 'Go']","[0, 0.5]","[0, 0]",1,0,0,3,3,3,0,1,1,0,,,,,,,,,,,,,,,,,,,,,,,,,,,,,,,,,,,,,,,,,,,,,,,,,,,,,,,,,,,,,,,383.7565147919995,None,383.7565147919995,None,383.7565147919995,None,h,1,0.40763347699976293,385.28945459699753,None,385.28945459699753,None,385.28945459699753,None,385.75737729499815,None,385.75737729499815,None,385.75737729499815,None,385.75737729499815,None,,,,,,,,,,,,,,,,,,,,,,,,,,,,,,,,,,,,,,,,,,,,001,17,2020_Jan_28_1453,spring_faces,3.1.5,60.068242329068426,
condition files/Stage0a.xlsx,0a,alpha,none,h,"['h', 'g']","['Chess', 'Go']","[0, 0.5]","[0, 0]",1,0,0,4,4,4,0,0,0,0,,,,,,,,,,,,,,,,,,,,,,,,,,,,,,,,,,,,,,,,,,,,,,,,,,,,,,,,,,,,,,,387.74067979699976,None,387.74067979699976,None,387.74067979699976,None,h,1,0.743583449999278,389.27359929499653,None,389.27359929499653,None,389.27359929499653,None,390.0740965969999,None,390.0740965969999,None,390.0740965969999,None,390.0740965969999,None,,,,,,,,,,,,,,,,,,,,,,,,,,,,,,,,,,,,,,,,,,,,001,17,2020_Jan_28_1453,spring_faces,3.1.5,60.068242329068426,
condition files/Stage0a.xlsx,0a,beta,none,g,"['h', 'g']","['Chess', 'Go']","[0, 0.5]","[0, 0]",1,0,0,4,4,4,0,1,1,1,,,,,,,,,,,,,,,,,,,,,,,,,,,,,,,,,,,,,,,,,,,,,,,,,,,,,,,,,,,,,,,392.04025577799985,None,392.04025577799985,None,392.04025577799985,None,g,1,0.5077142480004113,393.57346642599805,None,393.57346642599805,None,393.57346642599805,None,394.14090077799847,None,394.14090077799847,None,394.14090077799847,None,394.14090077799847,None,,,,,,,,,,,,,,,,,,,,,,,,,,,,,,,,,,,,,,,,,,,,001,17,2020_Jan_28_1453,spring_faces,3.1.5,60.068242329068426,
condition files/Stage0a.xlsx,0a,alpha,none,h,"['h', 'g']","['Chess', 'Go']","[0, 0.5]","[0, 0]",1,0,0,5,5,5,0,0,0,0,,,,,,,,,,,,,,,,,,,,,,,,,,,,,,,,,,,,,,,,,,,,,,,,,,,,,,,,,,,,,,,396.1238856129967,None,396.1238856129967,None,396.1238856129967,None,h,1,0.9359057010005927,397.657227503998,None,397.657227503998,None,397.657227503998,None,398.65788858799715,None,398.65788858799715,None,398.65788858799715,None,398.65788858799715,None,,,,,,,,,,,,,,,,,,,,,,,,,,,,,,,,,,,,,,,,,,,,001,17,2020_Jan_28_1453,spring_faces,3.1.5,60.068242329068426,
condition files/Stage0a.xlsx,0a,beta,none,g,"['h', 'g']","['Chess', 'Go']","[0, 0.5]","[0, 0]",1,0,0,5,5,5,0,1,1,1,,,,,,,,,,,,,,,,,,,,,,,,,,,,,,,,,,,,,,,,,,,,,,,,,,,,,,,,,,,,,,,400.6235367499976,None,400.6235367499976,None,400.6235367499976,None,g,1,2.0042840340029215,402.1568256499995,None,402.1568256499995,None,402.1568256499995,None,404.22365432399965,None,404.22365432399965,None,404.22365432399965,None,404.22365432399965,None,,,,,,,,,,,,,,,,,,,,,,,,,,,,,,,,,,,,,,,,,,,,001,17,2020_Jan_28_1453,spring_faces,3.1.5,60.068242329068426,
condition files/Stage0b_1.xlsx,0b,none,beta,g,"['h', 'g']","['Chess', 'Go']","[-0.15, 0.5]","[0.15, 0.5]",0,1,0,6,6,6,0,0,0,1,,,,,,,,,,,,,,,,,,,,,,,,,,,,,,,,,,,,,,,,,,,,,,,,,,,,,,,,,,,,,,,406.2071821089994,None,406.2071821089994,None,406.2071821089994,None,g,1,0.6600965529978566,407.75708615299664,None,407.75708615299664,None,407.75708615299664,None,408.49056746099814,None,408.49056746099814,None,408.49056746099814,None,408.49056746099814,None,,,,,,,,,,,,,,,,,,,,,,,,,,,,,,,,,,,,,,,,,,,,001,17,2020_Jan_28_1453,spring_faces,3.1.5,60.068242329068426,
condition files/Stage0b_1.xlsx,0b,alpha,none,h,"['h', 'g']","['Chess', 'Go']","[-0.15, 0.5]","[0.15, 0.5]",1,0,0,6,6,6,0,1,1,0,,,,,,,,,,,,,,,,,,,,,,,,,,,,,,,,,,,,,,,,,,,,,,,,,,,,,,,,,,,,,,,410.4402396999976,None,410.4402396999976,None,410.4402396999976,None,h,1,0.5390752759994939,411.99003494499993,None,411.99003494499993,None,411.99003494499993,None,412.60722916199666,None,412.60722916199666,None,412.60722916199666,None,412.60722916199666,None,,,,,,,,,,,,,,,,,,,,,,,,,,,,,,,,,,,,,,,,,,,,001,17,2020_Jan_28_1453,spring_faces,3.1.5,60.068242329068426,
condition files/Stage0b_2.xlsx,0b,none,alpha,h,"['h', 'g']","['Chess', 'Go']","[-0.15, 0.5]","[0.15, 0.5]",0,1,0,7,7,7,0,0,0,0,,,,,,,,,,,,,,,,,,,,,,,,,,,,,,,,,,,,,,,,,,,,,,,,,,,,,,,,,,,,,,,414.5738713869978,None,414.5738713869978,None,414.5738713869978,None,h,1,1.124636461998307,416.108567381998,None,416.108567381998,None,416.108567381998,None,417.2898834849984,None,417.2898834849984,None,417.2898834849984,None,417.2898834849984,None,,,,,,,,,,,,,,,,,,,,,,,,,,,,,,,,,,,,,,,,,,,,001,17,2020_Jan_28_1453,spring_faces,3.1.5,60.068242329068426,
condition files/Stage0b_2.xlsx,0b,beta,none,g,"['h', 'g']","['Chess', 'Go']","[-0.15, 0.5]","[0.15, 0.5]",1,0,0,7,7,7,0,1,1,1,,,,,,,,,,,,,,,,,,,,,,,,,,,,,,,,,,,,,,,,,,,,,,,,,,,,,,,,,,,,,,,419.257383846998,None,419.257383846998,None,419.257383846998,None,g,1,0.5828862809976272,420.79423990399664,None,420.79423990399664,None,420.79423990399664,None,421.44078928199815,None,421.44078928199815,None,421.44078928199815,None,421.44078928199815,None,,,,,,,,,,,,,,,,,,,,,,,,,,,,,,,,,,,,,,,,,,,,001,17,2020_Jan_28_1453,spring_faces,3.1.5,60.068242329068426,
condition files/Stage0b_1.xlsx,0b,alpha,none,h,"['h', 'g']","['Chess', 'Go']","[-0.15, 0.5]","[0.15, 0.5]",1,0,0,8,8,8,0,0,0,0,,,,,,,,,,,,,,,,,,,,,,,,,,,,,,,,,,,,,,,,,,,,,,,,,,,,,,,,,,,,,,,423.42387368799973,None,423.42387368799973,None,423.42387368799973,None,h,1,0.6922317400021711,424.9569583699995,None,424.9569583699995,None,424.9569583699995,None,425.7071512959992,None,425.7071512959992,None,425.7071512959992,None,425.7071512959992,None,,,,,,,,,,,,,,,,,,,,,,,,,,,,,,,,,,,,,,,,,,,,001,17,2020_Jan_28_1453,spring_faces,3.1.5,60.068242329068426,
condition files/Stage0b_1.xlsx,0b,none,beta,g,"['h', 'g']","['Chess', 'Go']","[-0.15, 0.5]","[0.15, 0.5]",0,1,0,8,8,8,0,1,1,1,,,,,,,,,,,,,,,,,,,,,,,,,,,,,,,,,,,,,,,,,,,,,,,,,,,,,,,,,,,,,,,427.67361620299926,None,427.67361620299926,None,427.67361620299926,None,g,1,0.821853358997032,429.2113357039998,None,429.2113357039998,None,429.2113357039998,None,430.09502353899734,None,430.09502353899734,None,430.09502353899734,None,430.09502353899734,None,,,,,,,,,,,,,,,,,,,,,,,,,,,,,,,,,,,,,,,,,,,,001,17,2020_Jan_28_1453,spring_faces,3.1.5,60.068242329068426,
condition files/Stage0b_2.xlsx,0b,beta,none,g,"['h', 'g']","['Chess', 'Go']","[-0.15, 0.5]","[0.15, 0.5]",1,0,0,9,9,9,0,0,0,1,,,,,,,,,,,,,,,,,,,,,,,,,,,,,,,,,,,,,,,,,,,,,,,,,,,,,,,,,,,,,,,432.0736355489971,None,432.0736355489971,None,432.0736355489971,None,g,1,0.8371990560008271,433.6119705059973,None,433.6119705059973,None,433.6119705059973,None,434.50707866899756,None,434.50707866899756,None,434.50707866899756,None,434.50707866899756,None,,,,,,,,,,,,,,,,,,,,,,,,,,,,,,,,,,,,,,,,,,,,001,17,2020_Jan_28_1453,spring_faces,3.1.5,60.068242329068426,
condition files/Stage0b_2.xlsx,0b,none,alpha,h,"['h', 'g']","['Chess', 'Go']","[-0.15, 0.5]","[0.15, 0.5]",0,1,0,9,9,9,0,1,1,0,,,,,,,,,,,,,,,,,,,,,,,,,,,,,,,,,,,,,,,,,,,,,,,,,,,,,,,,,,,,,,,436.47351423799773,None,436.47351423799773,None,436.47351423799773,None,h,1,0.7293111879989738,438.0237895149985,None,438.0237895149985,None,438.0237895149985,None,438.8092165499984,None,438.8092165499984,None,438.8092165499984,None,438.8092165499984,None,,,,,,,,,,,,,,,,,,,,,,,,,,,,,,,,,,,,,,,,,,,,001,17,2020_Jan_28_1453,spring_faces,3.1.5,60.068242329068426,
condition files/Stage0b_1.xlsx,0b,alpha,none,h,"['h', 'g']","['Chess', 'Go']","[-0.15, 0.5]","[0.15, 0.5]",1,0,0,10,10,10,0,0,0,0,,,,,,,,,,,,,,,,,,,,,,,,,,,,,,,,,,,,,,,,,,,,,,,,,,,,,,,,,,,,,,,440.7899427779994,None,440.7899427779994,None,440.7899427779994,None,h,1,1.4193828550014587,442.32574676799777,None,442.32574676799777,None,442.32574676799777,None,443.80711924399657,None,443.80711924399657,None,443.80711924399657,None,443.80711924399657,None,,,,,,,,,,,,,,,,,,,,,,,,,,,,,,,,,,,,,,,,,,,,001,17,2020_Jan_28_1453,spring_faces,3.1.5,60.068242329068426,
condition files/Stage0b_1.xlsx,0b,none,beta,g,"['h', 'g']","['Chess', 'Go']","[-0.15, 0.5]","[0.15, 0.5]",0,1,0,10,10,10,0,1,1,1,,,,,,,,,,,,,,,,,,,,,,,,,,,,,,,,,,,,,,,,,,,,,,,,,,,,,,,,,,,,,,,445.7733125149971,None,445.7733125149971,None,445.7733125149971,None,g,1,0.6446400380009436,447.30844429399804,None,447.30844429399804,None,447.30844429399804,None,448.0091257239983,None,448.0091257239983,None,448.0091257239983,None,448.0091257239983,None,,,,,,,,,,,,,,,,,,,,,,,,,,,,,,,,,,,,,,,,,,,,001,17,2020_Jan_28_1453,spring_faces,3.1.5,60.068242329068426,
condition files/Stage0b_2.xlsx,0b,none,alpha,h,"['h', 'g']","['Chess', 'Go']","[-0.15, 0.5]","[0.15, 0.5]",0,1,0,11,11,11,0,0,0,0,,,,,,,,,,,,,,,,,,,,,,,,,,,,,,,,,,,,,,,,,,,,,,,,,,,,,,,,,,,,,,,449.99056606199883,None,449.99056606199883,None,449.99056606199883,None,h,1,1.3259679500006314,451.5232077519977,None,451.5232077519977,None,451.5232077519977,None,452.90685514899815,None,452.90685514899815,None,452.90685514899815,None,452.90685514899815,None,,,,,,,,,,,,,,,,,,,,,,,,,,,,,,,,,,,,,,,,,,,,001,17,2020_Jan_28_1453,spring_faces,3.1.5,60.068242329068426,
condition files/Stage0b_2.xlsx,0b,beta,none,g,"['h', 'g']","['Chess', 'Go']","[-0.15, 0.5]","[0.15, 0.5]",1,0,0,11,11,11,0,1,1,1,,,,,,,,,,,,,,,,,,,,,,,,,,,,,,,,,,,,,,,,,,,,,,,,,,,,,,,,,,,,,,,454.873663989998,None,454.873663989998,None,454.873663989998,None,g,1,0.6451377509984013,456.4119631149988,None,456.4119631149988,None,456.4119631149988,None,457.111684047999,None,457.111684047999,None,457.111684047999,None,457.111684047999,None,,,,,,,,,,,,,,,,,,,,,,,,,,,,,,,,,,,,,,,,,,,,001,17,2020_Jan_28_1453,spring_faces,3.1.5,60.068242329068426,
condition files/Stage0c_1.xlsx,0c,phi,beta,g,"['h', 'g']","['Chess', 'Go']","[-0.15, 0.5]","[0.15, 0.5]",1,1,0,12,12,12,0,0,0,3,,,,,,,,,,,,,,,,,,,,,,,,,,,,,,,,,,,,,,,,,,,,,,,,,,,,,,,,,,,,,,,459.09053282699824,None,459.09053282699824,None,459.09053282699824,None,g,1,3.200974520001182,460.6240944019992,None,460.6240944019992,None,460.6240944019992,None,463.8905092009991,None,463.8905092009991,None,463.8905092009991,None,463.8905092009991,None,,,,,,,,,,,,,,,,,,,,,,,,,,,,,,,,,,,,,,,,,,,,001,17,2020_Jan_28_1453,spring_faces,3.1.5,60.068242329068426,
condition files/Stage0c_1.xlsx,0c,beta,theta,g,"['h', 'g']","['Chess', 'Go']","[-0.15, 0.5]","[0.15, 0.5]",1,1,0,12,12,12,0,1,1,2,,,,,,,,,,,,,,,,,,,,,,,,,,,,,,,,,,,,,,,,,,,,,,,,,,,,,,,,,,,,,,,465.85693828500007,None,465.85693828500007,None,465.85693828500007,None,g,1,1.18710313399788,467.39000798599955,None,467.39000798599955,None,467.39000798599955,None,468.6266724749985,None,468.6266724749985,None,468.6266724749985,None,468.6266724749985,None,,,,,,,,,,,,,,,,,,,,,,,,,,,,,,,,,,,,,,,,,,,,001,17,2020_Jan_28_1453,spring_faces,3.1.5,60.068242329068426,
condition files/Stage0c_1.xlsx,0c,alpha,phi,h,"['h', 'g']","['Chess', 'Go']","[-0.15, 0.5]","[0.15, 0.5]",1,1,0,12,12,12,0,2,2,1,,,,,,,,,,,,,,,,,,,,,,,,,,,,,,,,,,,,,,,,,,,,,,,,,,,,,,,,,,,,,,,470.6070549039978,None,470.6070549039978,None,470.6070549039978,None,h,1,0.869245628000499,472.1398800809984,None,472.1398800809984,None,472.1398800809984,None,473.0732274749971,None,473.0732274749971,None,473.0732274749971,None,473.0732274749971,None,,,,,,,,,,,,,,,,,,,,,,,,,,,,,,,,,,,,,,,,,,,,001,17,2020_Jan_28_1453,spring_faces,3.1.5,60.068242329068426,
condition files/Stage0c_1.xlsx,0c,theta,alpha,h,"['h', 'g']","['Chess', 'Go']","[-0.15, 0.5]","[0.15, 0.5]",1,1,0,12,12,12,0,3,3,0,,,,,,,,,,,,,,,,,,,,,,,,,,,,,,,,,,,,,,,,,,,,,,,,,,,,,,,,,,,,,,,475.0401974279994,None,475.0401974279994,None,475.0401974279994,None,h,1,1.8597457609976118,476.5734570329987,None,476.5734570329987,None,476.5734570329987,None,478.49067326399745,None,478.49067326399745,None,478.49067326399745,None,478.49067326399745,None,,,,,,,,,,,,,,,,,,,,,,,,,,,,,,,,,,,,,,,,,,,,001,17,2020_Jan_28_1453,spring_faces,3.1.5,60.068242329068426,
condition files/Stage0c_2.xlsx,0c,theta,beta,g,"['h', 'g']","['Chess', 'Go']","[-0.15, 0.5]","[0.15, 0.5]",1,1,0,13,13,13,0,0,0,2,,,,,,,,,,,,,,,,,,,,,,,,,,,,,,,,,,,,,,,,,,,,,,,,,,,,,,,,,,,,,,,480.47349159999794,None,480.47349159999794,None,480.47349159999794,None,g,1,0.7139383720023034,482.0071690629993,None,482.0071690629993,None,482.0071690629993,None,482.774136066997,None,482.774136066997,None,482.774136066997,None,482.774136066997,None,,,,,,,,,,,,,,,,,,,,,,,,,,,,,,,,,,,,,,,,,,,,001,17,2020_Jan_28_1453,spring_faces,3.1.5,60.068242329068426,
condition files/Stage0c_2.xlsx,0c,alpha,theta,h,"['h', 'g']","['Chess', 'Go']","[-0.15, 0.5]","[0.15, 0.5]",1,1,0,13,13,13,0,1,1,0,,,,,,,,,,,,,,,,,,,,,,,,,,,,,,,,,,,,,,,,,,,,,,,,,,,,,,,,,,,,,,,484.74028853799973,None,484.74028853799973,None,484.74028853799973,None,h,1,0.4798751609996543,486.2732260599987,None,486.2732260599987,None,486.2732260599987,None,486.8069312649968,None,486.8069312649968,None,486.8069312649968,None,486.8069312649968,None,,,,,,,,,,,,,,,,,,,,,,,,,,,,,,,,,,,,,,,,,,,,001,17,2020_Jan_28_1453,spring_faces,3.1.5,60.068242329068426,
condition files/Stage0c_2.xlsx,0c,beta,phi,g,"['h', 'g']","['Chess', 'Go']","[-0.15, 0.5]","[0.15, 0.5]",1,1,0,13,13,13,0,2,2,3,,,,,,,,,,,,,,,,,,,,,,,,,,,,,,,,,,,,,,,,,,,,,,,,,,,,,,,,,,,,,,,488.77358129999993,None,488.77358129999993,None,488.77358129999993,None,g,1,1.7262593999985256,490.30692068499775,None,490.30692068499775,None,490.30692068499775,None,492.090544183,None,492.090544183,None,492.090544183,None,492.090544183,None,,,,,,,,,,,,,,,,,,,,,,,,,,,,,,,,,,,,,,,,,,,,001,17,2020_Jan_28_1453,spring_faces,3.1.5,60.068242329068426,
condition files/Stage0c_2.xlsx,0c,phi,alpha,h,"['h', 'g']","['Chess', 'Go']","[-0.15, 0.5]","[0.15, 0.5]",1,1,0,13,13,13,0,3,3,1,,,,,,,,,,,,,,,,,,,,,,,,,,,,,,,,,,,,,,,,,,,,,,,,,,,,,,,,,,,,,,,494.0571269599968,None,494.0571269599968,None,494.0571269599968,None,h,1,1.1945274339996104,495.59056654899905,None,495.59056654899905,None,495.59056654899905,None,496.84076085799825,None,496.84076085799825,None,496.84076085799825,None,496.84076085799825,None,,,,,,,,,,,,,,,,,,,,,,,,,,,,,,,,,,,,,,,,,,,,001,17,2020_Jan_28_1453,spring_faces,3.1.5,60.068242329068426,
condition files/Stage0c_1.xlsx,0c,beta,theta,g,"['h', 'g']","['Chess', 'Go']","[-0.15, 0.5]","[0.15, 0.5]",1,1,0,14,14,14,0,0,0,2,,,,,,,,,,,,,,,,,,,,,,,,,,,,,,,,,,,,,,,,,,,,,,,,,,,,,,,,,,,,,,,498.8235487989987,None,498.8235487989987,None,498.8235487989987,None,g,1,0.7323219210011302,500.3567987209972,None,500.3567987209972,None,500.3567987209972,None,501.1407254810001,None,501.1407254810001,None,501.1407254810001,None,501.1407254810001,None,,,,,,,,,,,,,,,,,,,,,,,,,,,,,,,,,,,,,,,,,,,,001,17,2020_Jan_28_1453,spring_faces,3.1.5,60.068242329068426,
condition files/Stage0c_1.xlsx,0c,theta,alpha,h,"['h', 'g']","['Chess', 'Go']","[-0.15, 0.5]","[0.15, 0.5]",1,1,0,14,14,14,0,1,1,0,,,,,,,,,,,,,,,,,,,,,,,,,,,,,,,,,,,,,,,,,,,,,,,,,,,,,,,,,,,,,,,503.1068744209988,None,503.1068744209988,None,503.1068744209988,None,h,1,0.6886112329993921,504.6405028679983,None,504.6405028679983,None,504.6405028679983,None,505.390612883999,None,505.390612883999,None,505.390612883999,None,505.390612883999,None,,,,,,,,,,,,,,,,,,,,,,,,,,,,,,,,,,,,,,,,,,,,001,17,2020_Jan_28_1453,spring_faces,3.1.5,60.068242329068426,
condition files/Stage0c_1.xlsx,0c,phi,beta,g,"['h', 'g']","['Chess', 'Go']","[-0.15, 0.5]","[0.15, 0.5]",1,1,0,14,14,14,0,2,2,3,,,,,,,,,,,,,,,,,,,,,,,,,,,,,,,,,,,,,,,,,,,,,,,,,,,,,,,,,,,,,,,507.3568742969983,None,507.3568742969983,None,507.3568742969983,None,g,1,0.8703122730003088,508.8907672079986,None,508.8907672079986,None,508.8907672079986,None,509.8238256449986,None,509.8238256449986,None,509.8238256449986,None,509.8238256449986,None,,,,,,,,,,,,,,,,,,,,,,,,,,,,,,,,,,,,,,,,,,,,001,17,2020_Jan_28_1453,spring_faces,3.1.5,60.068242329068426,
condition files/Stage0c_1.xlsx,0c,alpha,phi,h,"['h', 'g']","['Chess', 'Go']","[-0.15, 0.5]","[0.15, 0.5]",1,1,0,14,14,14,0,3,3,1,,,,,,,,,,,,,,,,,,,,,,,,,,,,,,,,,,,,,,,,,,,,,,,,,,,,,,,,,,,,,,,511.7907878469996,None,511.7907878469996,None,511.7907878469996,None,h,1,0.9817661619999853,513.3233507879995,None,513.3233507879995,None,513.3233507879995,None,514.3564740329966,None,514.3564740329966,None,514.3564740329966,None,514.3564740329966,None,,,,,,,,,,,,,,,,,,,,,,,,,,,,,,,,,,,,,,,,,,,,001,17,2020_Jan_28_1453,spring_faces,3.1.5,60.068242329068426,
condition files/Stage0c_2.xlsx,0c,beta,phi,g,"['h', 'g']","['Chess', 'Go']","[-0.15, 0.5]","[0.15, 0.5]",1,1,0,15,15,15,0,0,0,3,,,,,,,,,,,,,,,,,,,,,,,,,,,,,,,,,,,,,,,,,,,,,,,,,,,,,,,,,,,,,,,516.3404131589996,None,516.3404131589996,None,516.3404131589996,None,g,1,0.8478482389982673,517.873261880999,None,517.873261880999,None,517.873261880999,None,518.7738883189995,None,518.7738883189995,None,518.7738883189995,None,518.7738883189995,None,,,,,,,,,,,,,,,,,,,,,,,,,,,,,,,,,,,,,,,,,,,,001,17,2020_Jan_28_1453,spring_faces,3.1.5,60.068242329068426,
condition files/Stage0c_2.xlsx,0c,phi,alpha,h,"['h', 'g']","['Chess', 'Go']","[-0.15, 0.5]","[0.15, 0.5]",1,1,0,15,15,15,0,1,1,1,,,,,,,,,,,,,,,,,,,,,,,,,,,,,,,,,,,,,,,,,,,,,,,,,,,,,,,,,,,,,,,520.7402193919988,None,520.7402193919988,None,520.7402193919988,None,h,1,0.9276920439988317,522.2734164359972,None,522.2734164359972,None,522.2734164359972,None,523.2571490649971,None,523.2571490649971,None,523.2571490649971,None,523.2571490649971,None,,,,,,,,,,,,,,,,,,,,,,,,,,,,,,,,,,,,,,,,,,,,001,17,2020_Jan_28_1453,spring_faces,3.1.5,60.068242329068426,
condition files/Stage0c_2.xlsx,0c,alpha,theta,h,"['h', 'g']","['Chess', 'Go']","[-0.15, 0.5]","[0.15, 0.5]",1,1,0,15,15,15,0,2,2,0,,,,,,,,,,,,,,,,,,,,,,,,,,,,,,,,,,,,,,,,,,,,,,,,,,,,,,,,,,,,,,,525.2229682099969,None,525.2229682099969,None,525.2229682099969,None,h,1,0.8602096449976671,526.7569560099982,None,526.7569560099982,None,526.7569560099982,None,527.6585807049996,None,527.6585807049996,None,527.6585807049996,None,527.6585807049996,None,,,,,,,,,,,,,,,,,,,,,,,,,,,,,,,,,,,,,,,,,,,,001,17,2020_Jan_28_1453,spring_faces,3.1.5,60.068242329068426,
condition files/Stage0c_2.xlsx,0c,theta,beta,g,"['h', 'g']","['Chess', 'Go']","[-0.15, 0.5]","[0.15, 0.5]",1,1,0,15,15,15,0,3,3,2,,,,,,,,,,,,,,,,,,,,,,,,,,,,,,,,,,,,,,,,,,,,,,,,,,,,,,,,,,,,,,,529.6403850549978,None,529.6403850549978,None,529.6403850549978,None,g,1,1.9792029060008645,531.1738489959971,None,531.1738489959971,None,531.1738489959971,None,533.2071347129968,None,533.2071347129968,None,533.2071347129968,None,533.2071347129968,None,,,,,,,,,,,,,,,,,,,,,,,,,,,,,,,,,,,,,,,,,,,,001,17,2020_Jan_28_1453,spring_faces,3.1.5,60.068242329068426,
condition files/Stage0c_1.xlsx,0c,beta,theta,g,"['h', 'g']","['Chess', 'Go']","[-0.15, 0.5]","[0.15, 0.5]",1,1,0,16,16,16,0,0,0,2,,,,,,,,,,,,,,,,,,,,,,,,,,,,,,,,,,,,,,,,,,,,,,,,,,,,,,,,,,,,,,,535.1902470339992,None,535.1902470339992,None,535.1902470339992,None,g,1,2.6538249350014667,536.7232973299979,None,536.7232973299979,None,536.7232973299979,None,539.423412631997,None,539.423412631997,None,539.423412631997,None,539.423412631997,None,,,,,,,,,,,,,,,,,,,,,,,,,,,,,,,,,,,,,,,,,,,,001,17,2020_Jan_28_1453,spring_faces,3.1.5,60.068242329068426,
condition files/Stage0c_1.xlsx,0c,theta,alpha,h,"['h', 'g']","['Chess', 'Go']","[-0.15, 0.5]","[0.15, 0.5]",1,1,0,16,16,16,0,1,1,0,,,,,,,,,,,,,,,,,,,,,,,,,,,,,,,,,,,,,,,,,,,,,,,,,,,,,,,,,,,,,,,541.4069358809975,None,541.4069358809975,None,541.4069358809975,None,h,1,0.5325577029980195,542.9405289329989,None,542.9405289329989,None,542.9405289329989,None,543.5238422599978,None,543.5238422599978,None,543.5238422599978,None,543.5238422599978,None,,,,,,,,,,,,,,,,,,,,,,,,,,,,,,,,,,,,,,,,,,,,001,17,2020_Jan_28_1453,spring_faces,3.1.5,60.068242329068426,
condition files/Stage0c_1.xlsx,0c,alpha,phi,h,"['h', 'g']","['Chess', 'Go']","[-0.15, 0.5]","[0.15, 0.5]",1,1,0,16,16,16,0,2,2,1,,,,,,,,,,,,,,,,,,,,,,,,,,,,,,,,,,,,,,,,,,,,,,,,,,,,,,,,,,,,,,,545.4899292549999,None,545.4899292549999,None,545.4899292549999,None,h,1,0.8339390479995927,547.0231716689996,None,547.0231716689996,None,547.0231716689996,None,547.8930550929981,None,547.8930550929981,None,547.8930550929981,None,547.8930550929981,None,,,,,,,,,,,,,,,,,,,,,,,,,,,,,,,,,,,,,,,,,,,,001,17,2020_Jan_28_1453,spring_faces,3.1.5,60.068242329068426,
condition files/Stage0c_1.xlsx,0c,phi,beta,g,"['h', 'g']","['Chess', 'Go']","[-0.15, 0.5]","[0.15, 0.5]",1,1,0,16,16,16,0,3,3,3,,,,,,,,,,,,,,,,,,,,,,,,,,,,,,,,,,,,,,,,,,,,,,,,,,,,,,,,,,,,,,,549.8732154799982,None,549.8732154799982,None,549.8732154799982,None,g,1,0.5458540659965365,551.4072522009992,None,551.4072522009992,None,551.4072522009992,None,552.0087243249982,None,552.0087243249982,None,552.0087243249982,None,552.0087243249982,None,,,,,,,,,,,,,,,,,,,,,,,,,,,,,,,,,,,,,,,,,,,,001,17,2020_Jan_28_1453,spring_faces,3.1.5,60.068242329068426,
condition files/Stage0c_2.xlsx,0c,theta,beta,g,"['h', 'g']","['Chess', 'Go']","[-0.15, 0.5]","[0.15, 0.5]",1,1,0,17,17,17,0,0,0,2,,,,,,,,,,,,,,,,,,,,,,,,,,,,,,,,,,,,,,,,,,,,,,,,,,,,,,,,,,,,,,,553.9898187159997,None,553.9898187159997,None,553.9898187159997,None,g,1,0.7972454970004037,555.5238333489979,None,555.5238333489979,None,555.5238333489979,None,556.3586293899971,None,556.3586293899971,None,556.3586293899971,None,556.3586293899971,None,,,,,,,,,,,,,,,,,,,,,,,,,,,,,,,,,,,,,,,,,,,,001,17,2020_Jan_28_1453,spring_faces,3.1.5,60.068242329068426,
condition files/Stage0c_2.xlsx,0c,alpha,theta,h,"['h', 'g']","['Chess', 'Go']","[-0.15, 0.5]","[0.15, 0.5]",1,1,0,17,17,17,0,1,1,0,,,,,,,,,,,,,,,,,,,,,,,,,,,,,,,,,,,,,,,,,,,,,,,,,,,,,,,,,,,,,,,558.340238421999,None,558.340238421999,None,558.340238421999,None,h,1,1.0718309999974736,559.8732803629973,None,559.8732803629973,None,559.8732803629973,None,561.0072151639979,None,561.0072151639979,None,561.0072151639979,None,561.0072151639979,None,,,,,,,,,,,,,,,,,,,,,,,,,,,,,,,,,,,,,,,,,,,,001,17,2020_Jan_28_1453,spring_faces,3.1.5,60.068242329068426,
condition files/Stage0c_2.xlsx,0c,phi,alpha,h,"['h', 'g']","['Chess', 'Go']","[-0.15, 0.5]","[0.15, 0.5]",1,1,0,17,17,17,0,2,2,1,,,,,,,,,,,,,,,,,,,,,,,,,,,,,,,,,,,,,,,,,,,,,,,,,,,,,,,,,,,,,,,562.9735046609967,None,562.9735046609967,None,562.9735046609967,None,h,1,0.9019989709995571,564.5071026909973,None,564.5071026909973,None,564.5071026909973,None,565.456954841,None,565.456954841,None,565.456954841,None,565.456954841,None,,,,,,,,,,,,,,,,,,,,,,,,,,,,,,,,,,,,,,,,,,,,001,17,2020_Jan_28_1453,spring_faces,3.1.5,60.068242329068426,
condition files/Stage0c_2.xlsx,0c,beta,phi,g,"['h', 'g']","['Chess', 'Go']","[-0.15, 0.5]","[0.15, 0.5]",1,1,0,17,17,17,0,3,3,3,,,,,,,,,,,,,,,,,,,,,,,,,,,,,,,,,,,,,,,,,,,,,,,,,,,,,,,,,,,,,,,567.440369852,None,567.440369852,None,567.440369852,None,g,1,0.8994480809997185,568.973655881,None,568.973655881,None,568.973655881,None,569.9238347149985,None,569.9238347149985,None,569.9238347149985,None,569.9238347149985,None,,,,,,,,,,,,,,,,,,,,,,,,,,,,,,,,,,,,,,,,,,,,001,17,2020_Jan_28_1453,spring_faces,3.1.5,60.068242329068426,
,,,,,,,,,,,,,,,,,,,,,,,,,,,,,,,,,,,,,,,,,,,,,,,,,,,,,,,,,,,,,,,,,,,,,,,,,,,,,,,,,,,,,,,,,,,,,,,,,,,,,,,,571.9073151259981,None,space,3.8298826699974597,576.9071894609988,None,,,,,,,,,,,,,,,,,,,,,,,,,,,,,,,,,,,,,,001,17,2020_Jan_28_1453,spring_faces,3.1.5,60.068242329068426,
condition files/Stage1_1.xlsx,,T1,B1,c,"['c', 'm']","['Clue', 'Monopoly']","[-0.15, 0.5]","[0.15, 0.5]",1,1,,,,,,,,,0,0,0,0,0,0,0,0,,,,,,,,,,,,,,,,,,,,,,,,,,,,,,,,,,,,,,,,,,,,,,,,,,,,,,,580.7907687219995,None,580.7907687219995,None,580.7907687219995,None,m,0,3.6291501759988023,582.323963609997,None,582.323963609997,None,582.323963609997,None,586.0260737969984,None,586.0260737969984,None,586.0260737969984,None,586.0260737969984,None,,,,,,,576.9071894609988,None,,,,,,,,,,,,,,,,,,,,,,,,,,,,,,,,,,,,001,17,2020_Jan_28_1453,spring_faces,3.1.5,60.068242329068426,
condition files/Stage1_1.xlsx,,T4,B3,m,"['c', 'm']","['Clue', 'Monopoly']","[-0.15, 0.5]","[0.15, 0.5]",1,1,,,,,,,,,0,0,0,0,0,1,1,6,,,,,,,,,,,,,,,,,,,,,,,,,,,,,,,,,,,,,,,,,,,,,,,,,,,,,,,587.973605575,None,587.973605575,None,587.973605575,None,m,1,2.4617763419992116,589.5073736559971,None,589.5073736559971,None,589.5073736559971,None,592.0251983319977,None,592.0251983319977,None,592.0251983319977,None,592.0251983319977,None,,,,,,,,,,,,,,,,,,,,,,,,,,,,,,,,,,,,,,,,,,,,001,17,2020_Jan_28_1453,spring_faces,3.1.5,60.068242329068426,
condition files/Stage1_1.xlsx,,T3,B4,c,"['c', 'm']","['Clue', 'Monopoly']","[-0.15, 0.5]","[0.15, 0.5]",1,1,,,,,,,,,0,0,0,0,0,2,2,5,,,,,,,,,,,,,,,,,,,,,,,,,,,,,,,,,,,,,,,,,,,,,,,,,,,,,,,593.9897540299971,None,593.9897540299971,None,593.9897540299971,None,c,1,1.9961189850000665,595.5250036059988,None,595.5250036059988,None,595.5250036059988,None,597.5729764779971,None,597.5729764779971,None,597.5729764779971,None,597.5729764779971,None,,,,,,,,,,,,,,,,,,,,,,,,,,,,,,,,,,,,,,,,,,,,001,17,2020_Jan_28_1453,spring_faces,3.1.5,60.068242329068426,
condition files/Stage1_1.xlsx,,B2,T1,m,"['c', 'm']","['Clue', 'Monopoly']","[-0.15, 0.5]","[0.15, 0.5]",1,1,,,,,,,,,0,0,0,0,0,3,3,2,,,,,,,,,,,,,,,,,,,,,,,,,,,,,,,,,,,,,,,,,,,,,,,,,,,,,,,599.5403437929999,None,599.5403437929999,None,599.5403437929999,None,c,0,1.1186286640004255,601.0904818949966,None,601.0904818949966,None,601.0904818949966,None,602.2738809469993,None,602.2738809469993,None,602.2738809469993,None,602.2738809469993,None,,,,,,,,,,,,,,,,,,,,,,,,,,,,,,,,,,,,,,,,,,,,001,17,2020_Jan_28_1453,spring_faces,3.1.5,60.068242329068426,
condition files/Stage1_1.xlsx,,B4,T4,m,"['c', 'm']","['Clue', 'Monopoly']","[-0.15, 0.5]","[0.15, 0.5]",1,1,,,,,,,,,0,0,0,0,0,4,4,7,,,,,,,,,,,,,,,,,,,,,,,,,,,,,,,,,,,,,,,,,,,,,,,,,,,,,,,604.2401692309977,None,604.2401692309977,None,604.2401692309977,None,m,1,2.1311316049977904,605.7899635939975,None,605.7899635939975,None,605.7899635939975,None,607.9738172749967,None,607.9738172749967,None,607.9738172749967,None,607.9738172749967,None,,,,,,,,,,,,,,,,,,,,,,,,,,,,,,,,,,,,,,,,,,,,001,17,2020_Jan_28_1453,spring_faces,3.1.5,60.068242329068426,
condition files/Stage1_1.xlsx,,B3,T3,c,"['c', 'm']","['Clue', 'Monopoly']","[-0.15, 0.5]","[0.15, 0.5]",1,1,,,,,,,,,0,0,0,0,0,5,5,4,,,,,,,,,,,,,,,,,,,,,,,,,,,,,,,,,,,,,,,,,,,,,,,,,,,,,,,609.9396487099984,None,609.9396487099984,None,609.9396487099984,None,m,0,1.2143122279994714,611.4907857949984,None,611.4907857949984,None,611.4907857949984,None,612.7597238499984,None,612.7597238499984,None,612.7597238499984,None,612.7597238499984,None,,,,,,,,,,,,,,,,,,,,,,,,,,,,,,,,,,,,,,,,,,,,001,17,2020_Jan_28_1453,spring_faces,3.1.5,60.068242329068426,
condition files/Stage1_1.xlsx,,T2,B2,m,"['c', 'm']","['Clue', 'Monopoly']","[-0.15, 0.5]","[0.15, 0.5]",1,1,,,,,,,,,0,0,0,0,0,6,6,3,,,,,,,,,,,,,,,,,,,,,,,,,,,,,,,,,,,,,,,,,,,,,,,,,,,,,,,614.723798944,None,614.723798944,None,614.723798944,None,m,1,0.9589966649982671,616.2581853459997,None,616.2581853459997,None,616.2581853459997,None,617.290008385,None,617.290008385,None,617.290008385,None,617.290008385,None,,,,,,,,,,,,,,,,,,,,,,,,,,,,,,,,,,,,,,,,,,,,001,17,2020_Jan_28_1453,spring_faces,3.1.5,60.068242329068426,
condition files/Stage1_1.xlsx,,B1,T2,c,"['c', 'm']","['Clue', 'Monopoly']","[-0.15, 0.5]","[0.15, 0.5]",1,1,,,,,,,,,0,0,0,0,0,7,7,1,,,,,,,,,,,,,,,,,,,,,,,,,,,,,,,,,,,,,,,,,,,,,,,,,,,,,,,619.2403036929973,None,619.2403036929973,None,619.2403036929973,None,m,0,1.0992776220009546,620.7738450919969,None,620.7738450919969,None,620.7738450919969,None,621.9399301819976,None,621.9399301819976,None,621.9399301819976,None,621.9399301819976,None,,,,,,,,,,,,,,,,,,,,,,,,,,,,,,,,,,,,,,,,,,,,001,17,2020_Jan_28_1453,spring_faces,3.1.5,60.068242329068426,
condition files/Stage1_2.xlsx,,B3,T4,m,"['c', 'm']","['Clue', 'Monopoly']","[-0.15, 0.5]","[0.15, 0.5]",1,1,,,,,,,,,0,1,1,1,0,0,0,6,,,,,,,,,,,,,,,,,,,,,,,,,,,,,,,,,,,,,,,,,,,,,,,,,,,,,,,623.9074776139969,None,623.9074776139969,None,623.9074776139969,None,m,1,1.8240088420025131,625.4571801530001,None,625.4571801530001,None,625.4571801530001,None,627.3400858529967,None,627.3400858529967,None,627.3400858529967,None,627.3400858529967,None,,,,,,,,,,,,,,,,,,,,,,,,,,,,,,,,,,,,,,,,,,,,001,17,2020_Jan_28_1453,spring_faces,3.1.5,60.068242329068426,
condition files/Stage1_2.xlsx,,T1,B2,m,"['c', 'm']","['Clue', 'Monopoly']","[-0.15, 0.5]","[0.15, 0.5]",1,1,,,,,,,,,0,1,1,1,0,1,1,2,,,,,,,,,,,,,,,,,,,,,,,,,,,,,,,,,,,,,,,,,,,,,,,,,,,,,,,629.3068775619977,None,629.3068775619977,None,629.3068775619977,None,c,0,1.1444361829999252,630.8566448719976,None,630.8566448719976,None,630.8566448719976,None,632.056979058998,None,632.056979058998,None,632.056979058998,None,632.056979058998,None,,,,,,,,,,,,,,,,,,,,,,,,,,,,,,,,,,,,,,,,,,,,001,17,2020_Jan_28_1453,spring_faces,3.1.5,60.068242329068426,
condition files/Stage1_2.xlsx,,B2,T2,m,"['c', 'm']","['Clue', 'Monopoly']","[-0.15, 0.5]","[0.15, 0.5]",1,1,,,,,,,,,0,1,1,1,0,2,2,3,,,,,,,,,,,,,,,,,,,,,,,,,,,,,,,,,,,,,,,,,,,,,,,,,,,,,,,634.0233204069991,None,634.0233204069991,None,634.0233204069991,None,m,1,4.107354930001748,635.5738053299974,None,635.5738053299974,None,635.5738053299974,None,639.7397975389977,None,639.7397975389977,None,639.7397975389977,None,639.7397975389977,None,,,,,,,,,,,,,,,,,,,,,,,,,,,,,,,,,,,,,,,,,,,,001,17,2020_Jan_28_1453,spring_faces,3.1.5,60.068242329068426,
condition files/Stage1_2.xlsx,,B4,T3,c,"['c', 'm']","['Clue', 'Monopoly']","[-0.15, 0.5]","[0.15, 0.5]",1,1,,,,,,,,,0,1,1,1,0,3,3,5,,,,,,,,,,,,,,,,,,,,,,,,,,,,,,,,,,,,,,,,,,,,,,,,,,,,,,,641.7070442259974,None,641.7070442259974,None,641.7070442259974,None,c,1,3.7998596999968868,643.2412106099982,None,643.2412106099982,None,643.2412106099982,None,647.1238807739974,None,647.1238807739974,None,647.1238807739974,None,647.1238807739974,None,,,,,,,,,,,,,,,,,,,,,,,,,,,,,,,,,,,,,,,,,,,,001,17,2020_Jan_28_1453,spring_faces,3.1.5,60.068242329068426,
condition files/Stage1_2.xlsx,,T3,B3,c,"['c', 'm']","['Clue', 'Monopoly']","[-0.15, 0.5]","[0.15, 0.5]",1,1,,,,,,,,,0,1,1,1,0,4,4,4,,,,,,,,,,,,,,,,,,,,,,,,,,,,,,,,,,,,,,,,,,,,,,,,,,,,,,,649.073422786998,None,649.073422786998,None,649.073422786998,None,m,0,1.7612287610027124,650.6238294409995,None,650.6238294409995,None,650.6238294409995,None,652.4406234620001,None,652.4406234620001,None,652.4406234620001,None,652.4406234620001,None,,,,,,,,,,,,,,,,,,,,,,,,,,,,,,,,,,,,,,,,,,,,001,17,2020_Jan_28_1453,spring_faces,3.1.5,60.068242329068426,
condition files/Stage1_2.xlsx,,B1,T1,c,"['c', 'm']","['Clue', 'Monopoly']","[-0.15, 0.5]","[0.15, 0.5]",1,1,,,,,,,,,0,1,1,1,0,5,5,0,,,,,,,,,,,,,,,,,,,,,,,,,,,,,,,,,,,,,,,,,,,,,,,,,,,,,,,654.4071545419974,None,654.4071545419974,None,654.4071545419974,None,c,1,3.099968615999387,655.9411104149985,None,655.9411104149985,None,655.9411104149985,None,659.1072281749985,None,659.1072281749985,None,659.1072281749985,None,659.1072281749985,None,,,,,,,,,,,,,,,,,,,,,,,,,,,,,,,,,,,,,,,,,,,,001,17,2020_Jan_28_1453,spring_faces,3.1.5,60.068242329068426,
condition files/Stage1_2.xlsx,,T4,B4,m,"['c', 'm']","['Clue', 'Monopoly']","[-0.15, 0.5]","[0.15, 0.5]",1,1,,,,,,,,,0,1,1,1,0,6,6,7,,,,,,,,,,,,,,,,,,,,,,,,,,,,,,,,,,,,,,,,,,,,,,,,,,,,,,,661.0739249949984,None,661.0739249949984,None,661.0739249949984,None,m,1,1.4413191669991647,662.6238570309979,None,662.6238570309979,None,662.6238570309979,None,664.1404272979998,None,664.1404272979998,None,664.1404272979998,None,664.1404272979998,None,,,,,,,,,,,,,,,,,,,,,,,,,,,,,,,,,,,,,,,,,,,,001,17,2020_Jan_28_1453,spring_faces,3.1.5,60.068242329068426,
condition files/Stage1_2.xlsx,,T2,B1,c,"['c', 'm']","['Clue', 'Monopoly']","[-0.15, 0.5]","[0.15, 0.5]",1,1,,,,,,,,,0,1,1,1,0,7,7,1,,,,,,,,,,,,,,,,,,,,,,,,,,,,,,,,,,,,,,,,,,,,,,,,,,,,,,,666.0896960559985,None,666.0896960559985,None,666.0896960559985,None,c,1,1.977578852998704,667.6235219989976,None,667.6235219989976,None,667.6235219989976,None,669.657095667997,None,669.657095667997,None,669.657095667997,None,669.657095667997,None,,,,,,,,,,,,,,,,,,,,,,,,,,,,,,,,,,,,,,,,,,,,001,17,2020_Jan_28_1453,spring_faces,3.1.5,60.068242329068426,
condition files/Stage1_1.xlsx,,B4,T4,m,"['c', 'm']","['Clue', 'Monopoly']","[-0.15, 0.5]","[0.15, 0.5]",1,1,,,,,,,,,0,2,2,2,0,0,0,7,,,,,,,,,,,,,,,,,,,,,,,,,,,,,,,,,,,,,,,,,,,,,,,,,,,,,,,671.6403835279998,None,671.6403835279998,None,671.6403835279998,None,m,1,0.7779042799993476,673.1752304209986,None,673.1752304209986,None,673.1752304209986,None,674.0234593959976,None,674.0234593959976,None,674.0234593959976,None,674.0234593959976,None,,,,,,,,,,,,,,,,,,,,,,,,,,,,,,,,,,,,,,,,,,,,001,17,2020_Jan_28_1453,spring_faces,3.1.5,60.068242329068426,
condition files/Stage1_1.xlsx,,T4,B3,m,"['c', 'm']","['Clue', 'Monopoly']","[-0.15, 0.5]","[0.15, 0.5]",1,1,,,,,,,,,0,2,2,2,0,1,1,6,,,,,,,,,,,,,,,,,,,,,,,,,,,,,,,,,,,,,,,,,,,,,,,,,,,,,,,675.9738674989967,None,675.9738674989967,None,675.9738674989967,None,c,0,0.9902700019993063,677.5069175839999,None,677.5069175839999,None,677.5069175839999,None,678.557155868999,None,678.557155868999,None,678.557155868999,None,678.557155868999,None,,,,,,,,,,,,,,,,,,,,,,,,,,,,,,,,,,,,,,,,,,,,001,17,2020_Jan_28_1453,spring_faces,3.1.5,60.068242329068426,
condition files/Stage1_1.xlsx,,B3,T3,c,"['c', 'm']","['Clue', 'Monopoly']","[-0.15, 0.5]","[0.15, 0.5]",1,1,,,,,,,,,0,2,2,2,0,2,2,4,,,,,,,,,,,,,,,,,,,,,,,,,,,,,,,,,,,,,,,,,,,,,,,,,,,,,,,680.5230839879987,None,680.5230839879987,None,680.5230839879987,None,c,1,1.3522681940012262,682.056861705998,None,682.056861705998,None,682.056861705998,None,683.474581364997,None,683.474581364997,None,683.474581364997,None,683.474581364997,None,,,,,,,,,,,,,,,,,,,,,,,,,,,,,,,,,,,,,,,,,,,,001,17,2020_Jan_28_1453,spring_faces,3.1.5,60.068242329068426,
condition files/Stage1_1.xlsx,,B1,T2,c,"['c', 'm']","['Clue', 'Monopoly']","[-0.15, 0.5]","[0.15, 0.5]",1,1,,,,,,,,,0,2,2,2,0,3,3,1,,,,,,,,,,,,,,,,,,,,,,,,,,,,,,,,,,,,,,,,,,,,,,,,,,,,,,,685.4398587669966,None,685.4398587669966,None,685.4398587669966,None,m,0,1.2333483839975088,686.9757770979995,None,686.9757770979995,None,686.9757770979995,None,688.274037084997,None,688.274037084997,None,688.274037084997,None,688.274037084997,None,,,,,,,,,,,,,,,,,,,,,,,,,,,,,,,,,,,,,,,,,,,,001,17,2020_Jan_28_1453,spring_faces,3.1.5,60.068242329068426,
condition files/Stage1_1.xlsx,,T3,B4,c,"['c', 'm']","['Clue', 'Monopoly']","[-0.15, 0.5]","[0.15, 0.5]",1,1,,,,,,,,,0,2,2,2,0,4,4,5,,,,,,,,,,,,,,,,,,,,,,,,,,,,,,,,,,,,,,,,,,,,,,,,,,,,,,,690.2403783069967,None,690.2403783069967,None,690.2403783069967,None,m,0,0.6260718010016717,691.7751298739968,None,691.7751298739968,None,691.7751298739968,None,692.4568372279973,None,692.4568372279973,None,692.4568372279973,None,692.4568372279973,None,,,,,,,,,,,,,,,,,,,,,,,,,,,,,,,,,,,,,,,,,,,,001,17,2020_Jan_28_1453,spring_faces,3.1.5,60.068242329068426,
condition files/Stage1_1.xlsx,,T1,B1,c,"['c', 'm']","['Clue', 'Monopoly']","[-0.15, 0.5]","[0.15, 0.5]",1,1,,,,,,,,,0,2,2,2,0,5,5,0,,,,,,,,,,,,,,,,,,,,,,,,,,,,,,,,,,,,,,,,,,,,,,,,,,,,,,,694.423571501,None,694.423571501,None,694.423571501,None,m,0,1.3550881830014987,695.9580617669999,None,695.9580617669999,None,695.9580617669999,None,697.373971271998,None,697.373971271998,None,697.373971271998,None,697.373971271998,None,,,,,,,,,,,,,,,,,,,,,,,,,,,,,,,,,,,,,,,,,,,,001,17,2020_Jan_28_1453,spring_faces,3.1.5,60.068242329068426,
condition files/Stage1_1.xlsx,,T2,B2,m,"['c', 'm']","['Clue', 'Monopoly']","[-0.15, 0.5]","[0.15, 0.5]",1,1,,,,,,,,,0,2,2,2,0,6,6,3,,,,,,,,,,,,,,,,,,,,,,,,,,,,,,,,,,,,,,,,,,,,,,,,,,,,,,,699.3403564149994,None,699.3403564149994,None,699.3403564149994,None,m,1,2.9033404729998438,700.8737819969974,None,700.8737819969974,None,700.8737819969974,None,703.8418147709999,None,703.8418147709999,None,703.8418147709999,None,703.8418147709999,None,,,,,,,,,,,,,,,,,,,,,,,,,,,,,,,,,,,,,,,,,,,,001,17,2020_Jan_28_1453,spring_faces,3.1.5,60.068242329068426,
condition files/Stage1_1.xlsx,,B2,T1,m,"['c', 'm']","['Clue', 'Monopoly']","[-0.15, 0.5]","[0.15, 0.5]",1,1,,,,,,,,,0,2,2,2,0,7,7,2,,,,,,,,,,,,,,,,,,,,,,,,,,,,,,,,,,,,,,,,,,,,,,,,,,,,,,,705.8068871869982,None,705.8068871869982,None,705.8068871869982,None,c,0,2.707993758001976,707.3571654769985,None,707.3571654769985,None,707.3571654769985,None,710.1239069829971,None,710.1239069829971,None,710.1239069829971,None,710.1239069829971,None,,,,,,,,,,,,,,,,,,,,,,,,,,,,,,,,,,,,,,,,,,,,001,17,2020_Jan_28_1453,spring_faces,3.1.5,60.068242329068426,
condition files/Stage1_2.xlsx,,B4,T3,c,"['c', 'm']","['Clue', 'Monopoly']","[-0.15, 0.5]","[0.15, 0.5]",1,1,,,,,,,,,0,3,3,3,0,0,0,5,,,,,,,,,,,,,,,,,,,,,,,,,,,,,,,,,,,,,,,,,,,,,,,,,,,,,,,712.1073046479978,None,712.1073046479978,None,712.1073046479978,None,m,0,1.1764871630002744,713.6567231929985,None,713.6567231929985,None,713.6567231929985,None,714.8902705569999,None,714.8902705569999,None,714.8902705569999,None,714.8902705569999,None,,,,,,,,,,,,,,,,,,,,,,,,,,,,,,,,,,,,,,,,,,,,001,17,2020_Jan_28_1453,spring_faces,3.1.5,60.068242329068426,
condition files/Stage1_2.xlsx,,B3,T4,m,"['c', 'm']","['Clue', 'Monopoly']","[-0.15, 0.5]","[0.15, 0.5]",1,1,,,,,,,,,0,3,3,3,0,1,1,6,,,,,,,,,,,,,,,,,,,,,,,,,,,,,,,,,,,,,,,,,,,,,,,,,,,,,,,716.8568878529986,None,716.8568878529986,None,716.8568878529986,None,c,0,12.586409102001198,718.4067045669981,None,718.4067045669981,None,718.4067045669981,None,731.0568801639965,None,731.0568801639965,None,731.0568801639965,None,731.0568801639965,None,,,,,,,,,,,,,,,,,,,,,,,,,,,,,,,,,,,,,,,,,,,,001,17,2020_Jan_28_1453,spring_faces,3.1.5,60.068242329068426,
condition files/Stage1_2.xlsx,,T3,B3,c,"['c', 'm']","['Clue', 'Monopoly']","[-0.15, 0.5]","[0.15, 0.5]",1,1,,,,,,,,,0,3,3,3,0,2,2,4,,,,,,,,,,,,,,,,,,,,,,,,,,,,,,,,,,,,,,,,,,,,,,,,,,,,,,,733.0230638799985,None,733.0230638799985,None,733.0230638799985,None,m,0,2.4999481390004803,734.573157650997,None,734.573157650997,None,734.573157650997,None,737.140508941,None,737.140508941,None,737.140508941,None,737.140508941,None,,,,,,,,,,,,,,,,,,,,,,,,,,,,,,,,,,,,,,,,,,,,001,17,2020_Jan_28_1453,spring_faces,3.1.5,60.068242329068426,
condition files/Stage1_2.xlsx,,B2,T2,m,"['c', 'm']","['Clue', 'Monopoly']","[-0.15, 0.5]","[0.15, 0.5]",1,1,,,,,,,,,0,3,3,3,0,3,3,3,,,,,,,,,,,,,,,,,,,,,,,,,,,,,,,,,,,,,,,,,,,,,,,,,,,,,,,739.0899819349979,None,739.0899819349979,None,739.0899819349979,None,m,1,0.9605143160006264,740.6245418439976,None,740.6245418439976,None,740.6245418439976,None,741.6565971659984,None,741.6565971659984,None,741.6565971659984,None,741.6565971659984,None,,,,,,,,,,,,,,,,,,,,,,,,,,,,,,,,,,,,,,,,,,,,001,17,2020_Jan_28_1453,spring_faces,3.1.5,60.068242329068426,
condition files/Stage1_2.xlsx,,T1,B2,m,"['c', 'm']","['Clue', 'Monopoly']","[-0.15, 0.5]","[0.15, 0.5]",1,1,,,,,,,,,0,3,3,3,0,4,4,2,,,,,,,,,,,,,,,,,,,,,,,,,,,,,,,,,,,,,,,,,,,,,,,,,,,,,,,743.6070844389978,None,743.6070844389978,None,743.6070844389978,None,m,1,2.90668418599671,745.1425154969984,None,745.1425154969984,None,745.1425154969984,None,748.106522733,None,748.106522733,None,748.106522733,None,748.106522733,None,,,,,,,,,,,,,,,,,,,,,,,,,,,,,,,,,,,,,,,,,,,,001,17,2020_Jan_28_1453,spring_faces,3.1.5,60.068242329068426,
condition files/Stage1_2.xlsx,,T4,B4,m,"['c', 'm']","['Clue', 'Monopoly']","[-0.15, 0.5]","[0.15, 0.5]",1,1,,,,,,,,,0,3,3,3,0,5,5,7,,,,,,,,,,,,,,,,,,,,,,,,,,,,,,,,,,,,,,,,,,,,,,,,,,,,,,,750.0730854999965,None,750.0730854999965,None,750.0730854999965,None,m,1,1.338416184997186,751.6067320819966,None,751.6067320819966,None,751.6067320819966,None,753.0066204149989,None,753.0066204149989,None,753.0066204149989,None,753.0066204149989,None,,,,,,,,,,,,,,,,,,,,,,,,,,,,,,,,,,,,,,,,,,,,001,17,2020_Jan_28_1453,spring_faces,3.1.5,60.068242329068426,
condition files/Stage1_2.xlsx,,T2,B1,c,"['c', 'm']","['Clue', 'Monopoly']","[-0.15, 0.5]","[0.15, 0.5]",1,1,,,,,,,,,0,3,3,3,0,6,6,1,,,,,,,,,,,,,,,,,,,,,,,,,,,,,,,,,,,,,,,,,,,,,,,,,,,,,,,754.973624282,None,754.973624282,None,754.973624282,None,c,1,1.3171092460033833,756.5079685469973,None,756.5079685469973,None,756.5079685469973,None,757.9402550609993,None,757.9402550609993,None,757.9402550609993,None,757.9402550609993,None,,,,,,,,,,,,,,,,,,,,,,,,,,,,,,,,,,,,,,,,,,,,001,17,2020_Jan_28_1453,spring_faces,3.1.5,60.068242329068426,
condition files/Stage1_2.xlsx,,B1,T1,c,"['c', 'm']","['Clue', 'Monopoly']","[-0.15, 0.5]","[0.15, 0.5]",1,1,,,,,,,,,0,3,3,3,0,7,7,0,,,,,,,,,,,,,,,,,,,,,,,,,,,,,,,,,,,,,,,,,,,,,,,,,,,,,,,759.8570667109998,None,759.8570667109998,None,759.8570667109998,None,c,1,2.0023012300007395,761.4068037179968,None,761.4068037179968,None,761.4068037179968,None,763.473909600998,None,763.473909600998,None,763.473909600998,None,763.473909600998,None,,,,,,,,,,,,,,,,,,,,,,,,,,,,,,,,,,,,,,,,,,,,001,17,2020_Jan_28_1453,spring_faces,3.1.5,60.068242329068426,
condition files/Stage1_1.xlsx,,B1,T2,c,"['c', 'm']","['Clue', 'Monopoly']","[-0.15, 0.5]","[0.15, 0.5]",1,1,,,,,,,,,0,4,4,4,0,0,0,1,,,,,,,,,,,,,,,,,,,,,,,,,,,,,,,,,,,,,,,,,,,,,,,,,,,,,,,765.4575948719976,None,765.4575948719976,None,765.4575948719976,None,m,0,1.808898761999444,766.9922047559994,None,766.9922047559994,None,766.9922047559994,None,768.8579807329988,None,768.8579807329988,None,768.8579807329988,None,768.8579807329988,None,,,,,,,,,,,,,,,,,,,,,,,,,,,,,,,,,,,,,,,,,,,,001,17,2020_Jan_28_1453,spring_faces,3.1.5,60.068242329068426,
condition files/Stage1_1.xlsx,,T1,B1,c,"['c', 'm']","['Clue', 'Monopoly']","[-0.15, 0.5]","[0.15, 0.5]",1,1,,,,,,,,,0,4,4,4,0,1,1,0,,,,,,,,,,,,,,,,,,,,,,,,,,,,,,,,,,,,,,,,,,,,,,,,,,,,,,,770.8234243799998,None,770.8234243799998,None,770.8234243799998,None,c,1,2.5879351450021204,772.3571907409969,None,772.3571907409969,None,772.3571907409969,None,775.0070044049971,None,775.0070044049971,None,775.0070044049971,None,775.0070044049971,None,,,,,,,,,,,,,,,,,,,,,,,,,,,,,,,,,,,,,,,,,,,,001,17,2020_Jan_28_1453,spring_faces,3.1.5,60.068242329068426,
condition files/Stage1_1.xlsx,,B3,T3,c,"['c', 'm']","['Clue', 'Monopoly']","[-0.15, 0.5]","[0.15, 0.5]",1,1,,,,,,,,,0,4,4,4,0,2,2,4,,,,,,,,,,,,,,,,,,,,,,,,,,,,,,,,,,,,,,,,,,,,,,,,,,,,,,,776.9735497959991,None,776.9735497959991,None,776.9735497959991,None,m,0,1.301465536998876,778.5076630969997,None,778.5076630969997,None,778.5076630969997,None,779.8739764739985,None,779.8739764739985,None,779.8739764739985,None,779.8739764739985,None,,,,,,,,,,,,,,,,,,,,,,,,,,,,,,,,,,,,,,,,,,,,001,17,2020_Jan_28_1453,spring_faces,3.1.5,60.068242329068426,
condition files/Stage1_1.xlsx,,B4,T4,m,"['c', 'm']","['Clue', 'Monopoly']","[-0.15, 0.5]","[0.15, 0.5]",1,1,,,,,,,,,0,4,4,4,0,3,3,7,,,,,,,,,,,,,,,,,,,,,,,,,,,,,,,,,,,,,,,,,,,,,,,,,,,,,,,781.8402693689968,None,781.8402693689968,None,781.8402693689968,None,m,1,0.7717914460008615,783.3733418599986,None,783.3733418599986,None,783.3733418599986,None,784.2240813319986,None,784.2240813319986,None,784.2240813319986,None,784.2240813319986,None,,,,,,,,,,,,,,,,,,,,,,,,,,,,,,,,,,,,,,,,,,,,001,17,2020_Jan_28_1453,spring_faces,3.1.5,60.068242329068426,
condition files/Stage1_1.xlsx,,T4,B3,m,"['c', 'm']","['Clue', 'Monopoly']","[-0.15, 0.5]","[0.15, 0.5]",1,1,,,,,,,,,0,4,4,4,0,4,4,6,,,,,,,,,,,,,,,,,,,,,,,,,,,,,,,,,,,,,,,,,,,,,,,,,,,,,,,786.1736467089977,None,786.1736467089977,None,786.1736467089977,None,m,1,2.7746408979983244,787.7065382589972,None,787.7065382589972,None,787.7065382589972,None,790.5404295339977,None,790.5404295339977,None,790.5404295339977,None,790.5404295339977,None,,,,,,,,,,,,,,,,,,,,,,,,,,,,,,,,,,,,,,,,,,,,001,17,2020_Jan_28_1453,spring_faces,3.1.5,60.068242329068426,
condition files/Stage1_1.xlsx,,T3,B4,c,"['c', 'm']","['Clue', 'Monopoly']","[-0.15, 0.5]","[0.15, 0.5]",1,1,,,,,,,,,0,4,4,4,0,5,5,5,,,,,,,,,,,,,,,,,,,,,,,,,,,,,,,,,,,,,,,,,,,,,,,,,,,,,,,792.5070164499994,None,792.5070164499994,None,792.5070164499994,None,c,1,1.7192141550003726,794.0419198059972,None,794.0419198059972,None,794.0419198059972,None,795.8399168729993,None,795.8399168729993,None,795.8399168729993,None,795.8399168729993,None,,,,,,,,,,,,,,,,,,,,,,,,,,,,,,,,,,,,,,,,,,,,001,17,2020_Jan_28_1453,spring_faces,3.1.5,60.068242329068426,
condition files/Stage1_1.xlsx,,T2,B2,m,"['c', 'm']","['Clue', 'Monopoly']","[-0.15, 0.5]","[0.15, 0.5]",1,1,,,,,,,,,0,4,4,4,0,6,6,3,,,,,,,,,,,,,,,,,,,,,,,,,,,,,,,,,,,,,,,,,,,,,,,,,,,,,,,797.7902773489986,None,797.7902773489986,None,797.7902773489986,None,m,1,0.7582821719988715,799.3228956159983,None,799.3228956159983,None,799.3228956159983,None,800.1420558509999,None,800.1420558509999,None,800.1420558509999,None,800.1420558509999,None,,,,,,,,,,,,,,,,,,,,,,,,,,,,,,,,,,,,,,,,,,,,001,17,2020_Jan_28_1453,spring_faces,3.1.5,60.068242329068426,
condition files/Stage1_1.xlsx,,B2,T1,m,"['c', 'm']","['Clue', 'Monopoly']","[-0.15, 0.5]","[0.15, 0.5]",1,1,,,,,,,,,0,4,4,4,0,7,7,2,,,,,,,,,,,,,,,,,,,,,,,,,,,,,,,,,,,,,,,,,,,,,,,,,,,,,,,802.1071084729992,None,802.1071084729992,None,802.1071084729992,None,m,1,1.176049318000878,803.6571452379976,None,803.6571452379976,None,803.6571452379976,None,804.890560210999,None,804.890560210999,None,804.890560210999,None,804.890560210999,None,,,,,,,,,,,,,,,,,,,,,,,,,,,,,,,,,,,,,,,,,,,,001,17,2020_Jan_28_1453,spring_faces,3.1.5,60.068242329068426,
condition files/Stage1_2.xlsx,,B4,T3,c,"['c', 'm']","['Clue', 'Monopoly']","[-0.15, 0.5]","[0.15, 0.5]",1,1,,,,,,,,,0,5,5,5,0,0,0,5,,,,,,,,,,,,,,,,,,,,,,,,,,,,,,,,,,,,,,,,,,,,,,,,,,,,,,,806.8740149149999,None,806.8740149149999,None,806.8740149149999,None,c,1,0.9051235570004792,808.4080793849971,None,808.4080793849971,None,808.4080793849971,None,809.3902608559983,None,809.3902608559983,None,809.3902608559983,None,809.3902608559983,None,,,,,,,,,,,,,,,,,,,,,,,,,,,,,,,,,,,,,,,,,,,,001,17,2020_Jan_28_1453,spring_faces,3.1.5,60.068242329068426,
condition files/Stage1_2.xlsx,,T2,B1,c,"['c', 'm']","['Clue', 'Monopoly']","[-0.15, 0.5]","[0.15, 0.5]",1,1,,,,,,,,,0,5,5,5,0,1,1,1,,,,,,,,,,,,,,,,,,,,,,,,,,,,,,,,,,,,,,,,,,,,,,,,,,,,,,,811.3403098979979,None,811.3403098979979,None,811.3403098979979,None,m,0,0.5344658730027732,812.8746632080001,None,812.8746632080001,None,812.8746632080001,None,813.4737419739977,None,813.4737419739977,None,813.4737419739977,None,813.4737419739977,None,,,,,,,,,,,,,,,,,,,,,,,,,,,,,,,,,,,,,,,,,,,,001,17,2020_Jan_28_1453,spring_faces,3.1.5,60.068242329068426,
condition files/Stage1_2.xlsx,,B3,T4,m,"['c', 'm']","['Clue', 'Monopoly']","[-0.15, 0.5]","[0.15, 0.5]",1,1,,,,,,,,,0,5,5,5,0,2,2,6,,,,,,,,,,,,,,,,,,,,,,,,,,,,,,,,,,,,,,,,,,,,,,,,,,,,,,,815.4403892909977,None,815.4403892909977,None,815.4403892909977,None,c,0,1.475108356000419,816.9900746449966,None,816.9900746449966,None,816.9900746449966,None,818.5249908959995,None,818.5249908959995,None,818.5249908959995,None,818.5249908959995,None,,,,,,,,,,,,,,,,,,,,,,,,,,,,,,,,,,,,,,,,,,,,001,17,2020_Jan_28_1453,spring_faces,3.1.5,60.068242329068426,
condition files/Stage1_2.xlsx,,T3,B3,c,"['c', 'm']","['Clue', 'Monopoly']","[-0.15, 0.5]","[0.15, 0.5]",1,1,,,,,,,,,0,5,5,5,0,3,3,4,,,,,,,,,,,,,,,,,,,,,,,,,,,,,,,,,,,,,,,,,,,,,,,,,,,,,,,820.489859235,None,820.489859235,None,820.489859235,None,c,1,0.8560050060004869,822.0251962169968,None,822.0251962169968,None,822.0251962169968,None,822.956432043,None,822.956432043,None,822.956432043,None,822.956432043,None,,,,,,,,,,,,,,,,,,,,,,,,,,,,,,,,,,,,,,,,,,,,001,17,2020_Jan_28_1453,spring_faces,3.1.5,60.068242329068426,
condition files/Stage1_2.xlsx,,T4,B4,m,"['c', 'm']","['Clue', 'Monopoly']","[-0.15, 0.5]","[0.15, 0.5]",1,1,,,,,,,,,0,5,5,5,0,4,4,7,,,,,,,,,,,,,,,,,,,,,,,,,,,,,,,,,,,,,,,,,,,,,,,,,,,,,,,824.9063413949989,None,824.9063413949989,None,824.9063413949989,None,c,0,1.7680724779966113,826.4410573819987,None,826.4410573819987,None,826.4410573819987,None,828.2906195609976,None,828.2906195609976,None,828.2906195609976,None,828.2906195609976,None,,,,,,,,,,,,,,,,,,,,,,,,,,,,,,,,,,,,,,,,,,,,001,17,2020_Jan_28_1453,spring_faces,3.1.5,60.068242329068426,
condition files/Stage1_2.xlsx,,T1,B2,m,"['c', 'm']","['Clue', 'Monopoly']","[-0.15, 0.5]","[0.15, 0.5]",1,1,,,,,,,,,0,5,5,5,0,5,5,2,,,,,,,,,,,,,,,,,,,,,,,,,,,,,,,,,,,,,,,,,,,,,,,,,,,,,,,830.2401216529979,None,830.2401216529979,None,830.2401216529979,None,c,0,2.2595240800001193,831.7736824249987,None,831.7736824249987,None,831.7736824249987,None,834.0902271729974,None,834.0902271729974,None,834.0902271729974,None,834.0902271729974,None,,,,,,,,,,,,,,,,,,,,,,,,,,,,,,,,,,,,,,,,,,,,001,17,2020_Jan_28_1453,spring_faces,3.1.5,60.068242329068426,
condition files/Stage1_2.xlsx,,B1,T1,c,"['c', 'm']","['Clue', 'Monopoly']","[-0.15, 0.5]","[0.15, 0.5]",1,1,,,,,,,,,0,5,5,5,0,6,6,0,,,,,,,,,,,,,,,,,,,,,,,,,,,,,,,,,,,,,,,,,,,,,,,,,,,,,,,836.0564977089998,None,836.0564977089998,None,836.0564977089998,None,m,0,1.450919017999695,837.5901574939999,None,837.5901574939999,None,837.5901574939999,None,839.1234948999991,None,839.1234948999991,None,839.1234948999991,None,839.1234948999991,None,,,,,,,,,,,,,,,,,,,,,,,,,,,,,,,,,,,,,,,,,,,,001,17,2020_Jan_28_1453,spring_faces,3.1.5,60.068242329068426,
condition files/Stage1_2.xlsx,,B2,T2,m,"['c', 'm']","['Clue', 'Monopoly']","[-0.15, 0.5]","[0.15, 0.5]",1,1,,,,,,,,,0,5,5,5,0,7,7,3,,,,,,,,,,,,,,,,,,,,,,,,,,,,,,,,,,,,,,,,,,,,,,,,,,,,,,,841.0736160339984,None,841.0736160339984,None,841.0736160339984,None,m,1,2.6239404500011005,842.6092811439994,None,842.6092811439994,None,842.6092811439994,None,845.3068400849988,None,845.3068400849988,None,845.3068400849988,None,845.3068400849988,None,,,,,,,,,,,,,,,,,,,,,,,,,,,,,,,,,,,,,,,,,,,,001,17,2020_Jan_28_1453,spring_faces,3.1.5,60.068242329068426,
condition files/Stage1_1.xlsx,,B4,T4,m,"['c', 'm']","['Clue', 'Monopoly']","[-0.15, 0.5]","[0.15, 0.5]",1,1,,,,,,,,,0,6,6,6,0,0,0,7,,,,,,,,,,,,,,,,,,,,,,,,,,,,,,,,,,,,,,,,,,,,,,,,,,,,,,,847.2743004699987,None,847.2743004699987,None,847.2743004699987,None,m,1,5.447897419999208,848.8091600859989,None,848.8091600859989,None,848.8091600859989,None,854.3238035819995,None,854.3238035819995,None,854.3238035819995,None,854.3238035819995,None,,,,,,,,,,,,,,,,,,,,,,,,,,,,,,,,,,,,,,,,,,,,001,17,2020_Jan_28_1453,spring_faces,3.1.5,60.068242329068426,
condition files/Stage1_1.xlsx,,B1,T2,c,"['c', 'm']","['Clue', 'Monopoly']","[-0.15, 0.5]","[0.15, 0.5]",1,1,,,,,,,,,0,6,6,6,0,1,1,1,,,,,,,,,,,,,,,,,,,,,,,,,,,,,,,,,,,,,,,,,,,,,,,,,,,,,,,856.2895204939996,None,856.2895204939996,None,856.2895204939996,None,m,0,2.0484714420017553,857.8406309799975,None,857.8406309799975,None,857.8406309799975,None,859.9564499199987,None,859.9564499199987,None,859.9564499199987,None,859.9564499199987,None,,,,,,,,,,,,,,,,,,,,,,,,,,,,,,,,,,,,,,,,,,,,001,17,2020_Jan_28_1453,spring_faces,3.1.5,60.068242329068426,
condition files/Stage1_1.xlsx,,T2,B2,m,"['c', 'm']","['Clue', 'Monopoly']","[-0.15, 0.5]","[0.15, 0.5]",1,1,,,,,,,,,0,6,6,6,0,2,2,3,,,,,,,,,,,,,,,,,,,,,,,,,,,,,,,,,,,,,,,,,,,,,,,,,,,,,,,861.9070680789991,None,861.9070680789991,None,861.9070680789991,None,c,0,2.1919613580030273,863.4572117169992,None,863.4572117169992,None,863.4572117169992,None,865.723362812998,None,865.723362812998,None,865.723362812998,None,865.723362812998,None,,,,,,,,,,,,,,,,,,,,,,,,,,,,,,,,,,,,,,,,,,,,001,17,2020_Jan_28_1453,spring_faces,3.1.5,60.068242329068426,
condition files/Stage1_1.xlsx,,T1,B1,c,"['c', 'm']","['Clue', 'Monopoly']","[-0.15, 0.5]","[0.15, 0.5]",1,1,,,,,,,,,0,6,6,6,0,3,3,0,,,,,,,,,,,,,,,,,,,,,,,,,,,,,,,,,,,,,,,,,,,,,,,,,,,,,,,867.6731127009989,None,867.6731127009989,None,867.6731127009989,None,c,1,1.7212760929978685,869.2238370409978,None,869.2238370409978,None,869.2238370409978,None,871.0239088049966,None,871.0239088049966,None,871.0239088049966,None,871.0239088049966,None,,,,,,,,,,,,,,,,,,,,,,,,,,,,,,,,,,,,,,,,,,,,001,17,2020_Jan_28_1453,spring_faces,3.1.5,60.068242329068426,
condition files/Stage1_1.xlsx,,B3,T3,c,"['c', 'm']","['Clue', 'Monopoly']","[-0.15, 0.5]","[0.15, 0.5]",1,1,,,,,,,,,0,6,6,6,0,4,4,4,,,,,,,,,,,,,,,,,,,,,,,,,,,,,,,,,,,,,,,,,,,,,,,,,,,,,,,872.9733795169996,None,872.9733795169996,None,872.9733795169996,None,c,1,1.1417225410004903,874.5074849909979,None,874.5074849909979,None,874.5074849909979,None,875.706916829,None,875.706916829,None,875.706916829,None,875.706916829,None,,,,,,,,,,,,,,,,,,,,,,,,,,,,,,,,,,,,,,,,,,,,001,17,2020_Jan_28_1453,spring_faces,3.1.5,60.068242329068426,
condition files/Stage1_1.xlsx,,T3,B4,c,"['c', 'm']","['Clue', 'Monopoly']","[-0.15, 0.5]","[0.15, 0.5]",1,1,,,,,,,,,0,6,6,6,0,5,5,5,,,,,,,,,,,,,,,,,,,,,,,,,,,,,,,,,,,,,,,,,,,,,,,,,,,,,,,877.6730834369991,None,877.6730834369991,None,877.6730834369991,None,m,0,1.337748935999116,879.223365496,None,879.223365496,None,879.223365496,None,880.6242414599983,None,880.6242414599983,None,880.6242414599983,None,880.6242414599983,None,,,,,,,,,,,,,,,,,,,,,,,,,,,,,,,,,,,,,,,,,,,,001,17,2020_Jan_28_1453,spring_faces,3.1.5,60.068242329068426,
condition files/Stage1_1.xlsx,,B2,T1,m,"['c', 'm']","['Clue', 'Monopoly']","[-0.15, 0.5]","[0.15, 0.5]",1,1,,,,,,,,,0,6,6,6,0,6,6,2,,,,,,,,,,,,,,,,,,,,,,,,,,,,,,,,,,,,,,,,,,,,,,,,,,,,,,,882.5902881169968,None,882.5902881169968,None,882.5902881169968,None,c,0,2.3564916830000584,884.1247094009996,None,884.1247094009996,None,884.1247094009996,None,886.5572275869999,None,886.5572275869999,None,886.5572275869999,None,886.5572275869999,None,,,,,,,,,,,,,,,,,,,,,,,,,,,,,,,,,,,,,,,,,,,,001,17,2020_Jan_28_1453,spring_faces,3.1.5,60.068242329068426,
condition files/Stage1_1.xlsx,,T4,B3,m,"['c', 'm']","['Clue', 'Monopoly']","[-0.15, 0.5]","[0.15, 0.5]",1,1,,,,,,,,,0,6,6,6,0,7,7,6,,,,,,,,,,,,,,,,,,,,,,,,,,,,,,,,,,,,,,,,,,,,,,,,,,,,,,,888.5063334059996,None,888.5063334059996,None,888.5063334059996,None,c,0,1.3209228849991632,890.0402156259988,None,890.0402156259988,None,890.0402156259988,None,891.4232999039996,None,891.4232999039996,None,891.4232999039996,None,891.4232999039996,None,,,,,,,,,,,,,,,,,,,,,,,,,,,,,,,,,,,,,,,,,,,,001,17,2020_Jan_28_1453,spring_faces,3.1.5,60.068242329068426,
condition files/Stage1_2.xlsx,,T1,B2,m,"['c', 'm']","['Clue', 'Monopoly']","[-0.15, 0.5]","[0.15, 0.5]",1,1,,,,,,,,,0,7,7,7,0,0,0,2,,,,,,,,,,,,,,,,,,,,,,,,,,,,,,,,,,,,,,,,,,,,,,,,,,,,,,,893.4071290819993,None,893.4071290819993,None,893.4071290819993,None,m,1,5.413065746000939,894.9400746189967,None,894.9400746189967,None,894.9400746189967,None,900.4072509049984,None,900.4072509049984,None,900.4072509049984,None,900.4072509049984,None,,,,,,,,,,,,,,,,,,,,,,,,,,,,,,,,,,,,,,,,,,,,001,17,2020_Jan_28_1453,spring_faces,3.1.5,60.068242329068426,
condition files/Stage1_2.xlsx,,T3,B3,c,"['c', 'm']","['Clue', 'Monopoly']","[-0.15, 0.5]","[0.15, 0.5]",1,1,,,,,,,,,0,7,7,7,0,1,1,4,,,,,,,,,,,,,,,,,,,,,,,,,,,,,,,,,,,,,,,,,,,,,,,,,,,,,,,902.3736589849977,None,902.3736589849977,None,902.3736589849977,None,c,1,1.4701894440004253,903.9069452059994,None,903.9069452059994,None,903.9069452059994,None,905.4567243029996,None,905.4567243029996,None,905.4567243029996,None,905.4567243029996,None,,,,,,,,,,,,,,,,,,,,,,,,,,,,,,,,,,,,,,,,,,,,001,17,2020_Jan_28_1453,spring_faces,3.1.5,60.068242329068426,
condition files/Stage1_2.xlsx,,B3,T4,m,"['c', 'm']","['Clue', 'Monopoly']","[-0.15, 0.5]","[0.15, 0.5]",1,1,,,,,,,,,0,7,7,7,0,2,2,6,,,,,,,,,,,,,,,,,,,,,,,,,,,,,,,,,,,,,,,,,,,,,,,,,,,,,,,907.4063595109983,None,907.4063595109983,None,907.4063595109983,None,c,0,1.524751461998676,908.9404410989991,None,908.9404410989991,None,908.9404410989991,None,910.5406295849971,None,910.5406295849971,None,910.5406295849971,None,910.5406295849971,None,,,,,,,,,,,,,,,,,,,,,,,,,,,,,,,,,,,,,,,,,,,,001,17,2020_Jan_28_1453,spring_faces,3.1.5,60.068242329068426,
condition files/Stage1_2.xlsx,,T2,B1,c,"['c', 'm']","['Clue', 'Monopoly']","[-0.15, 0.5]","[0.15, 0.5]",1,1,,,,,,,,,0,7,7,7,0,3,3,1,,,,,,,,,,,,,,,,,,,,,,,,,,,,,,,,,,,,,,,,,,,,,,,,,,,,,,,912.4897815669974,None,912.4897815669974,None,912.4897815669974,None,m,0,2.1846514779972495,914.0404474099996,None,914.0404474099996,None,914.0404474099996,None,916.3071103109978,None,916.3071103109978,None,916.3071103109978,None,916.3071103109978,None,,,,,,,,,,,,,,,,,,,,,,,,,,,,,,,,,,,,,,,,,,,,001,17,2020_Jan_28_1453,spring_faces,3.1.5,60.068242329068426,
condition files/Stage1_2.xlsx,,B4,T3,c,"['c', 'm']","['Clue', 'Monopoly']","[-0.15, 0.5]","[0.15, 0.5]",1,1,,,,,,,,,0,7,7,7,0,4,4,5,,,,,,,,,,,,,,,,,,,,,,,,,,,,,,,,,,,,,,,,,,,,,,,,,,,,,,,918.2571455959987,None,918.2571455959987,None,918.2571455959987,None,m,0,1.2503859310018015,919.8067345549971,None,919.8067345549971,None,919.8067345549971,None,921.107533184997,None,921.107533184997,None,921.107533184997,None,921.107533184997,None,,,,,,,,,,,,,,,,,,,,,,,,,,,,,,,,,,,,,,,,,,,,001,17,2020_Jan_28_1453,spring_faces,3.1.5,60.068242329068426,
condition files/Stage1_2.xlsx,,B1,T1,c,"['c', 'm']","['Clue', 'Monopoly']","[-0.15, 0.5]","[0.15, 0.5]",1,1,,,,,,,,,0,7,7,7,0,5,5,0,,,,,,,,,,,,,,,,,,,,,,,,,,,,,,,,,,,,,,,,,,,,,,,,,,,,,,,923.0730543119971,None,923.0730543119971,None,923.0730543119971,None,m,0,1.1039795800024876,924.6092053869979,None,924.6092053869979,None,924.6092053869979,None,925.7741401309977,None,925.7741401309977,None,925.7741401309977,None,925.7741401309977,None,,,,,,,,,,,,,,,,,,,,,,,,,,,,,,,,,,,,,,,,,,,,001,17,2020_Jan_28_1453,spring_faces,3.1.5,60.068242329068426,
condition files/Stage1_2.xlsx,,B2,T2,m,"['c', 'm']","['Clue', 'Monopoly']","[-0.15, 0.5]","[0.15, 0.5]",1,1,,,,,,,,,0,7,7,7,0,6,6,3,,,,,,,,,,,,,,,,,,,,,,,,,,,,,,,,,,,,,,,,,,,,,,,,,,,,,,,927.7402039649969,None,927.7402039649969,None,927.7402039649969,None,m,1,1.6221508529997664,929.2750568389965,None,929.2750568389965,None,929.2750568389965,None,930.9739566239987,None,930.9739566239987,None,930.9739566239987,None,930.9739566239987,None,,,,,,,,,,,,,,,,,,,,,,,,,,,,,,,,,,,,,,,,,,,,001,17,2020_Jan_28_1453,spring_faces,3.1.5,60.068242329068426,
condition files/Stage1_2.xlsx,,T4,B4,m,"['c', 'm']","['Clue', 'Monopoly']","[-0.15, 0.5]","[0.15, 0.5]",1,1,,,,,,,,,0,7,7,7,0,7,7,7,,,,,,,,,,,,,,,,,,,,,,,,,,,,,,,,,,,,,,,,,,,,,,,,,,,,,,,932.9235820359972,None,932.9235820359972,None,932.9235820359972,None,m,1,3.2231525179995515,934.4580319579982,None,934.4580319579982,None,934.4580319579982,None,937.7402867849996,None,937.7402867849996,None,937.7402867849996,None,937.7402867849996,None,,,,,,,,,,,,,,,,,,,,,,,,,,,,,,,,,,,,,,,,,,,,001,17,2020_Jan_28_1453,spring_faces,3.1.5,60.068242329068426,
condition files/Stage1_1.xlsx,,B1,T2,c,"['c', 'm']","['Clue', 'Monopoly']","[-0.15, 0.5]","[0.15, 0.5]",1,1,,,,,,,,,0,8,8,8,0,0,0,1,,,,,,,,,,,,,,,,,,,,,,,,,,,,,,,,,,,,,,,,,,,,,,,,,,,,,,,939.7239967179994,None,939.7239967179994,None,939.7239967179994,None,c,1,0.8876164879984572,941.2735165339982,None,941.2735165339982,None,941.2735165339982,None,942.2407982009972,None,942.2407982009972,None,942.2407982009972,None,942.2407982009972,None,,,,,,,,,,,,,,,,,,,,,,,,,,,,,,,,,,,,,,,,,,,,001,17,2020_Jan_28_1453,spring_faces,3.1.5,60.068242329068426,
condition files/Stage1_1.xlsx,,T2,B2,m,"['c', 'm']","['Clue', 'Monopoly']","[-0.15, 0.5]","[0.15, 0.5]",1,1,,,,,,,,,0,8,8,8,0,1,1,3,,,,,,,,,,,,,,,,,,,,,,,,,,,,,,,,,,,,,,,,,,,,,,,,,,,,,,,944.1901296439974,None,944.1901296439974,None,944.1901296439974,None,m,1,2.196651229998679,945.7405697359973,None,945.7405697359973,None,945.7405697359973,None,948.0072279529995,None,948.0072279529995,None,948.0072279529995,None,948.0072279529995,None,,,,,,,,,,,,,,,,,,,,,,,,,,,,,,,,,,,,,,,,,,,,001,17,2020_Jan_28_1453,spring_faces,3.1.5,60.068242329068426,
condition files/Stage1_1.xlsx,,T1,B1,c,"['c', 'm']","['Clue', 'Monopoly']","[-0.15, 0.5]","[0.15, 0.5]",1,1,,,,,,,,,0,8,8,8,0,2,2,0,,,,,,,,,,,,,,,,,,,,,,,,,,,,,,,,,,,,,,,,,,,,,,,,,,,,,,,949.9565964359972,None,949.9565964359972,None,949.9565964359972,None,c,1,0.8944476929973462,951.4906314849977,None,951.4906314849977,None,951.4906314849977,None,952.4573551089998,None,952.4573551089998,None,952.4573551089998,None,952.4573551089998,None,,,,,,,,,,,,,,,,,,,,,,,,,,,,,,,,,,,,,,,,,,,,001,17,2020_Jan_28_1453,spring_faces,3.1.5,60.068242329068426,
condition files/Stage1_1.xlsx,,B2,T1,m,"['c', 'm']","['Clue', 'Monopoly']","[-0.15, 0.5]","[0.15, 0.5]",1,1,,,,,,,,,0,8,8,8,0,3,3,2,,,,,,,,,,,,,,,,,,,,,,,,,,,,,,,,,,,,,,,,,,,,,,,,,,,,,,,954.4064416839974,None,954.4064416839974,None,954.4064416839974,None,m,1,0.5879437549992872,955.9571846219987,None,955.9571846219987,None,955.9571846219987,None,956.6091864849986,None,956.6091864849986,None,956.6091864849986,None,956.6091864849986,None,,,,,,,,,,,,,,,,,,,,,,,,,,,,,,,,,,,,,,,,,,,,001,17,2020_Jan_28_1453,spring_faces,3.1.5,60.068242329068426,
condition files/Stage1_1.xlsx,,T3,B4,c,"['c', 'm']","['Clue', 'Monopoly']","[-0.15, 0.5]","[0.15, 0.5]",1,1,,,,,,,,,0,8,8,8,0,4,4,5,,,,,,,,,,,,,,,,,,,,,,,,,,,,,,,,,,,,,,,,,,,,,,,,,,,,,,,958.5730400189968,None,958.5730400189968,None,958.5730400189968,None,c,1,3.3657349169989175,960.1233748369996,None,960.1233748369996,None,960.1233748369996,None,963.5569344739997,None,963.5569344739997,None,963.5569344739997,None,963.5569344739997,None,,,,,,,,,,,,,,,,,,,,,,,,,,,,,,,,,,,,,,,,,,,,001,17,2020_Jan_28_1453,spring_faces,3.1.5,60.068242329068426,
condition files/Stage1_1.xlsx,,B3,T3,c,"['c', 'm']","['Clue', 'Monopoly']","[-0.15, 0.5]","[0.15, 0.5]",1,1,,,,,,,,,0,8,8,8,0,5,5,4,,,,,,,,,,,,,,,,,,,,,,,,,,,,,,,,,,,,,,,,,,,,,,,,,,,,,,,965.5063654699989,None,965.5063654699989,None,965.5063654699989,None,m,0,1.3919714660005411,967.0572097889999,None,967.0572097889999,None,967.0572097889999,None,968.5074937719983,None,968.5074937719983,None,968.5074937719983,None,968.5074937719983,None,,,,,,,,,,,,,,,,,,,,,,,,,,,,,,,,,,,,,,,,,,,,001,17,2020_Jan_28_1453,spring_faces,3.1.5,60.068242329068426,
condition files/Stage1_1.xlsx,,B4,T4,m,"['c', 'm']","['Clue', 'Monopoly']","[-0.15, 0.5]","[0.15, 0.5]",1,1,,,,,,,,,0,8,8,8,0,6,6,7,,,,,,,,,,,,,,,,,,,,,,,,,,,,,,,,,,,,,,,,,,,,,,,,,,,,,,,970.4737018009982,None,970.4737018009982,None,970.4737018009982,None,m,1,1.5134909499975038,972.0235398609984,None,972.0235398609984,None,972.0235398609984,None,973.5925712579992,None,973.5925712579992,None,973.5925712579992,None,973.5925712579992,None,,,,,,,,,,,,,,,,,,,,,,,,,,,,,,,,,,,,,,,,,,,,001,17,2020_Jan_28_1453,spring_faces,3.1.5,60.068242329068426,
condition files/Stage1_1.xlsx,,T4,B3,m,"['c', 'm']","['Clue', 'Monopoly']","[-0.15, 0.5]","[0.15, 0.5]",1,1,,,,,,,,,0,8,8,8,0,7,7,6,,,,,,,,,,,,,,,,,,,,,,,,,,,,,,,,,,,,,,,,,,,,,,,,,,,,,,,975.5563881779999,None,975.5563881779999,None,975.5563881779999,None,c,0,1.0702742360008415,977.0908646779972,None,977.0908646779972,None,977.0908646779972,None,978.2238185529968,None,978.2238185529968,None,978.2238185529968,None,978.2238185529968,None,,,,,,,,,,,,,,,,,,,,,,,,,,,,,,,,,,,,,,,,,,,,001,17,2020_Jan_28_1453,spring_faces,3.1.5,60.068242329068426,
condition files/Stage1_2.xlsx,,T4,B4,m,"['c', 'm']","['Clue', 'Monopoly']","[-0.15, 0.5]","[0.15, 0.5]",1,1,,,,,,,,,0,9,9,9,0,0,0,7,,,,,,,,,,,,,,,,,,,,,,,,,,,,,,,,,,,,,,,,,,,,,,,,,,,,,,,980.2068008859969,None,980.2068008859969,None,980.2068008859969,None,c,0,1.4600058819996775,981.7410621199997,None,981.7410621199997,None,981.7410621199997,None,983.2576576139982,None,983.2576576139982,None,983.2576576139982,None,983.2576576139982,None,,,,,,,,,,,,,,,,,,,,,,,,,,,,,,,,,,,,,,,,,,,,001,17,2020_Jan_28_1453,spring_faces,3.1.5,60.068242329068426,
condition files/Stage1_2.xlsx,,B3,T4,m,"['c', 'm']","['Clue', 'Monopoly']","[-0.15, 0.5]","[0.15, 0.5]",1,1,,,,,,,,,0,9,9,9,0,1,1,6,,,,,,,,,,,,,,,,,,,,,,,,,,,,,,,,,,,,,,,,,,,,,,,,,,,,,,,985.2232874809997,None,985.2232874809997,None,985.2232874809997,None,m,1,2.2195486720011104,986.7735710399975,None,986.7735710399975,None,986.7735710399975,None,989.0569557649978,None,989.0569557649978,None,989.0569557649978,None,989.0569557649978,None,,,,,,,,,,,,,,,,,,,,,,,,,,,,,,,,,,,,,,,,,,,,001,17,2020_Jan_28_1453,spring_faces,3.1.5,60.068242329068426,
condition files/Stage1_2.xlsx,,B2,T2,m,"['c', 'm']","['Clue', 'Monopoly']","[-0.15, 0.5]","[0.15, 0.5]",1,1,,,,,,,,,0,9,9,9,0,2,2,3,,,,,,,,,,,,,,,,,,,,,,,,,,,,,,,,,,,,,,,,,,,,,,,,,,,,,,,991.0236875719966,None,991.0236875719966,None,991.0236875719966,None,m,1,0.7554497609999089,992.5576811879982,None,992.5576811879982,None,992.5576811879982,None,993.3738461229987,None,993.3738461229987,None,993.3738461229987,None,993.3738461229987,None,,,,,,,,,,,,,,,,,,,,,,,,,,,,,,,,,,,,,,,,,,,,001,17,2020_Jan_28_1453,spring_faces,3.1.5,60.068242329068426,
condition files/Stage1_2.xlsx,,T3,B3,c,"['c', 'm']","['Clue', 'Monopoly']","[-0.15, 0.5]","[0.15, 0.5]",1,1,,,,,,,,,0,9,9,9,0,3,3,4,,,,,,,,,,,,,,,,,,,,,,,,,,,,,,,,,,,,,,,,,,,,,,,,,,,,,,,995.340245733998,None,995.340245733998,None,995.340245733998,None,c,1,1.51195824000024,996.8731378579978,None,996.8731378579978,None,996.8731378579978,None,998.45671889,None,998.45671889,None,998.45671889,None,998.45671889,None,,,,,,,,,,,,,,,,,,,,,,,,,,,,,,,,,,,,,,,,,,,,001,17,2020_Jan_28_1453,spring_faces,3.1.5,60.068242329068426,
condition files/Stage1_2.xlsx,,T1,B2,m,"['c', 'm']","['Clue', 'Monopoly']","[-0.15, 0.5]","[0.15, 0.5]",1,1,,,,,,,,,0,9,9,9,0,4,4,2,,,,,,,,,,,,,,,,,,,,,,,,,,,,,,,,,,,,,,,,,,,,,,,,,,,,,,,1000.4067388329968,None,1000.4067388329968,None,1000.4067388329968,None,c,0,0.9568267829999968,1001.9403779299973,None,1001.9403779299973,None,1001.9403779299973,None,1002.9581406299985,None,1002.9581406299985,None,1002.9581406299985,None,1002.9581406299985,None,,,,,,,,,,,,,,,,,,,,,,,,,,,,,,,,,,,,,,,,,,,,001,17,2020_Jan_28_1453,spring_faces,3.1.5,60.068242329068426,
condition files/Stage1_2.xlsx,,B4,T3,c,"['c', 'm']","['Clue', 'Monopoly']","[-0.15, 0.5]","[0.15, 0.5]",1,1,,,,,,,,,0,9,9,9,0,5,5,5,,,,,,,,,,,,,,,,,,,,,,,,,,,,,,,,,,,,,,,,,,,,,,,,,,,,,,,1004.923537527,None,1004.923537527,None,1004.923537527,None,c,1,4.215658924000309,1006.4574703909966,None,1006.4574703909966,None,1006.4574703909966,None,1010.7248222309972,None,1010.7248222309972,None,1010.7248222309972,None,1010.7248222309972,None,,,,,,,,,,,,,,,,,,,,,,,,,,,,,,,,,,,,,,,,,,,,001,17,2020_Jan_28_1453,spring_faces,3.1.5,60.068242329068426,
condition files/Stage1_2.xlsx,,T2,B1,c,"['c', 'm']","['Clue', 'Monopoly']","[-0.15, 0.5]","[0.15, 0.5]",1,1,,,,,,,,,0,9,9,9,0,6,6,1,,,,,,,,,,,,,,,,,,,,,,,,,,,,,,,,,,,,,,,,,,,,,,,,,,,,,,,1012.6903982359981,None,1012.6903982359981,None,1012.6903982359981,None,c,1,1.0897609800013015,1014.2234323859993,None,1014.2234323859993,None,1014.2234323859993,None,1015.3740971119987,None,1015.3740971119987,None,1015.3740971119987,None,1015.3740971119987,None,,,,,,,,,,,,,,,,,,,,,,,,,,,,,,,,,,,,,,,,,,,,001,17,2020_Jan_28_1453,spring_faces,3.1.5,60.068242329068426,
condition files/Stage1_2.xlsx,,B1,T1,c,"['c', 'm']","['Clue', 'Monopoly']","[-0.15, 0.5]","[0.15, 0.5]",1,1,,,,,,,,,0,9,9,9,0,7,7,0,,,,,,,,,,,,,,,,,,,,,,,,,,,,,,,,,,,,,,,,,,,,,,,,,,,,,,,1017.3402362229972,None,1017.3402362229972,None,1017.3402362229972,None,m,0,0.6136982770003669,1018.8754327069983,None,1018.8754327069983,None,1018.8754327069983,None,1019.5404258969975,None,1019.5404258969975,None,1019.5404258969975,None,1019.5404258969975,None,,,,,,,,,,,,,,,,,,,,,,,,,,,,,,,,,,,,,,,,,,,,001,17,2020_Jan_28_1453,spring_faces,3.1.5,60.068242329068426,
condition files/Stage1_1.xlsx,,T1,B1,c,"['c', 'm']","['Clue', 'Monopoly']","[-0.15, 0.5]","[0.15, 0.5]",1,1,,,,,,,,,0,10,10,10,0,0,0,0,,,,,,,,,,,,,,,,,,,,,,,,,,,,,,,,,,,,,,,,,,,,,,,,,,,,,,,1021.5237943539978,None,1021.5237943539978,None,1021.5237943539978,None,c,1,1.1194429409988516,1023.0736945989993,None,1023.0736945989993,None,1023.0736945989993,None,1024.2569654929976,None,1024.2569654929976,None,1024.2569654929976,None,1024.2569654929976,None,,,,,,,,,,,,,,,,,,,,,,,,,,,,,,,,,,,,,,,,,,,,001,17,2020_Jan_28_1453,spring_faces,3.1.5,60.068242329068426,
condition files/Stage1_1.xlsx,,T4,B3,m,"['c', 'm']","['Clue', 'Monopoly']","[-0.15, 0.5]","[0.15, 0.5]",1,1,,,,,,,,,0,10,10,10,0,1,1,6,,,,,,,,,,,,,,,,,,,,,,,,,,,,,,,,,,,,,,,,,,,,,,,,,,,,,,,1026.2234531699978,None,1026.2234531699978,None,1026.2234531699978,None,c,0,1.5871471600003133,1027.7579983649994,None,1027.7579983649994,None,1027.7579983649994,None,1029.4092268389977,None,1029.4092268389977,None,1029.4092268389977,None,1029.4092268389977,None,,,,,,,,,,,,,,,,,,,,,,,,,,,,,,,,,,,,,,,,,,,,001,17,2020_Jan_28_1453,spring_faces,3.1.5,60.068242329068426,
condition files/Stage1_1.xlsx,,B2,T1,m,"['c', 'm']","['Clue', 'Monopoly']","[-0.15, 0.5]","[0.15, 0.5]",1,1,,,,,,,,,0,10,10,10,0,2,2,2,,,,,,,,,,,,,,,,,,,,,,,,,,,,,,,,,,,,,,,,,,,,,,,,,,,,,,,1031.3735488029997,None,1031.3735488029997,None,1031.3735488029997,None,m,1,1.4935462860012194,1032.9236284229992,None,1032.9236284229992,None,1032.9236284229992,None,1034.473212031,None,1034.473212031,None,1034.473212031,None,1034.473212031,None,,,,,,,,,,,,,,,,,,,,,,,,,,,,,,,,,,,,,,,,,,,,001,17,2020_Jan_28_1453,spring_faces,3.1.5,60.068242329068426,
condition files/Stage1_1.xlsx,,T3,B4,c,"['c', 'm']","['Clue', 'Monopoly']","[-0.15, 0.5]","[0.15, 0.5]",1,1,,,,,,,,,0,10,10,10,0,3,3,5,,,,,,,,,,,,,,,,,,,,,,,,,,,,,,,,,,,,,,,,,,,,,,,,,,,,,,,1036.4404309579986,None,1036.4404309579986,None,1036.4404309579986,None,m,0,3.9944995700025174,1037.9905528209965,None,1037.9905528209965,None,1037.9905528209965,None,1042.0567086109986,None,1042.0567086109986,None,1042.0567086109986,None,1042.0567086109986,None,,,,,,,,,,,,,,,,,,,,,,,,,,,,,,,,,,,,,,,,,,,,001,17,2020_Jan_28_1453,spring_faces,3.1.5,60.068242329068426,
condition files/Stage1_1.xlsx,,B3,T3,c,"['c', 'm']","['Clue', 'Monopoly']","[-0.15, 0.5]","[0.15, 0.5]",1,1,,,,,,,,,0,10,10,10,0,4,4,4,,,,,,,,,,,,,,,,,,,,,,,,,,,,,,,,,,,,,,,,,,,,,,,,,,,,,,,1044.0069048139994,None,1044.0069048139994,None,1044.0069048139994,None,m,0,2.7475176560001273,1045.557595334998,None,1045.557595334998,None,1045.557595334998,None,1048.3575050579966,None,1048.3575050579966,None,1048.3575050579966,None,1048.3575050579966,None,,,,,,,,,,,,,,,,,,,,,,,,,,,,,,,,,,,,,,,,,,,,001,17,2020_Jan_28_1453,spring_faces,3.1.5,60.068242329068426,
condition files/Stage1_1.xlsx,,B4,T4,m,"['c', 'm']","['Clue', 'Monopoly']","[-0.15, 0.5]","[0.15, 0.5]",1,1,,,,,,,,,0,10,10,10,0,5,5,7,,,,,,,,,,,,,,,,,,,,,,,,,,,,,,,,,,,,,,,,,,,,,,,,,,,,,,,1050.3230415959988,None,1050.3230415959988,None,1050.3230415959988,None,m,1,4.206930692998867,1051.8582581489973,None,1051.8582581489973,None,1051.8582581489973,None,1056.123578412,None,1056.123578412,None,1056.123578412,None,1056.123578412,None,,,,,,,,,,,,,,,,,,,,,,,,,,,,,,,,,,,,,,,,,,,,001,17,2020_Jan_28_1453,spring_faces,3.1.5,60.068242329068426,
condition files/Stage1_1.xlsx,,T2,B2,m,"['c', 'm']","['Clue', 'Monopoly']","[-0.15, 0.5]","[0.15, 0.5]",1,1,,,,,,,,,0,10,10,10,0,6,6,3,,,,,,,,,,,,,,,,,,,,,,,,,,,,,,,,,,,,,,,,,,,,,,,,,,,,,,,1058.0898237579968,None,1058.0898237579968,None,1058.0898237579968,None,c,0,1.9923781899997266,1059.640856275997,None,1059.640856275997,None,1059.640856275997,None,1061.6913117909971,None,1061.6913117909971,None,1061.6913117909971,None,1061.6913117909971,None,,,,,,,,,,,,,,,,,,,,,,,,,,,,,,,,,,,,,,,,,,,,001,17,2020_Jan_28_1453,spring_faces,3.1.5,60.068242329068426,
condition files/Stage1_1.xlsx,,B1,T2,c,"['c', 'm']","['Clue', 'Monopoly']","[-0.15, 0.5]","[0.15, 0.5]",1,1,,,,,,,,,0,10,10,10,0,7,7,1,,,,,,,,,,,,,,,,,,,,,,,,,,,,,,,,,,,,,,,,,,,,,,,,,,,,,,,1063.6572158869967,None,1063.6572158869967,None,1063.6572158869967,None,c,1,2.4736040299976594,1065.191585618999,None,1065.191585618999,None,1065.191585618999,None,1067.725644872,None,1067.725644872,None,1067.725644872,None,1067.725644872,None,,,,,,,,,,,,,,,,,,,,,,,,,,,,,,,,,,,,,,,,,,,,001,17,2020_Jan_28_1453,spring_faces,3.1.5,60.068242329068426,
condition files/Stage1_2.xlsx,,B1,T1,c,"['c', 'm']","['Clue', 'Monopoly']","[-0.15, 0.5]","[0.15, 0.5]",1,1,,,,,,,,,0,11,11,11,0,0,0,0,,,,,,,,,,,,,,,,,,,,,,,,,,,,,,,,,,,,,,,,,,,,,,,,,,,,,,,1069.706951095999,None,1069.706951095999,None,1069.706951095999,None,m,0,1.1767314809985692,1071.2564700509975,None,1071.2564700509975,None,1071.2564700509975,None,1072.489990263999,None,1072.489990263999,None,1072.489990263999,None,1072.489990263999,None,,,,,,,,,,,,,,,,,,,,,,,,,,,,,,,,,,,,,,,,,,,,001,17,2020_Jan_28_1453,spring_faces,3.1.5,60.068242329068426,
condition files/Stage1_2.xlsx,,B3,T4,m,"['c', 'm']","['Clue', 'Monopoly']","[-0.15, 0.5]","[0.15, 0.5]",1,1,,,,,,,,,0,11,11,11,0,1,1,6,,,,,,,,,,,,,,,,,,,,,,,,,,,,,,,,,,,,,,,,,,,,,,,,,,,,,,,1074.4568954499991,None,1074.4568954499991,None,1074.4568954499991,None,c,0,1.17867613099952,1075.990424421998,None,1075.990424421998,None,1075.990424421998,None,1077.225002993,None,1077.225002993,None,1077.225002993,None,1077.225002993,None,,,,,,,,,,,,,,,,,,,,,,,,,,,,,,,,,,,,,,,,,,,,001,17,2020_Jan_28_1453,spring_faces,3.1.5,60.068242329068426,
condition files/Stage1_2.xlsx,,T2,B1,c,"['c', 'm']","['Clue', 'Monopoly']","[-0.15, 0.5]","[0.15, 0.5]",1,1,,,,,,,,,0,11,11,11,0,2,2,1,,,,,,,,,,,,,,,,,,,,,,,,,,,,,,,,,,,,,,,,,,,,,,,,,,,,,,,1079.1897745419992,None,1079.1897745419992,None,1079.1897745419992,None,c,1,2.989696496999386,1080.7234873499983,None,1080.7234873499983,None,1080.7234873499983,None,1083.7905780119982,None,1083.7905780119982,None,1083.7905780119982,None,1083.7905780119982,None,,,,,,,,,,,,,,,,,,,,,,,,,,,,,,,,,,,,,,,,,,,,001,17,2020_Jan_28_1453,spring_faces,3.1.5,60.068242329068426,
condition files/Stage1_2.xlsx,,B2,T2,m,"['c', 'm']","['Clue', 'Monopoly']","[-0.15, 0.5]","[0.15, 0.5]",1,1,,,,,,,,,0,11,11,11,0,3,3,3,,,,,,,,,,,,,,,,,,,,,,,,,,,,,,,,,,,,,,,,,,,,,,,,,,,,,,,1085.740333130998,None,1085.740333130998,None,1085.740333130998,None,m,1,1.1425408430004609,1087.2746649729997,None,1087.2746649729997,None,1087.2746649729997,None,1088.475496420997,None,1088.475496420997,None,1088.475496420997,None,1088.475496420997,None,,,,,,,,,,,,,,,,,,,,,,,,,,,,,,,,,,,,,,,,,,,,001,17,2020_Jan_28_1453,spring_faces,3.1.5,60.068242329068426,
condition files/Stage1_2.xlsx,,B4,T3,c,"['c', 'm']","['Clue', 'Monopoly']","[-0.15, 0.5]","[0.15, 0.5]",1,1,,,,,,,,,0,11,11,11,0,4,4,5,,,,,,,,,,,,,,,,,,,,,,,,,,,,,,,,,,,,,,,,,,,,,,,,,,,,,,,1090.4397534329983,None,1090.4397534329983,None,1090.4397534329983,None,m,0,9.417720495999674,1091.975423259999,None,1091.975423259999,None,1091.975423259999,None,1101.4577413359984,None,1101.4577413359984,None,1101.4577413359984,None,1101.4577413359984,None,,,,,,,,,,,,,,,,,,,,,,,,,,,,,,,,,,,,,,,,,,,,001,17,2020_Jan_28_1453,spring_faces,3.1.5,60.068242329068426,
condition files/Stage1_2.xlsx,,T3,B3,c,"['c', 'm']","['Clue', 'Monopoly']","[-0.15, 0.5]","[0.15, 0.5]",1,1,,,,,,,,,0,11,11,11,0,5,5,4,,,,,,,,,,,,,,,,,,,,,,,,,,,,,,,,,,,,,,,,,,,,,,,,,,,,,,,1103.423556111,None,1103.423556111,None,1103.423556111,None,c,1,2.243742424998345,1104.9573507319983,None,1104.9573507319983,None,1104.9573507319983,None,1107.2573341079988,None,1107.2573341079988,None,1107.2573341079988,None,1107.2573341079988,None,,,,,,,,,,,,,,,,,,,,,,,,,,,,,,,,,,,,,,,,,,,,001,17,2020_Jan_28_1453,spring_faces,3.1.5,60.068242329068426,
condition files/Stage1_2.xlsx,,T4,B4,m,"['c', 'm']","['Clue', 'Monopoly']","[-0.15, 0.5]","[0.15, 0.5]",1,1,,,,,,,,,0,11,11,11,0,6,6,7,,,,,,,,,,,,,,,,,,,,,,,,,,,,,,,,,,,,,,,,,,,,,,,,,,,,,,,1109.2235322969973,None,1109.2235322969973,None,1109.2235322969973,None,c,0,3.8524487349968695,1110.756641740998,None,1110.756641740998,None,1110.756641740998,None,1114.6901536319965,None,1114.6901536319965,None,1114.6901536319965,None,1114.6901536319965,None,,,,,,,,,,,,,,,,,,,,,,,,,,,,,,,,,,,,,,,,,,,,001,17,2020_Jan_28_1453,spring_faces,3.1.5,60.068242329068426,
condition files/Stage1_2.xlsx,,T1,B2,m,"['c', 'm']","['Clue', 'Monopoly']","[-0.15, 0.5]","[0.15, 0.5]",1,1,,,,,,,,,0,11,11,11,0,7,7,2,,,,,,,,,,,,,,,,,,,,,,,,,,,,,,,,,,,,,,,,,,,,,,,,,,,,,,,1116.6401731049991,None,1116.6401731049991,None,1116.6401731049991,None,c,0,4.819514642997092,1118.1736192699973,None,1118.1736192699973,None,1118.1736192699973,None,1123.0575779799983,None,1123.0575779799983,None,1123.0575779799983,None,1123.0575779799983,None,,,,,,,,,,,,,,,,,,,,,,,,,,,,,,,,,,,,,,,,,,,,001,17,2020_Jan_28_1453,spring_faces,3.1.5,60.068242329068426,
,,,,,,,,,,,,,,,,,,,,,,,,,,,,,,,,,,,,,,,,,,,,,,,,,,,,,,,,,,,,,,,,,,,,,,,,,,,,,,,,,,,,,,,,,,,,,,,,,,,,,,,,,,,,,,,,1125.040751016997,None,space,6.3768343000010645,1130.0403778989967,None,,,,,,,,,,,,,,,,,,,,,,,,,,,,,,001,17,2020_Jan_28_1453,spring_faces,3.1.5,60.068242329068426,
condition files/Stage2_1.xlsx,,B4,T4,r,"['s', 'r']","['Stratego', 'Risk']","[-0.15, 0.5]","[0.15, 0.5]",1,1,,,,,,,,,,,,,,,,,0,0,0,0,0,0,0,5,,,,,,,,,,,,,,,,,,,,,,,,,,,,,,,,,,,,,,,,,,,,,,,1136.4733747259997,None,1136.4733747259997,None,1136.4733747259997,None,r,1,2.5388577920020907,1137.9743153579984,None,1137.9743153579984,None,1137.9743153579984,None,1140.5741186619998,None,1140.5741186619998,None,1140.5741186619998,None,1140.5741186619998,None,,,,,,,,,,,,,,,1130.0403778989967,None,,,,,,,,,,,,,,,,,,,,,,,,,,,,001,17,2020_Jan_28_1453,spring_faces,3.1.5,60.068242329068426,
condition files/Stage2_1.xlsx,,T3,B3,s,"['s', 'r']","['Stratego', 'Risk']","[-0.15, 0.5]","[0.15, 0.5]",1,1,,,,,,,,,,,,,,,,,0,0,0,0,0,1,1,4,,,,,,,,,,,,,,,,,,,,,,,,,,,,,,,,,,,,,,,,,,,,,,,1142.5405118539966,None,1142.5405118539966,None,1142.5405118539966,None,s,1,2.3273893730001873,1144.0737534889995,None,1144.0737534889995,None,1144.0737534889995,None,1146.4739314379985,None,1146.4739314379985,None,1146.4739314379985,None,1146.4739314379985,None,,,,,,,,,,,,,,,,,,,,,,,,,,,,,,,,,,,,,,,,,,,,001,17,2020_Jan_28_1453,spring_faces,3.1.5,60.068242329068426,
condition files/Stage2_1.xlsx,,T1,B1,s,"['s', 'r']","['Stratego', 'Risk']","[-0.15, 0.5]","[0.15, 0.5]",1,1,,,,,,,,,,,,,,,,,0,0,0,0,0,2,2,2,,,,,,,,,,,,,,,,,,,,,,,,,,,,,,,,,,,,,,,,,,,,,,,1148.4232282699995,None,1148.4232282699995,None,1148.4232282699995,None,r,0,5.0039034910005284,1149.9572322549975,None,1149.9572322549975,None,1149.9572322549975,None,1155.0232459749968,None,1155.0232459749968,None,1155.0232459749968,None,1155.0232459749968,None,,,,,,,,,,,,,,,,,,,,,,,,,,,,,,,,,,,,,,,,,,,,001,17,2020_Jan_28_1453,spring_faces,3.1.5,60.068242329068426,
condition files/Stage2_1.xlsx,,B2,T2,r,"['s', 'r']","['Stratego', 'Risk']","[-0.15, 0.5]","[0.15, 0.5]",1,1,,,,,,,,,,,,,,,,,0,0,0,0,0,3,3,3,,,,,,,,,,,,,,,,,,,,,,,,,,,,,,,,,,,,,,,,,,,,,,,1156.9903779779997,None,1156.9903779779997,None,1156.9903779779997,None,r,1,2.644489006001095,1158.524664774999,None,1158.524664774999,None,1158.524664774999,None,1161.2259226419992,None,1161.2259226419992,None,1161.2259226419992,None,1161.2259226419992,None,,,,,,,,,,,,,,,,,,,,,,,,,,,,,,,,,,,,,,,,,,,,001,17,2020_Jan_28_1453,spring_faces,3.1.5,60.068242329068426,
condition files/Stage2_1.xlsx,,T5,B5,s,"['s', 'r']","['Stratego', 'Risk']","[-0.15, 0.5]","[0.15, 0.5]",1,1,,,,,,,,,,,,,,,,,0,0,0,0,0,4,4,0,,,,,,,,,,,,,,,,,,,,,,,,,,,,,,,,,,,,,,,,,,,,,,,1163.1898689129994,None,1163.1898689129994,None,1163.1898689129994,None,s,1,2.6047610140012694,1164.7243349719975,None,1164.7243349719975,None,1164.7243349719975,None,1167.3925483209969,None,1167.3925483209969,None,1167.3925483209969,None,1167.3925483209969,None,,,,,,,,,,,,,,,,,,,,,,,,,,,,,,,,,,,,,,,,,,,,001,17,2020_Jan_28_1453,spring_faces,3.1.5,60.068242329068426,
condition files/Stage2_1.xlsx,,B6,T6,r,"['s', 'r']","['Stratego', 'Risk']","[-0.15, 0.5]","[0.15, 0.5]",1,1,,,,,,,,,,,,,,,,,0,0,0,0,0,5,5,1,,,,,,,,,,,,,,,,,,,,,,,,,,,,,,,,,,,,,,,,,,,,,,,1169.3570453559987,None,1169.3570453559987,None,1169.3570453559987,None,r,1,4.389421552998101,1170.891775885997,None,1170.891775885997,None,1170.891775885997,None,1175.3566153579995,None,1175.3566153579995,None,1175.3566153579995,None,1175.3566153579995,None,,,,,,,,,,,,,,,,,,,,,,,,,,,,,,,,,,,,,,,,,,,,001,17,2020_Jan_28_1453,spring_faces,3.1.5,60.068242329068426,
condition files/Stage2_2.xlsx,,T6,B6,r,"['s', 'r']","['Stratego', 'Risk']","[-0.15, 0.5]","[0.15, 0.5]",1,1,,,,,,,,,,,,,,,,,0,1,1,1,0,0,0,1,,,,,,,,,,,,,,,,,,,,,,,,,,,,,,,,,,,,,,,,,,,,,,,1177.3235506569981,None,1177.3235506569981,None,1177.3235506569981,None,r,1,1.1594154149970564,1178.8737951719995,None,1178.8737951719995,None,1178.8737951719995,None,1180.0906436279984,None,1180.0906436279984,None,1180.0906436279984,None,1180.0906436279984,None,,,,,,,,,,,,,,,,,,,,,,,,,,,,,,,,,,,,,,,,,,,,001,17,2020_Jan_28_1453,spring_faces,3.1.5,60.068242329068426,
condition files/Stage2_2.xlsx,,B3,T3,s,"['s', 'r']","['Stratego', 'Risk']","[-0.15, 0.5]","[0.15, 0.5]",1,1,,,,,,,,,,,,,,,,,0,1,1,1,0,1,1,4,,,,,,,,,,,,,,,,,,,,,,,,,,,,,,,,,,,,,,,,,,,,,,,1182.0568936889977,None,1182.0568936889977,None,1182.0568936889977,None,s,1,2.313633079000283,1183.6074824579991,None,1183.6074824579991,None,1183.6074824579991,None,1185.9909919159982,None,1185.9909919159982,None,1185.9909919159982,None,1185.9909919159982,None,,,,,,,,,,,,,,,,,,,,,,,,,,,,,,,,,,,,,,,,,,,,001,17,2020_Jan_28_1453,spring_faces,3.1.5,60.068242329068426,
condition files/Stage2_2.xlsx,,T2,B2,r,"['s', 'r']","['Stratego', 'Risk']","[-0.15, 0.5]","[0.15, 0.5]",1,1,,,,,,,,,,,,,,,,,0,1,1,1,0,2,2,3,,,,,,,,,,,,,,,,,,,,,,,,,,,,,,,,,,,,,,,,,,,,,,,1187.9402510359978,None,1187.9402510359978,None,1187.9402510359978,None,s,0,3.7412682859976485,1189.4759397259986,None,1189.4759397259986,None,1189.4759397259986,None,1193.290514753,None,1193.290514753,None,1193.290514753,None,1193.290514753,None,,,,,,,,,,,,,,,,,,,,,,,,,,,,,,,,,,,,,,,,,,,,001,17,2020_Jan_28_1453,spring_faces,3.1.5,60.068242329068426,
condition files/Stage2_2.xlsx,,B5,T5,s,"['s', 'r']","['Stratego', 'Risk']","[-0.15, 0.5]","[0.15, 0.5]",1,1,,,,,,,,,,,,,,,,,0,1,1,1,0,3,3,0,,,,,,,,,,,,,,,,,,,,,,,,,,,,,,,,,,,,,,,,,,,,,,,1195.2404281529998,None,1195.2404281529998,None,1195.2404281529998,None,r,0,2.2345243300005677,1196.790580388999,None,1196.790580388999,None,1196.790580388999,None,1199.1066780699985,None,1199.1066780699985,None,1199.1066780699985,None,1199.1066780699985,None,,,,,,,,,,,,,,,,,,,,,,,,,,,,,,,,,,,,,,,,,,,,001,17,2020_Jan_28_1453,spring_faces,3.1.5,60.068242329068426,
condition files/Stage2_2.xlsx,,B1,T1,s,"['s', 'r']","['Stratego', 'Risk']","[-0.15, 0.5]","[0.15, 0.5]",1,1,,,,,,,,,,,,,,,,,0,1,1,1,0,4,4,2,,,,,,,,,,,,,,,,,,,,,,,,,,,,,,,,,,,,,,,,,,,,,,,1201.0572152019995,None,1201.0572152019995,None,1201.0572152019995,None,r,0,1.698394492999796,1202.5907196739972,None,1202.5907196739972,None,1202.5907196739972,None,1204.3401165459982,None,1204.3401165459982,None,1204.3401165459982,None,1204.3401165459982,None,,,,,,,,,,,,,,,,,,,,,,,,,,,,,,,,,,,,,,,,,,,,001,17,2020_Jan_28_1453,spring_faces,3.1.5,60.068242329068426,
condition files/Stage2_2.xlsx,,T4,B4,r,"['s', 'r']","['Stratego', 'Risk']","[-0.15, 0.5]","[0.15, 0.5]",1,1,,,,,,,,,,,,,,,,,0,1,1,1,0,5,5,5,,,,,,,,,,,,,,,,,,,,,,,,,,,,,,,,,,,,,,,,,,,,,,,1206.3068559849999,None,1206.3068559849999,None,1206.3068559849999,None,s,0,2.04809088500042,1207.856999522999,None,1207.856999522999,None,1207.856999522999,None,1209.9733251069993,None,1209.9733251069993,None,1209.9733251069993,None,1209.9733251069993,None,,,,,,,,,,,,,,,,,,,,,,,,,,,,,,,,,,,,,,,,,,,,001,17,2020_Jan_28_1453,spring_faces,3.1.5,60.068242329068426,
condition files/Stage2_1.xlsx,,T3,B3,s,"['s', 'r']","['Stratego', 'Risk']","[-0.15, 0.5]","[0.15, 0.5]",1,1,,,,,,,,,,,,,,,,,0,2,2,2,0,0,0,4,,,,,,,,,,,,,,,,,,,,,,,,,,,,,,,,,,,,,,,,,,,,,,,1211.9403592319977,None,1211.9403592319977,None,1211.9403592319977,None,s,1,1.3747649020006065,1213.4744465099975,None,1213.4744465099975,None,1213.4744465099975,None,1214.9237786169979,None,1214.9237786169979,None,1214.9237786169979,None,1214.9237786169979,None,,,,,,,,,,,,,,,,,,,,,,,,,,,,,,,,,,,,,,,,,,,,001,17,2020_Jan_28_1453,spring_faces,3.1.5,60.068242329068426,
condition files/Stage2_1.xlsx,,B4,T4,r,"['s', 'r']","['Stratego', 'Risk']","[-0.15, 0.5]","[0.15, 0.5]",1,1,,,,,,,,,,,,,,,,,0,2,2,2,0,1,1,5,,,,,,,,,,,,,,,,,,,,,,,,,,,,,,,,,,,,,,,,,,,,,,,1216.8741520539988,None,1216.8741520539988,None,1216.8741520539988,None,r,1,1.768673057002161,1218.4084729529968,None,1218.4084729529968,None,1218.4084729529968,None,1220.2571607829996,None,1220.2571607829996,None,1220.2571607829996,None,1220.2571607829996,None,,,,,,,,,,,,,,,,,,,,,,,,,,,,,,,,,,,,,,,,,,,,001,17,2020_Jan_28_1453,spring_faces,3.1.5,60.068242329068426,
condition files/Stage2_1.xlsx,,T1,B1,s,"['s', 'r']","['Stratego', 'Risk']","[-0.15, 0.5]","[0.15, 0.5]",1,1,,,,,,,,,,,,,,,,,0,2,2,2,0,2,2,2,,,,,,,,,,,,,,,,,,,,,,,,,,,,,,,,,,,,,,,,,,,,,,,1222.2069622499985,None,1222.2069622499985,None,1222.2069622499985,None,r,0,3.1079961899995396,1223.757178869997,None,1223.757178869997,None,1223.757178869997,None,1226.9261758539978,None,1226.9261758539978,None,1226.9261758539978,None,1226.9261758539978,None,,,,,,,,,,,,,,,,,,,,,,,,,,,,,,,,,,,,,,,,,,,,001,17,2020_Jan_28_1453,spring_faces,3.1.5,60.068242329068426,
condition files/Stage2_1.xlsx,,B2,T2,r,"['s', 'r']","['Stratego', 'Risk']","[-0.15, 0.5]","[0.15, 0.5]",1,1,,,,,,,,,,,,,,,,,0,2,2,2,0,3,3,3,,,,,,,,,,,,,,,,,,,,,,,,,,,,,,,,,,,,,,,,,,,,,,,1228.8897546849985,None,1228.8897546849985,None,1228.8897546849985,None,r,1,1.528709226000501,1230.4403760809982,None,1230.4403760809982,None,1230.4403760809982,None,1232.0264133909986,None,1232.0264133909986,None,1232.0264133909986,None,1232.0264133909986,None,,,,,,,,,,,,,,,,,,,,,,,,,,,,,,,,,,,,,,,,,,,,001,17,2020_Jan_28_1453,spring_faces,3.1.5,60.068242329068426,
condition files/Stage2_1.xlsx,,T5,B5,s,"['s', 'r']","['Stratego', 'Risk']","[-0.15, 0.5]","[0.15, 0.5]",1,1,,,,,,,,,,,,,,,,,0,2,2,2,0,4,4,0,,,,,,,,,,,,,,,,,,,,,,,,,,,,,,,,,,,,,,,,,,,,,,,1233.9904072399986,None,1233.9904072399986,None,1233.9904072399986,None,s,1,2.045361864998995,1235.5237398209974,None,1235.5237398209974,None,1235.5237398209974,None,1237.6405053309973,None,1237.6405053309973,None,1237.6405053309973,None,1237.6405053309973,None,,,,,,,,,,,,,,,,,,,,,,,,,,,,,,,,,,,,,,,,,,,,001,17,2020_Jan_28_1453,spring_faces,3.1.5,60.068242329068426,
condition files/Stage2_1.xlsx,,B6,T6,r,"['s', 'r']","['Stratego', 'Risk']","[-0.15, 0.5]","[0.15, 0.5]",1,1,,,,,,,,,,,,,,,,,0,2,2,2,0,5,5,1,,,,,,,,,,,,,,,,,,,,,,,,,,,,,,,,,,,,,,,,,,,,,,,1239.589834481998,None,1239.589834481998,None,1239.589834481998,None,s,0,1.5165592359990114,1241.1405635539995,None,1241.1405635539995,None,1241.1405635539995,None,1242.7239110249975,None,1242.7239110249975,None,1242.7239110249975,None,1242.7239110249975,None,,,,,,,,,,,,,,,,,,,,,,,,,,,,,,,,,,,,,,,,,,,,001,17,2020_Jan_28_1453,spring_faces,3.1.5,60.068242329068426,
condition files/Stage2_2.xlsx,,B5,T5,s,"['s', 'r']","['Stratego', 'Risk']","[-0.15, 0.5]","[0.15, 0.5]",1,1,,,,,,,,,,,,,,,,,0,3,3,3,0,0,0,0,,,,,,,,,,,,,,,,,,,,,,,,,,,,,,,,,,,,,,,,,,,,,,,1244.6906055679974,None,1244.6906055679974,None,1244.6906055679974,None,s,1,1.0236417320011242,1246.2255627819977,None,1246.2255627819977,None,1246.2255627819977,None,1247.3240913559966,None,1247.3240913559966,None,1247.3240913559966,None,1247.3240913559966,None,,,,,,,,,,,,,,,,,,,,,,,,,,,,,,,,,,,,,,,,,,,,001,17,2020_Jan_28_1453,spring_faces,3.1.5,60.068242329068426,
condition files/Stage2_2.xlsx,,B3,T3,s,"['s', 'r']","['Stratego', 'Risk']","[-0.15, 0.5]","[0.15, 0.5]",1,1,,,,,,,,,,,,,,,,,0,3,3,3,0,1,1,4,,,,,,,,,,,,,,,,,,,,,,,,,,,,,,,,,,,,,,,,,,,,,,,1249.273484129997,None,1249.273484129997,None,1249.273484129997,None,s,1,1.081624878999719,1250.8075144179966,None,1250.8075144179966,None,1250.8075144179966,None,1251.940120834999,None,1251.940120834999,None,1251.940120834999,None,1251.940120834999,None,,,,,,,,,,,,,,,,,,,,,,,,,,,,,,,,,,,,,,,,,,,,001,17,2020_Jan_28_1453,spring_faces,3.1.5,60.068242329068426,
condition files/Stage2_2.xlsx,,T4,B4,r,"['s', 'r']","['Stratego', 'Risk']","[-0.15, 0.5]","[0.15, 0.5]",1,1,,,,,,,,,,,,,,,,,0,3,3,3,0,2,2,5,,,,,,,,,,,,,,,,,,,,,,,,,,,,,,,,,,,,,,,,,,,,,,,1253.9070196279972,None,1253.9070196279972,None,1253.9070196279972,None,r,1,1.7588606850003998,1255.442285232999,None,1255.442285232999,None,1255.442285232999,None,1257.2739344149995,None,1257.2739344149995,None,1257.2739344149995,None,1257.2739344149995,None,,,,,,,,,,,,,,,,,,,,,,,,,,,,,,,,,,,,,,,,,,,,001,17,2020_Jan_28_1453,spring_faces,3.1.5,60.068242329068426,
condition files/Stage2_2.xlsx,,T2,B2,r,"['s', 'r']","['Stratego', 'Risk']","[-0.15, 0.5]","[0.15, 0.5]",1,1,,,,,,,,,,,,,,,,,0,3,3,3,0,3,3,3,,,,,,,,,,,,,,,,,,,,,,,,,,,,,,,,,,,,,,,,,,,,,,,1259.2230990439966,None,1259.2230990439966,None,1259.2230990439966,None,r,1,1.6272982760019659,1260.773836483997,None,1260.773836483997,None,1260.773836483997,None,1262.4566894759992,None,1262.4566894759992,None,1262.4566894759992,None,1262.4566894759992,None,,,,,,,,,,,,,,,,,,,,,,,,,,,,,,,,,,,,,,,,,,,,001,17,2020_Jan_28_1453,spring_faces,3.1.5,60.068242329068426,
condition files/Stage2_2.xlsx,,B1,T1,s,"['s', 'r']","['Stratego', 'Risk']","[-0.15, 0.5]","[0.15, 0.5]",1,1,,,,,,,,,,,,,,,,,0,3,3,3,0,4,4,2,,,,,,,,,,,,,,,,,,,,,,,,,,,,,,,,,,,,,,,,,,,,,,,1264.423656253999,None,1264.423656253999,None,1264.423656253999,None,r,0,1.0675150780007243,1265.9575702119982,None,1265.9575702119982,None,1265.9575702119982,None,1267.0916519929997,None,1267.0916519929997,None,1267.0916519929997,None,1267.0916519929997,None,,,,,,,,,,,,,,,,,,,,,,,,,,,,,,,,,,,,,,,,,,,,001,17,2020_Jan_28_1453,spring_faces,3.1.5,60.068242329068426,
condition files/Stage2_2.xlsx,,T6,B6,r,"['s', 'r']","['Stratego', 'Risk']","[-0.15, 0.5]","[0.15, 0.5]",1,1,,,,,,,,,,,,,,,,,0,3,3,3,0,5,5,1,,,,,,,,,,,,,,,,,,,,,,,,,,,,,,,,,,,,,,,,,,,,,,,1269.0564498289968,None,1269.0564498289968,None,1269.0564498289968,None,s,0,1.6975003389998164,1270.5916364909972,None,1270.5916364909972,None,1270.5916364909972,None,1272.3573968429992,None,1272.3573968429992,None,1272.3573968429992,None,1272.3573968429992,None,,,,,,,,,,,,,,,,,,,,,,,,,,,,,,,,,,,,,,,,,,,,001,17,2020_Jan_28_1453,spring_faces,3.1.5,60.068242329068426,
condition files/Stage2_1.xlsx,,T3,B3,s,"['s', 'r']","['Stratego', 'Risk']","[-0.15, 0.5]","[0.15, 0.5]",1,1,,,,,,,,,,,,,,,,,0,4,4,4,0,0,0,4,,,,,,,,,,,,,,,,,,,,,,,,,,,,,,,,,,,,,,,,,,,,,,,1274.3237387279987,None,1274.3237387279987,None,1274.3237387279987,None,s,1,1.9829769630014198,1275.8581288539972,None,1275.8581288539972,None,1275.8581288539972,None,1277.9240798479987,None,1277.9240798479987,None,1277.9240798479987,None,1277.9240798479987,None,,,,,,,,,,,,,,,,,,,,,,,,,,,,,,,,,,,,,,,,,,,,001,17,2020_Jan_28_1453,spring_faces,3.1.5,60.068242329068426,
condition files/Stage2_1.xlsx,,B6,T6,r,"['s', 'r']","['Stratego', 'Risk']","[-0.15, 0.5]","[0.15, 0.5]",1,1,,,,,,,,,,,,,,,,,0,4,4,4,0,1,1,1,,,,,,,,,,,,,,,,,,,,,,,,,,,,,,,,,,,,,,,,,,,,,,,1279.8736402389986,None,1279.8736402389986,None,1279.8736402389986,None,r,1,1.2012488590007706,1281.4238443169997,None,1281.4238443169997,None,1281.4238443169997,None,1282.7073192139978,None,1282.7073192139978,None,1282.7073192139978,None,1282.7073192139978,None,,,,,,,,,,,,,,,,,,,,,,,,,,,,,,,,,,,,,,,,,,,,001,17,2020_Jan_28_1453,spring_faces,3.1.5,60.068242329068426,
condition files/Stage2_1.xlsx,,T1,B1,s,"['s', 'r']","['Stratego', 'Risk']","[-0.15, 0.5]","[0.15, 0.5]",1,1,,,,,,,,,,,,,,,,,0,4,4,4,0,2,2,2,,,,,,,,,,,,,,,,,,,,,,,,,,,,,,,,,,,,,,,,,,,,,,,1284.6571114649996,None,1284.6571114649996,None,1284.6571114649996,None,s,1,3.0905583599997044,1286.2066333889998,None,1286.2066333889998,None,1286.2066333889998,None,1289.3736173999969,None,1289.3736173999969,None,1289.3736173999969,None,1289.3736173999969,None,,,,,,,,,,,,,,,,,,,,,,,,,,,,,,,,,,,,,,,,,,,,001,17,2020_Jan_28_1453,spring_faces,3.1.5,60.068242329068426,
