condsFile,subStage,cue1,cue2,correct,responseKeys,responseNames,cue1Position,cue2Position,cue1Opacity,cue2Opacity,stageLoop0.thisRepN,stageLoop0.thisTrialN,stageLoop0.thisN,stageLoop0.thisIndex,blockLoop0.thisRepN,blockLoop0.thisTrialN,blockLoop0.thisN,blockLoop0.thisIndex,stage1Loop.thisRepN,stage1Loop.thisTrialN,stage1Loop.thisN,stage1Loop.thisIndex,blockLoop1.thisRepN,blockLoop1.thisTrialN,blockLoop1.thisN,blockLoop1.thisIndex,stage2Loop.thisRepN,stage2Loop.thisTrialN,stage2Loop.thisN,stage2Loop.thisIndex,blockLoop2.thisRepN,blockLoop2.thisTrialN,blockLoop2.thisN,blockLoop2.thisIndex,testLoop.thisRepN,testLoop.thisTrialN,testLoop.thisN,testLoop.thisIndex,blockLoopTest.thisRepN,blockLoopTest.thisTrialN,blockLoopTest.thisN,blockLoopTest.thisIndex,cuePics,id_instr_text.started,id_instr_text.stopped,space_to_continue_2.started,space_to_continue_2.stopped,end_instructions_resp_3.keys,end_instructions_resp_3.rt,end_instructions_resp_3.started,end_instructions_resp_3.stopped,id_input_instr.started,id_input_instr.stopped,id_input_rect.started,id_input_rect.stopped,id_input_resp.keys,id_input_resp.rt,id_input_resp.started,id_input_resp.stopped,sonaID,id_input_text.started,id_input_text.stopped,final_text.started,final_text.stopped,instructions.started,instructions.stopped,end_instructions_resp.keys,end_instructions_resp.rt,end_instructions_resp.started,end_instructions_resp.stopped,space_to_continue.started,space_to_continue.stopped,instructions_stage0.started,instructions_stage0.stopped,end_instructions_resp_stage0.keys,end_instructions_resp_stage0.rt,end_instructions_resp_stage0.started,end_instructions_resp_stage0.stopped,space_to_continue_stage0.started,space_to_continue_stage0.stopped,text.started,text.stopped,resp_text1.started,resp_text1.stopped,resp_text2.started,resp_text2.stopped,trial_resp.keys,trial_resp.corr,trial_resp.rt,trial_resp.started,trial_resp.stopped,cue1Image.started,cue1Image.stopped,cue2Image.started,cue2Image.stopped,cue1Image_fb.started,cue1Image_fb.stopped,cue2Image_fb.started,cue2Image_fb.stopped,fb_text_answer.started,fb_text_answer.stopped,feedback_image.started,feedback_image.stopped,instructions_stage1.started,instructions_stage1.stopped,end_instructions_resp_stage1.keys,end_instructions_resp_stage1.rt,end_instructions_resp_stage1.started,end_instructions_resp_stage1.stopped,space_to_continue_stage1.started,space_to_continue_stage1.stopped,instructions_2.started,instructions_2.stopped,end_instructions_resp_2.keys,end_instructions_resp_2.rt,end_instructions_resp_2.started,end_instructions_resp_2.stopped,press_space_to_continue_stage2.started,press_space_to_continue_stage2.stopped,instructions_testStage1.started,instructions_testStage1.stopped,end_instructions_resp_test1.keys,end_instructions_resp_test1.rt,end_instructions_resp_test1.started,end_instructions_resp_test1.stopped,press_space_to_continue_test1.started,press_space_to_continue_test1.stopped,cue1Image_testChoice.started,cue1Image_testChoice.stopped,cue2Image_testChoice.started,cue2Image_testChoice.stopped,test_resp.keys,test_resp.corr,test_resp.rt,test_resp.started,test_resp.stopped,cue1Image_testConf.started,cue1Image_testConf.stopped,cue2Image_testConf.started,cue2Image_testConf.stopped,conf_reminder.started,conf_reminder.stopped,conf_rating.response,conf_rating.rt,conf_rating.started,conf_rating.stopped,session,participant,date,expName,psychopyVersion,frameRate,
,,,,,,,,,,,,,,,,,,,,,,,,,,,,,,,,,,,,,,,,,,,"{'none': 'pictures/20M_AN_C.png', 'alpha': 'pictures/SHINEd_pear.png', 'beta': 'pictures/SHINEd_melon.png', 'theta': 'pictures/SHINEd_apple.png', 'phi': 'pictures/SHINEd_pepper.png', 'T1': 'pictures/20M_AN_C.png', 'T2': 'pictures/26M_AN_C.png', 'T3': 'pictures/37M_AN_C.png', 'T4': 'pictures/32M_AN_C.png', 'T5': 'pictures/25M_AN_C.png', 'T6': 'pictures/38M_AN_C.png', 'B1': 'pictures/22M_NE_C.png', 'B2': 'pictures/31M_NE_C.png', 'B3': 'pictures/36M_NE_C.png', 'B4': 'pictures/23M_NE_C.png', 'B5': 'pictures/33M_NE_C.png', 'B6': 'pictures/34M_NE_C.png'}",486.0804803150022,None,491.07981795700107,None,space,1.7123410849999345,491.07981795700107,None,,,,,,,,,,,,,,,,,,,,,,,,,,,,,,,,,,,,,,,,,,,,,,,,,,,,,,,,,,,,,,,,,,,,,,,,,,,,,,,,,,,,,,,,,,,,,,,,001,20,2020_Jan_28_1526,spring_faces,3.1.5,60.024041669160916,
,,,,,,,,,,,,,,,,,,,,,,,,,,,,,,,,,,,,,,,,,,,,,,,,,,,,493.213526440999,None,493.213526440999,None,"['0', '7', '3', '1', 'l', 'i', 'h', 'u', 'i']","[17.43457073999889, 18.12264059899826, 22.79458465800053, 22.938633474001108, 34.9386406099984, 35.09862587899988, 42.21856902400032, 42.346624933001294, 42.55464603699875]",493.213526440999,None,,,,,,,,,,,,,,,,,,,,,,,,,,,,,,,,,,,,,,,,,,,,,,,,,,,,,,,,,,,,,,,,,,,,,,,,,,,,,,,,,,,,,,,,001,20,2020_Jan_28_1526,spring_faces,3.1.5,60.024041669160916,
,,,,,,,,,,,,,,,,,,,,,,,,,,,,,,,,,,,,,,,,,,,,,,,,,,,,,,,,,,,,0731lihui,493.213526440999,None,493.213526440999,None,540.8471268220019,None,space,0.7213184169995657,545.846856999,None,,,,,,,,,,,,,,,,,,,,,,,,,,,,,,,,,,,,,,,,,,,,,,,,,,,,,,,,,,,,,,,,,,,,,,,,,,,,,001,20,2020_Jan_28_1526,spring_faces,3.1.5,60.024041669160916,
,,,,,,,,,,,,,,,,,,,,,,,,,,,,,,,,,,,,,,,,,,,,,,,,,,,,,,,,,,,,,,,,,,,,,,,545.846856999,None,546.6133550160012,None,space,1.131620701002248,551.5965464600013,None,,,,,,,,,,,,,,,,,,,,,,,,,,,,,,,,,,,,,,,,,,,,,,,,,,,,,,,,,,,,,,,,,,,,,001,20,2020_Jan_28_1526,spring_faces,3.1.5,60.024041669160916,
condition files/Stage0a.xlsx,0a,beta,none,g,"['h', 'g']","['Chess', 'Go']","[0, 0.5]","[0, 0]",1,0,0,0,0,0,0,0,0,1,,,,,,,,,,,,,,,,,,,,,,,,,,,,,,,,,,,,,,,,,,,,,,,,,,,,,,,,,,,,,551.5965464600013,None,552.7798619770001,None,552.7798619770001,None,552.7798619770001,None,h,0,4.425635562001844,554.4626085490017,None,554.4626085490017,None,554.4626085490017,None,558.9634572210016,None,558.9634572210016,None,558.9634572210016,None,558.9634572210016,None,,,,,,,,,,,,,,,,,,,,,,,,,,,,,,,,,,,,,,,,,,,,001,20,2020_Jan_28_1526,spring_faces,3.1.5,60.024041669160916,
condition files/Stage0a.xlsx,0a,alpha,none,h,"['h', 'g']","['Chess', 'Go']","[0, 0.5]","[0, 0]",1,0,0,0,0,0,0,1,1,0,,,,,,,,,,,,,,,,,,,,,,,,,,,,,,,,,,,,,,,,,,,,,,,,,,,,,,,,,,,,,,,560.9131990800015,None,560.9131990800015,None,560.9131990800015,None,g,0,1.2069134949997533,562.4492828889997,None,562.4492828889997,None,562.4492828889997,None,563.7137405760004,None,563.7137405760004,None,563.7137405760004,None,563.7137405760004,None,,,,,,,,,,,,,,,,,,,,,,,,,,,,,,,,,,,,,,,,,,,,001,20,2020_Jan_28_1526,spring_faces,3.1.5,60.024041669160916,
condition files/Stage0a.xlsx,0a,beta,none,g,"['h', 'g']","['Chess', 'Go']","[0, 0.5]","[0, 0]",1,0,0,1,1,1,0,0,0,1,,,,,,,,,,,,,,,,,,,,,,,,,,,,,,,,,,,,,,,,,,,,,,,,,,,,,,,,,,,,,,,565.6970574890001,None,565.6970574890001,None,565.6970574890001,None,h,0,0.8900842490002105,567.230140478001,None,567.230140478001,None,567.230140478001,None,568.180077732999,None,568.180077732999,None,568.180077732999,None,568.180077732999,None,,,,,,,,,,,,,,,,,,,,,,,,,,,,,,,,,,,,,,,,,,,,001,20,2020_Jan_28_1526,spring_faces,3.1.5,60.024041669160916,
condition files/Stage0a.xlsx,0a,alpha,none,h,"['h', 'g']","['Chess', 'Go']","[0, 0.5]","[0, 0]",1,0,0,1,1,1,0,1,1,0,,,,,,,,,,,,,,,,,,,,,,,,,,,,,,,,,,,,,,,,,,,,,,,,,,,,,,,,,,,,,,,570.1465135830003,None,570.1465135830003,None,570.1465135830003,None,g,0,0.6316309270005149,571.6805426270002,None,571.6805426270002,None,571.6805426270002,None,572.3636617320008,None,572.3636617320008,None,572.3636617320008,None,572.3636617320008,None,,,,,,,,,,,,,,,,,,,,,,,,,,,,,,,,,,,,,,,,,,,,001,20,2020_Jan_28_1526,spring_faces,3.1.5,60.024041669160916,
condition files/Stage0a.xlsx,0a,beta,none,g,"['h', 'g']","['Chess', 'Go']","[0, 0.5]","[0, 0]",1,0,0,2,2,2,0,0,0,1,,,,,,,,,,,,,,,,,,,,,,,,,,,,,,,,,,,,,,,,,,,,,,,,,,,,,,,,,,,,,,,574.346874351002,None,574.346874351002,None,574.346874351002,None,g,1,1.2482161500010989,575.8799532820012,None,575.8799532820012,None,575.8799532820012,None,577.1804300740005,None,577.1804300740005,None,577.1804300740005,None,577.1804300740005,None,,,,,,,,,,,,,,,,,,,,,,,,,,,,,,,,,,,,,,,,,,,,001,20,2020_Jan_28_1526,spring_faces,3.1.5,60.024041669160916,
condition files/Stage0a.xlsx,0a,alpha,none,h,"['h', 'g']","['Chess', 'Go']","[0, 0.5]","[0, 0]",1,0,0,2,2,2,0,1,1,0,,,,,,,,,,,,,,,,,,,,,,,,,,,,,,,,,,,,,,,,,,,,,,,,,,,,,,,,,,,,,,,579.1462815240011,None,579.1462815240011,None,579.1462815240011,None,h,1,0.6716405639999721,580.6805263739989,None,580.6805263739989,None,580.6805263739989,None,581.4137921500005,None,581.4137921500005,None,581.4137921500005,None,581.4137921500005,None,,,,,,,,,,,,,,,,,,,,,,,,,,,,,,,,,,,,,,,,,,,,001,20,2020_Jan_28_1526,spring_faces,3.1.5,60.024041669160916,
condition files/Stage0a.xlsx,0a,alpha,none,h,"['h', 'g']","['Chess', 'Go']","[0, 0.5]","[0, 0]",1,0,0,3,3,3,0,0,0,0,,,,,,,,,,,,,,,,,,,,,,,,,,,,,,,,,,,,,,,,,,,,,,,,,,,,,,,,,,,,,,,583.3967318489995,None,583.3967318489995,None,583.3967318489995,None,g,0,0.4547440550013562,584.9134408509999,None,584.9134408509999,None,584.9134408509999,None,585.4301804169991,None,585.4301804169991,None,585.4301804169991,None,585.4301804169991,None,,,,,,,,,,,,,,,,,,,,,,,,,,,,,,,,,,,,,,,,,,,,001,20,2020_Jan_28_1526,spring_faces,3.1.5,60.024041669160916,
condition files/Stage0a.xlsx,0a,beta,none,g,"['h', 'g']","['Chess', 'Go']","[0, 0.5]","[0, 0]",1,0,0,3,3,3,0,1,1,1,,,,,,,,,,,,,,,,,,,,,,,,,,,,,,,,,,,,,,,,,,,,,,,,,,,,,,,,,,,,,,,587.3966724339989,None,587.3966724339989,None,587.3966724339989,None,g,1,1.1581799250016047,588.9300481110004,None,588.9300481110004,None,588.9300481110004,None,590.1463059080015,None,590.1463059080015,None,590.1463059080015,None,590.1463059080015,None,,,,,,,,,,,,,,,,,,,,,,,,,,,,,,,,,,,,,,,,,,,,001,20,2020_Jan_28_1526,spring_faces,3.1.5,60.024041669160916,
condition files/Stage0a.xlsx,0a,beta,none,g,"['h', 'g']","['Chess', 'Go']","[0, 0.5]","[0, 0]",1,0,0,4,4,4,0,0,0,1,,,,,,,,,,,,,,,,,,,,,,,,,,,,,,,,,,,,,,,,,,,,,,,,,,,,,,,,,,,,,,,592.1299613810006,None,592.1299613810006,None,592.1299613810006,None,g,1,0.7934240140020847,593.662750902,None,593.662750902,None,593.662750902,None,594.5130294209994,None,594.5130294209994,None,594.5130294209994,None,594.5130294209994,None,,,,,,,,,,,,,,,,,,,,,,,,,,,,,,,,,,,,,,,,,,,,001,20,2020_Jan_28_1526,spring_faces,3.1.5,60.024041669160916,
condition files/Stage0a.xlsx,0a,alpha,none,h,"['h', 'g']","['Chess', 'Go']","[0, 0.5]","[0, 0]",1,0,0,4,4,4,0,1,1,0,,,,,,,,,,,,,,,,,,,,,,,,,,,,,,,,,,,,,,,,,,,,,,,,,,,,,,,,,,,,,,,596.4799483919996,None,596.4799483919996,None,596.4799483919996,None,h,1,0.5712105740021798,598.0129727540007,None,598.0129727540007,None,598.0129727540007,None,598.647027113002,None,598.647027113002,None,598.647027113002,None,598.647027113002,None,,,,,,,,,,,,,,,,,,,,,,,,,,,,,,,,,,,,,,,,,,,,001,20,2020_Jan_28_1526,spring_faces,3.1.5,60.024041669160916,
condition files/Stage0a.xlsx,0a,beta,none,g,"['h', 'g']","['Chess', 'Go']","[0, 0.5]","[0, 0]",1,0,0,5,5,5,0,0,0,1,,,,,,,,,,,,,,,,,,,,,,,,,,,,,,,,,,,,,,,,,,,,,,,,,,,,,,,,,,,,,,,600.6303405709987,None,600.6303405709987,None,600.6303405709987,None,g,1,0.5164901339994685,602.1636432939995,None,602.1636432939995,None,602.1636432939995,None,602.7297764510004,None,602.7297764510004,None,602.7297764510004,None,602.7297764510004,None,,,,,,,,,,,,,,,,,,,,,,,,,,,,,,,,,,,,,,,,,,,,001,20,2020_Jan_28_1526,spring_faces,3.1.5,60.024041669160916,
condition files/Stage0a.xlsx,0a,alpha,none,h,"['h', 'g']","['Chess', 'Go']","[0, 0.5]","[0, 0]",1,0,0,5,5,5,0,1,1,0,,,,,,,,,,,,,,,,,,,,,,,,,,,,,,,,,,,,,,,,,,,,,,,,,,,,,,,,,,,,,,,604.6964928870002,None,604.6964928870002,None,604.6964928870002,None,h,1,0.7222271169994201,606.2299585799992,None,606.2299585799992,None,606.2299585799992,None,607.0134419630012,None,607.0134419630012,None,607.0134419630012,None,607.0134419630012,None,,,,,,,,,,,,,,,,,,,,,,,,,,,,,,,,,,,,,,,,,,,,001,20,2020_Jan_28_1526,spring_faces,3.1.5,60.024041669160916,
condition files/Stage0b_1.xlsx,0b,none,beta,g,"['h', 'g']","['Chess', 'Go']","[-0.15, 0.5]","[0.15, 0.5]",0,1,0,6,6,6,0,0,0,1,,,,,,,,,,,,,,,,,,,,,,,,,,,,,,,,,,,,,,,,,,,,,,,,,,,,,,,,,,,,,,,608.996086258001,None,608.996086258001,None,608.996086258001,None,g,1,0.7259440009984246,610.5462862439999,None,610.5462862439999,None,610.5462862439999,None,611.3463592549997,None,611.3463592549997,None,611.3463592549997,None,611.3463592549997,None,,,,,,,,,,,,,,,,,,,,,,,,,,,,,,,,,,,,,,,,,,,,001,20,2020_Jan_28_1526,spring_faces,3.1.5,60.024041669160916,
condition files/Stage0b_1.xlsx,0b,alpha,none,h,"['h', 'g']","['Chess', 'Go']","[-0.15, 0.5]","[0.15, 0.5]",1,0,0,6,6,6,0,1,1,0,,,,,,,,,,,,,,,,,,,,,,,,,,,,,,,,,,,,,,,,,,,,,,,,,,,,,,,,,,,,,,,613.2964612620017,None,613.2964612620017,None,613.2964612620017,None,g,0,0.45792766500017024,614.8463061930015,None,614.8463061930015,None,614.8463061930015,None,615.3649039379998,None,615.3649039379998,None,615.3649039379998,None,615.3649039379998,None,,,,,,,,,,,,,,,,,,,,,,,,,,,,,,,,,,,,,,,,,,,,001,20,2020_Jan_28_1526,spring_faces,3.1.5,60.024041669160916,
condition files/Stage0b_2.xlsx,0b,none,alpha,h,"['h', 'g']","['Chess', 'Go']","[-0.15, 0.5]","[0.15, 0.5]",0,1,0,7,7,7,0,0,0,0,,,,,,,,,,,,,,,,,,,,,,,,,,,,,,,,,,,,,,,,,,,,,,,,,,,,,,,,,,,,,,,617.3463884929988,None,617.3463884929988,None,617.3463884929988,None,h,1,0.8989993220020551,618.8851675690021,None,618.8851675690021,None,618.8851675690021,None,619.8465693479993,None,619.8465693479993,None,619.8465693479993,None,619.8465693479993,None,,,,,,,,,,,,,,,,,,,,,,,,,,,,,,,,,,,,,,,,,,,,001,20,2020_Jan_28_1526,spring_faces,3.1.5,60.024041669160916,
condition files/Stage0b_2.xlsx,0b,beta,none,g,"['h', 'g']","['Chess', 'Go']","[-0.15, 0.5]","[0.15, 0.5]",1,0,0,7,7,7,0,1,1,1,,,,,,,,,,,,,,,,,,,,,,,,,,,,,,,,,,,,,,,,,,,,,,,,,,,,,,,,,,,,,,,621.8131439419994,None,621.8131439419994,None,621.8131439419994,None,g,1,0.5329852150025545,623.3471953039989,None,623.3471953039989,None,623.3471953039989,None,623.9315291970015,None,623.9315291970015,None,623.9315291970015,None,623.9315291970015,None,,,,,,,,,,,,,,,,,,,,,,,,,,,,,,,,,,,,,,,,,,,,001,20,2020_Jan_28_1526,spring_faces,3.1.5,60.024041669160916,
condition files/Stage0b_1.xlsx,0b,alpha,none,h,"['h', 'g']","['Chess', 'Go']","[-0.15, 0.5]","[0.15, 0.5]",1,0,0,8,8,8,0,0,0,0,,,,,,,,,,,,,,,,,,,,,,,,,,,,,,,,,,,,,,,,,,,,,,,,,,,,,,,,,,,,,,,625.9133998409998,None,625.9133998409998,None,625.9133998409998,None,h,1,0.8491526729994803,627.4470164679988,None,627.4470164679988,None,627.4470164679988,None,628.3469726780022,None,628.3469726780022,None,628.3469726780022,None,628.3469726780022,None,,,,,,,,,,,,,,,,,,,,,,,,,,,,,,,,,,,,,,,,,,,,001,20,2020_Jan_28_1526,spring_faces,3.1.5,60.024041669160916,
condition files/Stage0b_1.xlsx,0b,none,beta,g,"['h', 'g']","['Chess', 'Go']","[-0.15, 0.5]","[0.15, 0.5]",0,1,0,8,8,8,0,1,1,1,,,,,,,,,,,,,,,,,,,,,,,,,,,,,,,,,,,,,,,,,,,,,,,,,,,,,,,,,,,,,,,630.3132022399986,None,630.3132022399986,None,630.3132022399986,None,g,1,0.686868382999819,631.8493180639998,None,631.8493180639998,None,631.8493180639998,None,632.599060872999,None,632.599060872999,None,632.599060872999,None,632.599060872999,None,,,,,,,,,,,,,,,,,,,,,,,,,,,,,,,,,,,,,,,,,,,,001,20,2020_Jan_28_1526,spring_faces,3.1.5,60.024041669160916,
condition files/Stage0b_2.xlsx,0b,beta,none,g,"['h', 'g']","['Chess', 'Go']","[-0.15, 0.5]","[0.15, 0.5]",1,0,0,9,9,9,0,0,0,1,,,,,,,,,,,,,,,,,,,,,,,,,,,,,,,,,,,,,,,,,,,,,,,,,,,,,,,,,,,,,,,634.579373585002,None,634.579373585002,None,634.579373585002,None,g,1,0.9946971909994318,636.1174830490017,None,636.1174830490017,None,636.1174830490017,None,637.1631991200011,None,637.1631991200011,None,637.1631991200011,None,637.1631991200011,None,,,,,,,,,,,,,,,,,,,,,,,,,,,,,,,,,,,,,,,,,,,,001,20,2020_Jan_28_1526,spring_faces,3.1.5,60.024041669160916,
condition files/Stage0b_2.xlsx,0b,none,alpha,h,"['h', 'g']","['Chess', 'Go']","[-0.15, 0.5]","[0.15, 0.5]",0,1,0,9,9,9,0,1,1,0,,,,,,,,,,,,,,,,,,,,,,,,,,,,,,,,,,,,,,,,,,,,,,,,,,,,,,,,,,,,,,,639.1298323750016,None,639.1298323750016,None,639.1298323750016,None,h,1,0.7200748959985503,640.6800859540017,None,640.6800859540017,None,640.6800859540017,None,641.4634492040022,None,641.4634492040022,None,641.4634492040022,None,641.4634492040022,None,,,,,,,,,,,,,,,,,,,,,,,,,,,,,,,,,,,,,,,,,,,,001,20,2020_Jan_28_1526,spring_faces,3.1.5,60.024041669160916,
condition files/Stage0b_1.xlsx,0b,alpha,none,h,"['h', 'g']","['Chess', 'Go']","[-0.15, 0.5]","[0.15, 0.5]",1,0,0,10,10,10,0,0,0,0,,,,,,,,,,,,,,,,,,,,,,,,,,,,,,,,,,,,,,,,,,,,,,,,,,,,,,,,,,,,,,,643.446677513999,None,643.446677513999,None,643.446677513999,None,h,1,0.6898419589997502,644.9823964560019,None,644.9823964560019,None,644.9823964560019,None,645.729771049002,None,645.729771049002,None,645.729771049002,None,645.729771049002,None,,,,,,,,,,,,,,,,,,,,,,,,,,,,,,,,,,,,,,,,,,,,001,20,2020_Jan_28_1526,spring_faces,3.1.5,60.024041669160916,
condition files/Stage0b_1.xlsx,0b,none,beta,g,"['h', 'g']","['Chess', 'Go']","[-0.15, 0.5]","[0.15, 0.5]",0,1,0,10,10,10,0,1,1,1,,,,,,,,,,,,,,,,,,,,,,,,,,,,,,,,,,,,,,,,,,,,,,,,,,,,,,,,,,,,,,,647.6964402929989,None,647.6964402929989,None,647.6964402929989,None,g,1,0.7272745700029191,649.2329186240022,None,649.2329186240022,None,649.2329186240022,None,650.0137500519995,None,650.0137500519995,None,650.0137500519995,None,650.0137500519995,None,,,,,,,,,,,,,,,,,,,,,,,,,,,,,,,,,,,,,,,,,,,,001,20,2020_Jan_28_1526,spring_faces,3.1.5,60.024041669160916,
condition files/Stage0b_2.xlsx,0b,beta,none,g,"['h', 'g']","['Chess', 'Go']","[-0.15, 0.5]","[0.15, 0.5]",1,0,0,11,11,11,0,0,0,1,,,,,,,,,,,,,,,,,,,,,,,,,,,,,,,,,,,,,,,,,,,,,,,,,,,,,,,,,,,,,,,651.996750139002,None,651.996750139002,None,651.996750139002,None,g,1,0.5688735910007381,653.5353541900004,None,653.5353541900004,None,653.5353541900004,None,654.1643978620014,None,654.1643978620014,None,654.1643978620014,None,654.1643978620014,None,,,,,,,,,,,,,,,,,,,,,,,,,,,,,,,,,,,,,,,,,,,,001,20,2020_Jan_28_1526,spring_faces,3.1.5,60.024041669160916,
condition files/Stage0b_2.xlsx,0b,none,alpha,h,"['h', 'g']","['Chess', 'Go']","[-0.15, 0.5]","[0.15, 0.5]",0,1,0,11,11,11,0,1,1,0,,,,,,,,,,,,,,,,,,,,,,,,,,,,,,,,,,,,,,,,,,,,,,,,,,,,,,,,,,,,,,,656.1290842669987,None,656.1290842669987,None,656.1290842669987,None,h,1,0.6782483130009496,657.6659219479989,None,657.6659219479989,None,657.6659219479989,None,658.3972520999996,None,658.3972520999996,None,658.3972520999996,None,658.3972520999996,None,,,,,,,,,,,,,,,,,,,,,,,,,,,,,,,,,,,,,,,,,,,,001,20,2020_Jan_28_1526,spring_faces,3.1.5,60.024041669160916,
condition files/Stage0c_1.xlsx,0c,phi,beta,g,"['h', 'g']","['Chess', 'Go']","[-0.15, 0.5]","[0.15, 0.5]",1,1,0,12,12,12,0,0,0,3,,,,,,,,,,,,,,,,,,,,,,,,,,,,,,,,,,,,,,,,,,,,,,,,,,,,,,,,,,,,,,,660.3800657720021,None,660.3800657720021,None,660.3800657720021,None,h,0,1.4870843640019302,661.9131015189996,None,661.9131015189996,None,661.9131015189996,None,663.463037417001,None,663.463037417001,None,663.463037417001,None,663.463037417001,None,,,,,,,,,,,,,,,,,,,,,,,,,,,,,,,,,,,,,,,,,,,,001,20,2020_Jan_28_1526,spring_faces,3.1.5,60.024041669160916,
condition files/Stage0c_1.xlsx,0c,theta,alpha,h,"['h', 'g']","['Chess', 'Go']","[-0.15, 0.5]","[0.15, 0.5]",1,1,0,12,12,12,0,1,1,0,,,,,,,,,,,,,,,,,,,,,,,,,,,,,,,,,,,,,,,,,,,,,,,,,,,,,,,,,,,,,,,665.4296693169999,None,665.4296693169999,None,665.4296693169999,None,h,1,0.9328419400007988,666.9633196350005,None,666.9633196350005,None,666.9633196350005,None,667.9464749219987,None,667.9464749219987,None,667.9464749219987,None,667.9464749219987,None,,,,,,,,,,,,,,,,,,,,,,,,,,,,,,,,,,,,,,,,,,,,001,20,2020_Jan_28_1526,spring_faces,3.1.5,60.024041669160916,
condition files/Stage0c_1.xlsx,0c,beta,theta,g,"['h', 'g']","['Chess', 'Go']","[-0.15, 0.5]","[0.15, 0.5]",1,1,0,12,12,12,0,2,2,2,,,,,,,,,,,,,,,,,,,,,,,,,,,,,,,,,,,,,,,,,,,,,,,,,,,,,,,,,,,,,,,669.9131370889991,None,669.9131370889991,None,669.9131370889991,None,g,1,1.169189403000928,671.446968780001,None,671.446968780001,None,671.446968780001,None,672.6798076199993,None,672.6798076199993,None,672.6798076199993,None,672.6798076199993,None,,,,,,,,,,,,,,,,,,,,,,,,,,,,,,,,,,,,,,,,,,,,001,20,2020_Jan_28_1526,spring_faces,3.1.5,60.024041669160916,
condition files/Stage0c_1.xlsx,0c,alpha,phi,h,"['h', 'g']","['Chess', 'Go']","[-0.15, 0.5]","[0.15, 0.5]",1,1,0,12,12,12,0,3,3,1,,,,,,,,,,,,,,,,,,,,,,,,,,,,,,,,,,,,,,,,,,,,,,,,,,,,,,,,,,,,,,,674.6466328800016,None,674.6466328800016,None,674.6466328800016,None,h,1,0.9482019240022055,676.1799530370008,None,676.1799530370008,None,676.1799530370008,None,677.180310271,None,677.180310271,None,677.180310271,None,677.180310271,None,,,,,,,,,,,,,,,,,,,,,,,,,,,,,,,,,,,,,,,,,,,,001,20,2020_Jan_28_1526,spring_faces,3.1.5,60.024041669160916,
condition files/Stage0c_2.xlsx,0c,alpha,theta,h,"['h', 'g']","['Chess', 'Go']","[-0.15, 0.5]","[0.15, 0.5]",1,1,0,13,13,13,0,0,0,0,,,,,,,,,,,,,,,,,,,,,,,,,,,,,,,,,,,,,,,,,,,,,,,,,,,,,,,,,,,,,,,679.162830489,None,679.162830489,None,679.162830489,None,h,1,1.1513731300001382,680.696746960999,None,680.696746960999,None,680.696746960999,None,681.8983683959996,None,681.8983683959996,None,681.8983683959996,None,681.8983683959996,None,,,,,,,,,,,,,,,,,,,,,,,,,,,,,,,,,,,,,,,,,,,,001,20,2020_Jan_28_1526,spring_faces,3.1.5,60.024041669160916,
condition files/Stage0c_2.xlsx,0c,theta,beta,g,"['h', 'g']","['Chess', 'Go']","[-0.15, 0.5]","[0.15, 0.5]",1,1,0,13,13,13,0,1,1,2,,,,,,,,,,,,,,,,,,,,,,,,,,,,,,,,,,,,,,,,,,,,,,,,,,,,,,,,,,,,,,,683.8797753750005,None,683.8797753750005,None,683.8797753750005,None,g,1,1.2507408990022668,685.4133877940003,None,685.4133877940003,None,685.4133877940003,None,686.7301283790002,None,686.7301283790002,None,686.7301283790002,None,686.7301283790002,None,,,,,,,,,,,,,,,,,,,,,,,,,,,,,,,,,,,,,,,,,,,,001,20,2020_Jan_28_1526,spring_faces,3.1.5,60.024041669160916,
condition files/Stage0c_2.xlsx,0c,phi,alpha,h,"['h', 'g']","['Chess', 'Go']","[-0.15, 0.5]","[0.15, 0.5]",1,1,0,13,13,13,0,2,2,1,,,,,,,,,,,,,,,,,,,,,,,,,,,,,,,,,,,,,,,,,,,,,,,,,,,,,,,,,,,,,,,688.6966113000017,None,688.6966113000017,None,688.6966113000017,None,h,1,0.8026130060025025,690.2295519899999,None,690.2295519899999,None,690.2295519899999,None,691.096733213999,None,691.096733213999,None,691.096733213999,None,691.096733213999,None,,,,,,,,,,,,,,,,,,,,,,,,,,,,,,,,,,,,,,,,,,,,001,20,2020_Jan_28_1526,spring_faces,3.1.5,60.024041669160916,
condition files/Stage0c_2.xlsx,0c,beta,phi,g,"['h', 'g']","['Chess', 'Go']","[-0.15, 0.5]","[0.15, 0.5]",1,1,0,13,13,13,0,3,3,3,,,,,,,,,,,,,,,,,,,,,,,,,,,,,,,,,,,,,,,,,,,,,,,,,,,,,,,,,,,,,,,693.0633580579997,None,693.0633580579997,None,693.0633580579997,None,g,1,0.5635526250007388,694.5965475150006,None,694.5965475150006,None,694.5965475150006,None,695.2132880729987,None,695.2132880729987,None,695.2132880729987,None,695.2132880729987,None,,,,,,,,,,,,,,,,,,,,,,,,,,,,,,,,,,,,,,,,,,,,001,20,2020_Jan_28_1526,spring_faces,3.1.5,60.024041669160916,
condition files/Stage0c_1.xlsx,0c,theta,alpha,h,"['h', 'g']","['Chess', 'Go']","[-0.15, 0.5]","[0.15, 0.5]",1,1,0,14,14,14,0,0,0,0,,,,,,,,,,,,,,,,,,,,,,,,,,,,,,,,,,,,,,,,,,,,,,,,,,,,,,,,,,,,,,,697.19648572,None,697.19648572,None,697.19648572,None,h,1,0.8463198300014483,698.7298589380007,None,698.7298589380007,None,698.7298589380007,None,699.6303531920021,None,699.6303531920021,None,699.6303531920021,None,699.6303531920021,None,,,,,,,,,,,,,,,,,,,,,,,,,,,,,,,,,,,,,,,,,,,,001,20,2020_Jan_28_1526,spring_faces,3.1.5,60.024041669160916,
condition files/Stage0c_1.xlsx,0c,beta,theta,g,"['h', 'g']","['Chess', 'Go']","[-0.15, 0.5]","[0.15, 0.5]",1,1,0,14,14,14,0,1,1,2,,,,,,,,,,,,,,,,,,,,,,,,,,,,,,,,,,,,,,,,,,,,,,,,,,,,,,,,,,,,,,,701.5965048200014,None,701.5965048200014,None,701.5965048200014,None,g,1,0.6866260479982884,703.1295338970012,None,703.1295338970012,None,703.1295338970012,None,703.8803471760002,None,703.8803471760002,None,703.8803471760002,None,703.8803471760002,None,,,,,,,,,,,,,,,,,,,,,,,,,,,,,,,,,,,,,,,,,,,,001,20,2020_Jan_28_1526,spring_faces,3.1.5,60.024041669160916,
condition files/Stage0c_1.xlsx,0c,phi,beta,g,"['h', 'g']","['Chess', 'Go']","[-0.15, 0.5]","[0.15, 0.5]",1,1,0,14,14,14,0,2,2,3,,,,,,,,,,,,,,,,,,,,,,,,,,,,,,,,,,,,,,,,,,,,,,,,,,,,,,,,,,,,,,,705.846482322002,None,705.846482322002,None,705.846482322002,None,g,1,0.8685262119979598,707.3796383980007,None,707.3796383980007,None,707.3796383980007,None,708.2962600809988,None,708.2962600809988,None,708.2962600809988,None,708.2962600809988,None,,,,,,,,,,,,,,,,,,,,,,,,,,,,,,,,,,,,,,,,,,,,001,20,2020_Jan_28_1526,spring_faces,3.1.5,60.024041669160916,
condition files/Stage0c_1.xlsx,0c,alpha,phi,h,"['h', 'g']","['Chess', 'Go']","[-0.15, 0.5]","[0.15, 0.5]",1,1,0,14,14,14,0,3,3,1,,,,,,,,,,,,,,,,,,,,,,,,,,,,,,,,,,,,,,,,,,,,,,,,,,,,,,,,,,,,,,,710.2794096489997,None,710.2794096489997,None,710.2794096489997,None,g,0,0.6746657600015169,711.8135596380016,None,711.8135596380016,None,711.8135596380016,None,712.5468379490012,None,712.5468379490012,None,712.5468379490012,None,712.5468379490012,None,,,,,,,,,,,,,,,,,,,,,,,,,,,,,,,,,,,,,,,,,,,,001,20,2020_Jan_28_1526,spring_faces,3.1.5,60.024041669160916,
condition files/Stage0c_2.xlsx,0c,beta,phi,g,"['h', 'g']","['Chess', 'Go']","[-0.15, 0.5]","[0.15, 0.5]",1,1,0,15,15,15,0,0,0,3,,,,,,,,,,,,,,,,,,,,,,,,,,,,,,,,,,,,,,,,,,,,,,,,,,,,,,,,,,,,,,,714.5301823049995,None,714.5301823049995,None,714.5301823049995,None,g,1,0.7769540320005035,716.0632795380006,None,716.0632795380006,None,716.0632795380006,None,716.8967484310015,None,716.8967484310015,None,716.8967484310015,None,716.8967484310015,None,,,,,,,,,,,,,,,,,,,,,,,,,,,,,,,,,,,,,,,,,,,,001,20,2020_Jan_28_1526,spring_faces,3.1.5,60.024041669160916,
condition files/Stage0c_2.xlsx,0c,theta,beta,g,"['h', 'g']","['Chess', 'Go']","[-0.15, 0.5]","[0.15, 0.5]",1,1,0,15,15,15,0,1,1,2,,,,,,,,,,,,,,,,,,,,,,,,,,,,,,,,,,,,,,,,,,,,,,,,,,,,,,,,,,,,,,,718.8624058890018,None,718.8624058890018,None,718.8624058890018,None,g,1,0.8591583339984936,720.3970081789994,None,720.3970081789994,None,720.3970081789994,None,721.2976916799998,None,721.2976916799998,None,721.2976916799998,None,721.2976916799998,None,,,,,,,,,,,,,,,,,,,,,,,,,,,,,,,,,,,,,,,,,,,,001,20,2020_Jan_28_1526,spring_faces,3.1.5,60.024041669160916,
condition files/Stage0c_2.xlsx,0c,phi,alpha,h,"['h', 'g']","['Chess', 'Go']","[-0.15, 0.5]","[0.15, 0.5]",1,1,0,15,15,15,0,2,2,1,,,,,,,,,,,,,,,,,,,,,,,,,,,,,,,,,,,,,,,,,,,,,,,,,,,,,,,,,,,,,,,723.2793418719993,None,723.2793418719993,None,723.2793418719993,None,h,1,0.8275014680002641,724.812718322999,None,724.812718322999,None,724.812718322999,None,725.696694074999,None,725.696694074999,None,725.696694074999,None,725.696694074999,None,,,,,,,,,,,,,,,,,,,,,,,,,,,,,,,,,,,,,,,,,,,,001,20,2020_Jan_28_1526,spring_faces,3.1.5,60.024041669160916,
condition files/Stage0c_2.xlsx,0c,alpha,theta,h,"['h', 'g']","['Chess', 'Go']","[-0.15, 0.5]","[0.15, 0.5]",1,1,0,15,15,15,0,3,3,0,,,,,,,,,,,,,,,,,,,,,,,,,,,,,,,,,,,,,,,,,,,,,,,,,,,,,,,,,,,,,,,727.6632647170009,None,727.6632647170009,None,727.6632647170009,None,g,0,0.01183457300066948,729.196307901002,None,729.196307901002,None,729.196307901002,None,729.2476187350003,None,729.2476187350003,None,729.2476187350003,None,729.2476187350003,None,,,,,,,,,,,,,,,,,,,,,,,,,,,,,,,,,,,,,,,,,,,,001,20,2020_Jan_28_1526,spring_faces,3.1.5,60.024041669160916,
condition files/Stage0c_1.xlsx,0c,beta,theta,g,"['h', 'g']","['Chess', 'Go']","[-0.15, 0.5]","[0.15, 0.5]",1,1,0,16,16,16,0,0,0,2,,,,,,,,,,,,,,,,,,,,,,,,,,,,,,,,,,,,,,,,,,,,,,,,,,,,,,,,,,,,,,,731.2466825270021,None,731.2466825270021,None,731.2466825270021,None,g,1,0.7000201449991437,732.7801517920016,None,732.7801517920016,None,732.7801517920016,None,733.5301342269995,None,733.5301342269995,None,733.5301342269995,None,733.5301342269995,None,,,,,,,,,,,,,,,,,,,,,,,,,,,,,,,,,,,,,,,,,,,,001,20,2020_Jan_28_1526,spring_faces,3.1.5,60.024041669160916,
condition files/Stage0c_1.xlsx,0c,phi,beta,g,"['h', 'g']","['Chess', 'Go']","[-0.15, 0.5]","[0.15, 0.5]",1,1,0,16,16,16,0,1,1,3,,,,,,,,,,,,,,,,,,,,,,,,,,,,,,,,,,,,,,,,,,,,,,,,,,,,,,,,,,,,,,,735.4965826480002,None,735.4965826480002,None,735.4965826480002,None,g,1,0.738288343000022,737.0298886160017,None,737.0298886160017,None,737.0298886160017,None,737.8142101400008,None,737.8142101400008,None,737.8142101400008,None,737.8142101400008,None,,,,,,,,,,,,,,,,,,,,,,,,,,,,,,,,,,,,,,,,,,,,001,20,2020_Jan_28_1526,spring_faces,3.1.5,60.024041669160916,
condition files/Stage0c_1.xlsx,0c,theta,alpha,h,"['h', 'g']","['Chess', 'Go']","[-0.15, 0.5]","[0.15, 0.5]",1,1,0,16,16,16,0,2,2,0,,,,,,,,,,,,,,,,,,,,,,,,,,,,,,,,,,,,,,,,,,,,,,,,,,,,,,,,,,,,,,,739.7965530809997,None,739.7965530809997,None,739.7965530809997,None,h,1,0.726116654001089,741.3300462330008,None,741.3300462330008,None,741.3300462330008,None,742.1133830610015,None,742.1133830610015,None,742.1133830610015,None,742.1133830610015,None,,,,,,,,,,,,,,,,,,,,,,,,,,,,,,,,,,,,,,,,,,,,001,20,2020_Jan_28_1526,spring_faces,3.1.5,60.024041669160916,
condition files/Stage0c_1.xlsx,0c,alpha,phi,h,"['h', 'g']","['Chess', 'Go']","[-0.15, 0.5]","[0.15, 0.5]",1,1,0,16,16,16,0,3,3,1,,,,,,,,,,,,,,,,,,,,,,,,,,,,,,,,,,,,,,,,,,,,,,,,,,,,,,,,,,,,,,,744.0790936330013,None,744.0790936330013,None,744.0790936330013,None,h,1,0.9387213139998494,745.6134490369986,None,745.6134490369986,None,745.6134490369986,None,746.5965896099988,None,746.5965896099988,None,746.5965896099988,None,746.5965896099988,None,,,,,,,,,,,,,,,,,,,,,,,,,,,,,,,,,,,,,,,,,,,,001,20,2020_Jan_28_1526,spring_faces,3.1.5,60.024041669160916,
condition files/Stage0c_2.xlsx,0c,theta,beta,g,"['h', 'g']","['Chess', 'Go']","[-0.15, 0.5]","[0.15, 0.5]",1,1,0,17,17,17,0,0,0,2,,,,,,,,,,,,,,,,,,,,,,,,,,,,,,,,,,,,,,,,,,,,,,,,,,,,,,,,,,,,,,,748.5967163230016,None,748.5967163230016,None,748.5967163230016,None,g,1,0.839184522999858,750.112981090002,None,750.112981090002,None,750.112981090002,None,751.013593325999,None,751.013593325999,None,751.013593325999,None,751.013593325999,None,,,,,,,,,,,,,,,,,,,,,,,,,,,,,,,,,,,,,,,,,,,,001,20,2020_Jan_28_1526,spring_faces,3.1.5,60.024041669160916,
condition files/Stage0c_2.xlsx,0c,beta,phi,g,"['h', 'g']","['Chess', 'Go']","[-0.15, 0.5]","[0.15, 0.5]",1,1,0,17,17,17,0,1,1,3,,,,,,,,,,,,,,,,,,,,,,,,,,,,,,,,,,,,,,,,,,,,,,,,,,,,,,,,,,,,,,,752.9797956370021,None,752.9797956370021,None,752.9797956370021,None,g,1,0.8707050880002498,754.513461079001,None,754.513461079001,None,754.513461079001,None,755.4292896760016,None,755.4292896760016,None,755.4292896760016,None,755.4292896760016,None,,,,,,,,,,,,,,,,,,,,,,,,,,,,,,,,,,,,,,,,,,,,001,20,2020_Jan_28_1526,spring_faces,3.1.5,60.024041669160916,
condition files/Stage0c_2.xlsx,0c,phi,alpha,h,"['h', 'g']","['Chess', 'Go']","[-0.15, 0.5]","[0.15, 0.5]",1,1,0,17,17,17,0,2,2,1,,,,,,,,,,,,,,,,,,,,,,,,,,,,,,,,,,,,,,,,,,,,,,,,,,,,,,,,,,,,,,,757.4138491920021,None,757.4138491920021,None,757.4138491920021,None,h,1,0.5814218140003504,758.946741603002,None,758.946741603002,None,758.946741603002,None,759.5800659260021,None,759.5800659260021,None,759.5800659260021,None,759.5800659260021,None,,,,,,,,,,,,,,,,,,,,,,,,,,,,,,,,,,,,,,,,,,,,001,20,2020_Jan_28_1526,spring_faces,3.1.5,60.024041669160916,
condition files/Stage0c_2.xlsx,0c,alpha,theta,h,"['h', 'g']","['Chess', 'Go']","[-0.15, 0.5]","[0.15, 0.5]",1,1,0,17,17,17,0,3,3,0,,,,,,,,,,,,,,,,,,,,,,,,,,,,,,,,,,,,,,,,,,,,,,,,,,,,,,,,,,,,,,,761.546629233002,None,761.546629233002,None,761.546629233002,None,h,1,0.6398440129996743,763.0802517299999,None,763.0802517299999,None,763.0802517299999,None,763.7653972570006,None,763.7653972570006,None,763.7653972570006,None,763.7653972570006,None,,,,,,,,,,,,,,,,,,,,,,,,,,,,,,,,,,,,,,,,,,,,001,20,2020_Jan_28_1526,spring_faces,3.1.5,60.024041669160916,
,,,,,,,,,,,,,,,,,,,,,,,,,,,,,,,,,,,,,,,,,,,,,,,,,,,,,,,,,,,,,,,,,,,,,,,,,,,,,,,,,,,,,,,,,,,,,,,,,,,,,,,,765.7635082910019,None,space,1.8049157589994138,770.7632774939993,None,,,,,,,,,,,,,,,,,,,,,,,,,,,,,,,,,,,,,,001,20,2020_Jan_28_1526,spring_faces,3.1.5,60.024041669160916,
condition files/Stage1_1.xlsx,,B2,T1,m,"['c', 'm']","['Clue', 'Monopoly']","[-0.15, 0.5]","[0.15, 0.5]",1,1,,,,,,,,,0,0,0,0,0,0,0,2,,,,,,,,,,,,,,,,,,,,,,,,,,,,,,,,,,,,,,,,,,,,,,,,,,,,,,,772.6300353139995,None,772.6300353139995,None,772.6300353139995,None,c,0,0.804978635002044,774.1632125180004,None,774.1632125180004,None,774.1632125180004,None,775.046377136001,None,775.046377136001,None,775.046377136001,None,775.046377136001,None,,,,,,,770.7632774939993,None,,,,,,,,,,,,,,,,,,,,,,,,,,,,,,,,,,,,001,20,2020_Jan_28_1526,spring_faces,3.1.5,60.024041669160916,
condition files/Stage1_1.xlsx,,T2,B2,m,"['c', 'm']","['Clue', 'Monopoly']","[-0.15, 0.5]","[0.15, 0.5]",1,1,,,,,,,,,0,0,0,0,0,1,1,3,,,,,,,,,,,,,,,,,,,,,,,,,,,,,,,,,,,,,,,,,,,,,,,,,,,,,,,776.9960577780002,None,776.9960577780002,None,776.9960577780002,None,c,0,0.5176973219968204,778.5464246980009,None,778.5464246980009,None,778.5464246980009,None,779.1300596680012,None,779.1300596680012,None,779.1300596680012,None,779.1300596680012,None,,,,,,,,,,,,,,,,,,,,,,,,,,,,,,,,,,,,,,,,,,,,001,20,2020_Jan_28_1526,spring_faces,3.1.5,60.024041669160916,
condition files/Stage1_1.xlsx,,B1,T2,c,"['c', 'm']","['Clue', 'Monopoly']","[-0.15, 0.5]","[0.15, 0.5]",1,1,,,,,,,,,0,0,0,0,0,2,2,1,,,,,,,,,,,,,,,,,,,,,,,,,,,,,,,,,,,,,,,,,,,,,,,,,,,,,,,781.0965334809989,None,781.0965334809989,None,781.0965334809989,None,c,1,1.5516893870008062,782.6804608620005,None,782.6804608620005,None,782.6804608620005,None,784.2978083369999,None,784.2978083369999,None,784.2978083369999,None,784.2978083369999,None,,,,,,,,,,,,,,,,,,,,,,,,,,,,,,,,,,,,,,,,,,,,001,20,2020_Jan_28_1526,spring_faces,3.1.5,60.024041669160916,
condition files/Stage1_1.xlsx,,T3,B4,c,"['c', 'm']","['Clue', 'Monopoly']","[-0.15, 0.5]","[0.15, 0.5]",1,1,,,,,,,,,0,0,0,0,0,3,3,5,,,,,,,,,,,,,,,,,,,,,,,,,,,,,,,,,,,,,,,,,,,,,,,,,,,,,,,786.2631193839989,None,786.2631193839989,None,786.2631193839989,None,m,0,0.8031236569986504,787.7970609500007,None,787.7970609500007,None,787.7970609500007,None,788.6626768160022,None,788.6626768160022,None,788.6626768160022,None,788.6626768160022,None,,,,,,,,,,,,,,,,,,,,,,,,,,,,,,,,,,,,,,,,,,,,001,20,2020_Jan_28_1526,spring_faces,3.1.5,60.024041669160916,
condition files/Stage1_1.xlsx,,B3,T3,c,"['c', 'm']","['Clue', 'Monopoly']","[-0.15, 0.5]","[0.15, 0.5]",1,1,,,,,,,,,0,0,0,0,0,4,4,4,,,,,,,,,,,,,,,,,,,,,,,,,,,,,,,,,,,,,,,,,,,,,,,,,,,,,,,790.6299661490011,None,790.6299661490011,None,790.6299661490011,None,c,1,1.1227166419994319,792.2135252330008,None,792.2135252330008,None,792.2135252330008,None,793.3962731790016,None,793.3962731790016,None,793.3962731790016,None,793.3962731790016,None,,,,,,,,,,,,,,,,,,,,,,,,,,,,,,,,,,,,,,,,,,,,001,20,2020_Jan_28_1526,spring_faces,3.1.5,60.024041669160916,
condition files/Stage1_1.xlsx,,B4,T4,m,"['c', 'm']","['Clue', 'Monopoly']","[-0.15, 0.5]","[0.15, 0.5]",1,1,,,,,,,,,0,0,0,0,0,5,5,7,,,,,,,,,,,,,,,,,,,,,,,,,,,,,,,,,,,,,,,,,,,,,,,,,,,,,,,795.3630941830015,None,795.3630941830015,None,795.3630941830015,None,c,0,0.4694377269988763,796.8987572190017,None,796.8987572190017,None,796.8987572190017,None,797.4469747020012,None,797.4469747020012,None,797.4469747020012,None,797.4469747020012,None,,,,,,,,,,,,,,,,,,,,,,,,,,,,,,,,,,,,,,,,,,,,001,20,2020_Jan_28_1526,spring_faces,3.1.5,60.024041669160916,
condition files/Stage1_1.xlsx,,T4,B3,m,"['c', 'm']","['Clue', 'Monopoly']","[-0.15, 0.5]","[0.15, 0.5]",1,1,,,,,,,,,0,0,0,0,0,6,6,6,,,,,,,,,,,,,,,,,,,,,,,,,,,,,,,,,,,,,,,,,,,,,,,,,,,,,,,799.396500750001,None,799.396500750001,None,799.396500750001,None,c,0,0.3735376869990432,800.9466824299998,None,800.9466824299998,None,800.9466824299998,None,801.3801517659995,None,801.3801517659995,None,801.3801517659995,None,801.3801517659995,None,,,,,,,,,,,,,,,,,,,,,,,,,,,,,,,,,,,,,,,,,,,,001,20,2020_Jan_28_1526,spring_faces,3.1.5,60.024041669160916,
condition files/Stage1_1.xlsx,,T1,B1,c,"['c', 'm']","['Clue', 'Monopoly']","[-0.15, 0.5]","[0.15, 0.5]",1,1,,,,,,,,,0,0,0,0,0,7,7,0,,,,,,,,,,,,,,,,,,,,,,,,,,,,,,,,,,,,,,,,,,,,,,,,,,,,,,,803.3466548460019,None,803.3466548460019,None,803.3466548460019,None,m,0,0.15101225300168153,804.8811684190005,None,804.8811684190005,None,804.8811684190005,None,805.0962858130006,None,805.0962858130006,None,805.0962858130006,None,805.0962858130006,None,,,,,,,,,,,,,,,,,,,,,,,,,,,,,,,,,,,,,,,,,,,,001,20,2020_Jan_28_1526,spring_faces,3.1.5,60.024041669160916,
condition files/Stage1_2.xlsx,,T3,B3,c,"['c', 'm']","['Clue', 'Monopoly']","[-0.15, 0.5]","[0.15, 0.5]",1,1,,,,,,,,,0,1,1,1,0,0,0,4,,,,,,,,,,,,,,,,,,,,,,,,,,,,,,,,,,,,,,,,,,,,,,,,,,,,,,,807.0801543980015,None,807.0801543980015,None,807.0801543980015,None,m,0,1.1065717679994123,808.629671789,None,808.629671789,None,808.629671789,None,809.7983058380014,None,809.7983058380014,None,809.7983058380014,None,809.7983058380014,None,,,,,,,,,,,,,,,,,,,,,,,,,,,,,,,,,,,,,,,,,,,,001,20,2020_Jan_28_1526,spring_faces,3.1.5,60.024041669160916,
condition files/Stage1_2.xlsx,,T2,B1,c,"['c', 'm']","['Clue', 'Monopoly']","[-0.15, 0.5]","[0.15, 0.5]",1,1,,,,,,,,,0,1,1,1,0,1,1,1,,,,,,,,,,,,,,,,,,,,,,,,,,,,,,,,,,,,,,,,,,,,,,,,,,,,,,,811.7631458370015,None,811.7631458370015,None,811.7631458370015,None,m,0,0.42294006099837134,813.2973016329997,None,813.2973016329997,None,813.2973016329997,None,813.779882666,None,813.779882666,None,813.779882666,None,813.779882666,None,,,,,,,,,,,,,,,,,,,,,,,,,,,,,,,,,,,,,,,,,,,,001,20,2020_Jan_28_1526,spring_faces,3.1.5,60.024041669160916,
condition files/Stage1_2.xlsx,,B1,T1,c,"['c', 'm']","['Clue', 'Monopoly']","[-0.15, 0.5]","[0.15, 0.5]",1,1,,,,,,,,,0,1,1,1,0,2,2,0,,,,,,,,,,,,,,,,,,,,,,,,,,,,,,,,,,,,,,,,,,,,,,,,,,,,,,,815.7459802570011,None,815.7459802570011,None,815.7459802570011,None,c,1,0.023134203998779412,817.2811103599997,None,817.2811103599997,None,817.2811103599997,None,817.363588389002,None,817.363588389002,None,817.363588389002,None,817.363588389002,None,,,,,,,,,,,,,,,,,,,,,,,,,,,,,,,,,,,,,,,,,,,,001,20,2020_Jan_28_1526,spring_faces,3.1.5,60.024041669160916,
condition files/Stage1_2.xlsx,,T4,B4,m,"['c', 'm']","['Clue', 'Monopoly']","[-0.15, 0.5]","[0.15, 0.5]",1,1,,,,,,,,,0,1,1,1,0,3,3,7,,,,,,,,,,,,,,,,,,,,,,,,,,,,,,,,,,,,,,,,,,,,,,,,,,,,,,,819.3292382860018,None,819.3292382860018,None,819.3292382860018,None,c,0,0.7610902679989522,820.8630931119988,None,820.8630931119988,None,820.8630931119988,None,821.696693558999,None,821.696693558999,None,821.696693558999,None,821.696693558999,None,,,,,,,,,,,,,,,,,,,,,,,,,,,,,,,,,,,,,,,,,,,,001,20,2020_Jan_28_1526,spring_faces,3.1.5,60.024041669160916,
condition files/Stage1_2.xlsx,,B4,T3,c,"['c', 'm']","['Clue', 'Monopoly']","[-0.15, 0.5]","[0.15, 0.5]",1,1,,,,,,,,,0,1,1,1,0,4,4,5,,,,,,,,,,,,,,,,,,,,,,,,,,,,,,,,,,,,,,,,,,,,,,,,,,,,,,,823.645969797999,None,823.645969797999,None,823.645969797999,None,c,1,0.170560631002445,825.181638582002,None,825.181638582002,None,825.181638582002,None,825.412991833,None,825.412991833,None,825.412991833,None,825.412991833,None,,,,,,,,,,,,,,,,,,,,,,,,,,,,,,,,,,,,,,,,,,,,001,20,2020_Jan_28_1526,spring_faces,3.1.5,60.024041669160916,
condition files/Stage1_2.xlsx,,T1,B2,m,"['c', 'm']","['Clue', 'Monopoly']","[-0.15, 0.5]","[0.15, 0.5]",1,1,,,,,,,,,0,1,1,1,0,5,5,2,,,,,,,,,,,,,,,,,,,,,,,,,,,,,,,,,,,,,,,,,,,,,,,,,,,,,,,827.3793457600004,None,827.3793457600004,None,827.3793457600004,None,c,0,0.007731101999524981,None,None,None,None,None,None,828.9496322250016,None,828.9496322250016,None,828.9496322250016,None,828.9496322250016,None,,,,,,,,,,,,,,,,,,,,,,,,,,,,,,,,,,,,,,,,,,,,001,20,2020_Jan_28_1526,spring_faces,3.1.5,60.024041669160916,
condition files/Stage1_2.xlsx,,B2,T2,m,"['c', 'm']","['Clue', 'Monopoly']","[-0.15, 0.5]","[0.15, 0.5]",1,1,,,,,,,,,0,1,1,1,0,6,6,3,,,,,,,,,,,,,,,,,,,,,,,,,,,,,,,,,,,,,,,,,,,,,,,,,,,,,,,830.9129874380014,None,830.9129874380014,None,830.9129874380014,None,c,0,0.4415096820011968,832.4467337189999,None,832.4467337189999,None,832.4467337189999,None,832.9468273040002,None,832.9468273040002,None,832.9468273040002,None,832.9468273040002,None,,,,,,,,,,,,,,,,,,,,,,,,,,,,,,,,,,,,,,,,,,,,001,20,2020_Jan_28_1526,spring_faces,3.1.5,60.024041669160916,
condition files/Stage1_2.xlsx,,B3,T4,m,"['c', 'm']","['Clue', 'Monopoly']","[-0.15, 0.5]","[0.15, 0.5]",1,1,,,,,,,,,0,1,1,1,0,7,7,6,,,,,,,,,,,,,,,,,,,,,,,,,,,,,,,,,,,,,,,,,,,,,,,,,,,,,,,834.9131685569992,None,834.9131685569992,None,834.9131685569992,None,c,0,0.2318143090014928,836.4482971340003,None,836.4482971340003,None,836.4482971340003,None,836.746734725999,None,836.746734725999,None,836.746734725999,None,836.746734725999,None,,,,,,,,,,,,,,,,,,,,,,,,,,,,,,,,,,,,,,,,,,,,001,20,2020_Jan_28_1526,spring_faces,3.1.5,60.024041669160916,
condition files/Stage1_1.xlsx,,T4,B3,m,"['c', 'm']","['Clue', 'Monopoly']","[-0.15, 0.5]","[0.15, 0.5]",1,1,,,,,,,,,0,2,2,2,0,0,0,6,,,,,,,,,,,,,,,,,,,,,,,,,,,,,,,,,,,,,,,,,,,,,,,,,,,,,,,838.7303754659988,None,838.7303754659988,None,838.7303754659988,None,m,1,0.014557062000676524,840.2655981349999,None,840.2655981349999,None,840.2655981349999,None,840.3467663920019,None,840.3467663920019,None,840.3467663920019,None,840.3467663920019,None,,,,,,,,,,,,,,,,,,,,,,,,,,,,,,,,,,,,,,,,,,,,001,20,2020_Jan_28_1526,spring_faces,3.1.5,60.024041669160916,
condition files/Stage1_1.xlsx,,B1,T2,c,"['c', 'm']","['Clue', 'Monopoly']","[-0.15, 0.5]","[0.15, 0.5]",1,1,,,,,,,,,0,2,2,2,0,1,1,1,,,,,,,,,,,,,,,,,,,,,,,,,,,,,,,,,,,,,,,,,,,,,,,,,,,,,,,842.3130973959996,None,842.3130973959996,None,842.3130973959996,None,m,0,0.24088623599891434,843.8633459590019,None,843.8633459590019,None,843.8633459590019,None,844.1660505309992,None,844.1660505309992,None,844.1660505309992,None,844.1660505309992,None,,,,,,,,,,,,,,,,,,,,,,,,,,,,,,,,,,,,,,,,,,,,001,20,2020_Jan_28_1526,spring_faces,3.1.5,60.024041669160916,
condition files/Stage1_1.xlsx,,B4,T4,m,"['c', 'm']","['Clue', 'Monopoly']","[-0.15, 0.5]","[0.15, 0.5]",1,1,,,,,,,,,0,2,2,2,0,2,2,7,,,,,,,,,,,,,,,,,,,,,,,,,,,,,,,,,,,,,,,,,,,,,,,,,,,,,,,846.1292514080014,None,846.1292514080014,None,846.1292514080014,None,c,0,0.19996896899829153,847.6801629170004,None,847.6801629170004,None,847.6801629170004,None,847.9467485409987,None,847.9467485409987,None,847.9467485409987,None,847.9467485409987,None,,,,,,,,,,,,,,,,,,,,,,,,,,,,,,,,,,,,,,,,,,,,001,20,2020_Jan_28_1526,spring_faces,3.1.5,60.024041669160916,
condition files/Stage1_1.xlsx,,B2,T1,m,"['c', 'm']","['Clue', 'Monopoly']","[-0.15, 0.5]","[0.15, 0.5]",1,1,,,,,,,,,0,2,2,2,0,3,3,2,,,,,,,,,,,,,,,,,,,,,,,,,,,,,,,,,,,,,,,,,,,,,,,,,,,,,,,849.8959227220003,None,849.8959227220003,None,849.8959227220003,None,c,0,0.04932790300154011,851.4468252980005,None,851.4468252980005,None,851.4468252980005,None,851.5463575220019,None,851.5463575220019,None,851.5463575220019,None,851.5463575220019,None,,,,,,,,,,,,,,,,,,,,,,,,,,,,,,,,,,,,,,,,,,,,001,20,2020_Jan_28_1526,spring_faces,3.1.5,60.024041669160916,
condition files/Stage1_1.xlsx,,B3,T3,c,"['c', 'm']","['Clue', 'Monopoly']","[-0.15, 0.5]","[0.15, 0.5]",1,1,,,,,,,,,0,2,2,2,0,4,4,4,,,,,,,,,,,,,,,,,,,,,,,,,,,,,,,,,,,,,,,,,,,,,,,,,,,,,,,853.5131430229994,None,853.5131430229994,None,853.5131430229994,None,c,1,0.002416774001176236,None,None,None,None,None,None,855.0967944600015,None,855.0967944600015,None,855.0967944600015,None,855.0967944600015,None,,,,,,,,,,,,,,,,,,,,,,,,,,,,,,,,,,,,,,,,,,,,001,20,2020_Jan_28_1526,spring_faces,3.1.5,60.024041669160916,
condition files/Stage1_1.xlsx,,T3,B4,c,"['c', 'm']","['Clue', 'Monopoly']","[-0.15, 0.5]","[0.15, 0.5]",1,1,,,,,,,,,0,2,2,2,0,5,5,5,,,,,,,,,,,,,,,,,,,,,,,,,,,,,,,,,,,,,,,,,,,,,,,,,,,,,,,857.0464462070013,None,857.0464462070013,None,857.0464462070013,None,c,1,0.14737994099778007,858.5967860710007,None,858.5967860710007,None,858.5967860710007,None,858.7969205970003,None,858.7969205970003,None,858.7969205970003,None,858.7969205970003,None,,,,,,,,,,,,,,,,,,,,,,,,,,,,,,,,,,,,,,,,,,,,001,20,2020_Jan_28_1526,spring_faces,3.1.5,60.024041669160916,
condition files/Stage1_1.xlsx,,T1,B1,c,"['c', 'm']","['Clue', 'Monopoly']","[-0.15, 0.5]","[0.15, 0.5]",1,1,,,,,,,,,0,2,2,2,0,6,6,0,,,,,,,,,,,,,,,,,,,,,,,,,,,,,,,,,,,,,,,,,,,,,,,,,,,,,,,860.763241861001,None,860.763241861001,None,860.763241861001,None,m,0,0.17553865399895585,862.2967013890011,None,862.2967013890011,None,862.2967013890011,None,862.5299662159996,None,862.5299662159996,None,862.5299662159996,None,862.5299662159996,None,,,,,,,,,,,,,,,,,,,,,,,,,,,,,,,,,,,,,,,,,,,,001,20,2020_Jan_28_1526,spring_faces,3.1.5,60.024041669160916,
condition files/Stage1_1.xlsx,,T2,B2,m,"['c', 'm']","['Clue', 'Monopoly']","[-0.15, 0.5]","[0.15, 0.5]",1,1,,,,,,,,,0,2,2,2,0,7,7,3,,,,,,,,,,,,,,,,,,,,,,,,,,,,,,,,,,,,,,,,,,,,,,,,,,,,,,,864.4966127360021,None,864.4966127360021,None,864.4966127360021,None,c,0,-0.007366679998085601,866.0315226499988,None,866.0315226499988,None,866.0315226499988,None,866.0811970899995,None,866.0811970899995,None,866.0811970899995,None,866.0811970899995,None,,,,,,,,,,,,,,,,,,,,,,,,,,,,,,,,,,,,,,,,,,,,001,20,2020_Jan_28_1526,spring_faces,3.1.5,60.024041669160916,
condition files/Stage1_2.xlsx,,T4,B4,m,"['c', 'm']","['Clue', 'Monopoly']","[-0.15, 0.5]","[0.15, 0.5]",1,1,,,,,,,,,0,3,3,3,0,0,0,7,,,,,,,,,,,,,,,,,,,,,,,,,,,,,,,,,,,,,,,,,,,,,,,,,,,,,,,868.0634138919995,None,868.0634138919995,None,868.0634138919995,None,c,0,0.07466045999899507,869.6135760220022,None,869.6135760220022,None,869.6135760220022,None,869.7471779600019,None,869.7471779600019,None,869.7471779600019,None,869.7471779600019,None,,,,,,,,,,,,,,,,,,,,,,,,,,,,,,,,,,,,,,,,,,,,001,20,2020_Jan_28_1526,spring_faces,3.1.5,60.024041669160916,
condition files/Stage1_2.xlsx,,T2,B1,c,"['c', 'm']","['Clue', 'Monopoly']","[-0.15, 0.5]","[0.15, 0.5]",1,1,,,,,,,,,0,3,3,3,0,1,1,1,,,,,,,,,,,,,,,,,,,,,,,,,,,,,,,,,,,,,,,,,,,,,,,,,,,,,,,871.7131425609987,None,871.7131425609987,None,871.7131425609987,None,m,0,0.21708913000111352,873.2470572150014,None,873.2470572150014,None,873.2470572150014,None,873.5311760270015,None,873.5311760270015,None,873.5311760270015,None,873.5311760270015,None,,,,,,,,,,,,,,,,,,,,,,,,,,,,,,,,,,,,,,,,,,,,001,20,2020_Jan_28_1526,spring_faces,3.1.5,60.024041669160916,
condition files/Stage1_2.xlsx,,B3,T4,m,"['c', 'm']","['Clue', 'Monopoly']","[-0.15, 0.5]","[0.15, 0.5]",1,1,,,,,,,,,0,3,3,3,0,2,2,6,,,,,,,,,,,,,,,,,,,,,,,,,,,,,,,,,,,,,,,,,,,,,,,,,,,,,,,875.4961155290002,None,875.4961155290002,None,875.4961155290002,None,c,0,0.5611215159988205,877.0470111840004,None,877.0470111840004,None,877.0470111840004,None,877.6655654440001,None,877.6655654440001,None,877.6655654440001,None,877.6655654440001,None,,,,,,,,,,,,,,,,,,,,,,,,,,,,,,,,,,,,,,,,,,,,001,20,2020_Jan_28_1526,spring_faces,3.1.5,60.024041669160916,
condition files/Stage1_2.xlsx,,B1,T1,c,"['c', 'm']","['Clue', 'Monopoly']","[-0.15, 0.5]","[0.15, 0.5]",1,1,,,,,,,,,0,3,3,3,0,3,3,0,,,,,,,,,,,,,,,,,,,,,,,,,,,,,,,,,,,,,,,,,,,,,,,,,,,,,,,879.6291820080005,None,879.6291820080005,None,879.6291820080005,None,c,1,0.4592668900004355,881.1648745700004,None,881.1648745700004,None,881.1648745700004,None,881.6814575930002,None,881.6814575930002,None,881.6814575930002,None,881.6814575930002,None,,,,,,,,,,,,,,,,,,,,,,,,,,,,,,,,,,,,,,,,,,,,001,20,2020_Jan_28_1526,spring_faces,3.1.5,60.024041669160916,
condition files/Stage1_2.xlsx,,B4,T3,c,"['c', 'm']","['Clue', 'Monopoly']","[-0.15, 0.5]","[0.15, 0.5]",1,1,,,,,,,,,0,3,3,3,0,4,4,5,,,,,,,,,,,,,,,,,,,,,,,,,,,,,,,,,,,,,,,,,,,,,,,,,,,,,,,883.6461827909989,None,883.6461827909989,None,883.6461827909989,None,m,0,0.027616952000244055,885.196553116999,None,885.196553116999,None,885.196553116999,None,885.2801582360007,None,885.2801582360007,None,885.2801582360007,None,885.2801582360007,None,,,,,,,,,,,,,,,,,,,,,,,,,,,,,,,,,,,,,,,,,,,,001,20,2020_Jan_28_1526,spring_faces,3.1.5,60.024041669160916,
condition files/Stage1_2.xlsx,,T3,B3,c,"['c', 'm']","['Clue', 'Monopoly']","[-0.15, 0.5]","[0.15, 0.5]",1,1,,,,,,,,,0,3,3,3,0,5,5,4,,,,,,,,,,,,,,,,,,,,,,,,,,,,,,,,,,,,,,,,,,,,,,,,,,,,,,,887.245937650001,None,887.245937650001,None,887.245937650001,None,c,1,0.07532164299846045,888.7968771779997,None,888.7968771779997,None,888.7968771779997,None,888.9302035940018,None,888.9302035940018,None,888.9302035940018,None,888.9302035940018,None,,,,,,,,,,,,,,,,,,,,,,,,,,,,,,,,,,,,,,,,,,,,001,20,2020_Jan_28_1526,spring_faces,3.1.5,60.024041669160916,
condition files/Stage1_2.xlsx,,B2,T2,m,"['c', 'm']","['Clue', 'Monopoly']","[-0.15, 0.5]","[0.15, 0.5]",1,1,,,,,,,,,0,3,3,3,0,6,6,3,,,,,,,,,,,,,,,,,,,,,,,,,,,,,,,,,,,,,,,,,,,,,,,,,,,,,,,890.896129449,None,890.896129449,None,890.896129449,None,c,0,0.05778077400100301,892.446451066,None,892.446451066,None,892.446451066,None,892.5801589030016,None,892.5801589030016,None,892.5801589030016,None,892.5801589030016,None,,,,,,,,,,,,,,,,,,,,,,,,,,,,,,,,,,,,,,,,,,,,001,20,2020_Jan_28_1526,spring_faces,3.1.5,60.024041669160916,
condition files/Stage1_2.xlsx,,T1,B2,m,"['c', 'm']","['Clue', 'Monopoly']","[-0.15, 0.5]","[0.15, 0.5]",1,1,,,,,,,,,0,3,3,3,0,7,7,2,,,,,,,,,,,,,,,,,,,,,,,,,,,,,,,,,,,,,,,,,,,,,,,,,,,,,,,894.5302011589993,None,894.5302011589993,None,894.5302011589993,None,c,0,0.02302567999868188,896.0652161170001,None,896.0652161170001,None,896.0652161170001,None,896.1469963330019,None,896.1469963330019,None,896.1469963330019,None,896.1469963330019,None,,,,,,,,,,,,,,,,,,,,,,,,,,,,,,,,,,,,,,,,,,,,001,20,2020_Jan_28_1526,spring_faces,3.1.5,60.024041669160916,
condition files/Stage1_1.xlsx,,T2,B2,m,"['c', 'm']","['Clue', 'Monopoly']","[-0.15, 0.5]","[0.15, 0.5]",1,1,,,,,,,,,0,4,4,4,0,0,0,3,,,,,,,,,,,,,,,,,,,,,,,,,,,,,,,,,,,,,,,,,,,,,,,,,,,,,,,898.1297446290009,None,898.1297446290009,None,898.1297446290009,None,m,1,0.009152926999377087,None,None,None,None,None,None,899.6988218490005,None,899.6988218490005,None,899.6988218490005,None,899.6988218490005,None,,,,,,,,,,,,,,,,,,,,,,,,,,,,,,,,,,,,,,,,,,,,001,20,2020_Jan_28_1526,spring_faces,3.1.5,60.024041669160916,
condition files/Stage1_1.xlsx,,T3,B4,c,"['c', 'm']","['Clue', 'Monopoly']","[-0.15, 0.5]","[0.15, 0.5]",1,1,,,,,,,,,0,4,4,4,0,1,1,5,,,,,,,,,,,,,,,,,,,,,,,,,,,,,,,,,,,,,,,,,,,,,,,,,,,,,,,901.6632276500022,None,901.6632276500022,None,901.6632276500022,None,c,1,0.02693682999961311,903.2132872440015,None,903.2132872440015,None,903.2132872440015,None,903.2973234950005,None,903.2973234950005,None,903.2973234950005,None,903.2973234950005,None,,,,,,,,,,,,,,,,,,,,,,,,,,,,,,,,,,,,,,,,,,,,001,20,2020_Jan_28_1526,spring_faces,3.1.5,60.024041669160916,
condition files/Stage1_1.xlsx,,T4,B3,m,"['c', 'm']","['Clue', 'Monopoly']","[-0.15, 0.5]","[0.15, 0.5]",1,1,,,,,,,,,0,4,4,4,0,2,2,6,,,,,,,,,,,,,,,,,,,,,,,,,,,,,,,,,,,,,,,,,,,,,,,,,,,,,,,905.2632258929989,None,905.2632258929989,None,905.2632258929989,None,c,0,0.41164322500117123,906.7965130960001,None,906.7965130960001,None,906.7965130960001,None,907.2802276789989,None,907.2802276789989,None,907.2802276789989,None,907.2802276789989,None,,,,,,,,,,,,,,,,,,,,,,,,,,,,,,,,,,,,,,,,,,,,001,20,2020_Jan_28_1526,spring_faces,3.1.5,60.024041669160916,
condition files/Stage1_1.xlsx,,B1,T2,c,"['c', 'm']","['Clue', 'Monopoly']","[-0.15, 0.5]","[0.15, 0.5]",1,1,,,,,,,,,0,4,4,4,0,3,3,1,,,,,,,,,,,,,,,,,,,,,,,,,,,,,,,,,,,,,,,,,,,,,,,,,,,,,,,909.2298463280022,None,909.2298463280022,None,909.2298463280022,None,m,0,0.6999628920020768,910.7801340120022,None,910.7801340120022,None,910.7801340120022,None,911.5478340980007,None,911.5478340980007,None,911.5478340980007,None,911.5478340980007,None,,,,,,,,,,,,,,,,,,,,,,,,,,,,,,,,,,,,,,,,,,,,001,20,2020_Jan_28_1526,spring_faces,3.1.5,60.024041669160916,
condition files/Stage1_1.xlsx,,T1,B1,c,"['c', 'm']","['Clue', 'Monopoly']","[-0.15, 0.5]","[0.15, 0.5]",1,1,,,,,,,,,0,4,4,4,0,4,4,0,,,,,,,,,,,,,,,,,,,,,,,,,,,,,,,,,,,,,,,,,,,,,,,,,,,,,,,913.5131397149999,None,913.5131397149999,None,913.5131397149999,None,m,0,0.5453803540003719,915.0467600939992,None,915.0467600939992,None,915.0467600939992,None,915.6462753730011,None,915.6462753730011,None,915.6462753730011,None,915.6462753730011,None,,,,,,,,,,,,,,,,,,,,,,,,,,,,,,,,,,,,,,,,,,,,001,20,2020_Jan_28_1526,spring_faces,3.1.5,60.024041669160916,
condition files/Stage1_1.xlsx,,B2,T1,m,"['c', 'm']","['Clue', 'Monopoly']","[-0.15, 0.5]","[0.15, 0.5]",1,1,,,,,,,,,0,4,4,4,0,5,5,2,,,,,,,,,,,,,,,,,,,,,,,,,,,,,,,,,,,,,,,,,,,,,,,,,,,,,,,917.6301732720021,None,917.6301732720021,None,917.6301732720021,None,m,1,0.12545479799882742,919.1467848259999,None,919.1467848259999,None,919.1467848259999,None,919.3464715320006,None,919.3464715320006,None,919.3464715320006,None,919.3464715320006,None,,,,,,,,,,,,,,,,,,,,,,,,,,,,,,,,,,,,,,,,,,,,001,20,2020_Jan_28_1526,spring_faces,3.1.5,60.024041669160916,
condition files/Stage1_1.xlsx,,B3,T3,c,"['c', 'm']","['Clue', 'Monopoly']","[-0.15, 0.5]","[0.15, 0.5]",1,1,,,,,,,,,0,4,4,4,0,6,6,4,,,,,,,,,,,,,,,,,,,,,,,,,,,,,,,,,,,,,,,,,,,,,,,,,,,,,,,921.2958679709991,None,921.2958679709991,None,921.2958679709991,None,m,0,0.34531875899847364,922.8467718060019,None,922.8467718060019,None,922.8467718060019,None,923.26359409,None,923.26359409,None,923.26359409,None,923.26359409,None,,,,,,,,,,,,,,,,,,,,,,,,,,,,,,,,,,,,,,,,,,,,001,20,2020_Jan_28_1526,spring_faces,3.1.5,60.024041669160916,
condition files/Stage1_1.xlsx,,B4,T4,m,"['c', 'm']","['Clue', 'Monopoly']","[-0.15, 0.5]","[0.15, 0.5]",1,1,,,,,,,,,0,4,4,4,0,7,7,7,,,,,,,,,,,,,,,,,,,,,,,,,,,,,,,,,,,,,,,,,,,,,,,,,,,,,,,925.2128046399994,None,925.2128046399994,None,925.2128046399994,None,c,0,0.1406249290012056,926.7636147199992,None,926.7636147199992,None,926.7636147199992,None,926.9798495610012,None,926.9798495610012,None,926.9798495610012,None,926.9798495610012,None,,,,,,,,,,,,,,,,,,,,,,,,,,,,,,,,,,,,,,,,,,,,001,20,2020_Jan_28_1526,spring_faces,3.1.5,60.024041669160916,
condition files/Stage1_2.xlsx,,B3,T4,m,"['c', 'm']","['Clue', 'Monopoly']","[-0.15, 0.5]","[0.15, 0.5]",1,1,,,,,,,,,0,5,5,5,0,0,0,6,,,,,,,,,,,,,,,,,,,,,,,,,,,,,,,,,,,,,,,,,,,,,,,,,,,,,,,928.9458005999986,None,928.9458005999986,None,928.9458005999986,None,c,0,0.03787316500165616,930.4823799170008,None,930.4823799170008,None,930.4823799170008,None,930.5801573089993,None,930.5801573089993,None,930.5801573089993,None,930.5801573089993,None,,,,,,,,,,,,,,,,,,,,,,,,,,,,,,,,,,,,,,,,,,,,001,20,2020_Jan_28_1526,spring_faces,3.1.5,60.024041669160916,
condition files/Stage1_2.xlsx,,T4,B4,m,"['c', 'm']","['Clue', 'Monopoly']","[-0.15, 0.5]","[0.15, 0.5]",1,1,,,,,,,,,0,5,5,5,0,1,1,7,,,,,,,,,,,,,,,,,,,,,,,,,,,,,,,,,,,,,,,,,,,,,,,,,,,,,,,932.5465299819989,None,932.5465299819989,None,932.5465299819989,None,c,0,0.29413746499994886,934.0820511230013,None,934.0820511230013,None,934.0820511230013,None,934.4296670000003,None,934.4296670000003,None,934.4296670000003,None,934.4296670000003,None,,,,,,,,,,,,,,,,,,,,,,,,,,,,,,,,,,,,,,,,,,,,001,20,2020_Jan_28_1526,spring_faces,3.1.5,60.024041669160916,
condition files/Stage1_2.xlsx,,B4,T3,c,"['c', 'm']","['Clue', 'Monopoly']","[-0.15, 0.5]","[0.15, 0.5]",1,1,,,,,,,,,0,5,5,5,0,2,2,5,,,,,,,,,,,,,,,,,,,,,,,,,,,,,,,,,,,,,,,,,,,,,,,,,,,,,,,936.3960380520002,None,936.3960380520002,None,936.3960380520002,None,m,0,2.0439125949997106,937.932271468002,None,937.932271468002,None,937.932271468002,None,940.0315964539986,None,940.0315964539986,None,940.0315964539986,None,940.0315964539986,None,,,,,,,,,,,,,,,,,,,,,,,,,,,,,,,,,,,,,,,,,,,,001,20,2020_Jan_28_1526,spring_faces,3.1.5,60.024041669160916,
condition files/Stage1_2.xlsx,,B1,T1,c,"['c', 'm']","['Clue', 'Monopoly']","[-0.15, 0.5]","[0.15, 0.5]",1,1,,,,,,,,,0,5,5,5,0,3,3,0,,,,,,,,,,,,,,,,,,,,,,,,,,,,,,,,,,,,,,,,,,,,,,,,,,,,,,,941.9966395629999,None,941.9966395629999,None,941.9966395629999,None,c,1,-0.0026129800025955774,943.5467773630007,None,943.5467773630007,None,943.5467773630007,None,943.5969888549989,None,943.5969888549989,None,943.5969888549989,None,943.5969888549989,None,,,,,,,,,,,,,,,,,,,,,,,,,,,,,,,,,,,,,,,,,,,,001,20,2020_Jan_28_1526,spring_faces,3.1.5,60.024041669160916,
condition files/Stage1_2.xlsx,,T2,B1,c,"['c', 'm']","['Clue', 'Monopoly']","[-0.15, 0.5]","[0.15, 0.5]",1,1,,,,,,,,,0,5,5,5,0,4,4,1,,,,,,,,,,,,,,,,,,,,,,,,,,,,,,,,,,,,,,,,,,,,,,,,,,,,,,,945.5626487830014,None,945.5626487830014,None,945.5626487830014,None,c,1,0.1902612500016403,947.0979845729998,None,947.0979845729998,None,947.0979845729998,None,947.346716889002,None,947.346716889002,None,947.346716889002,None,947.346716889002,None,,,,,,,,,,,,,,,,,,,,,,,,,,,,,,,,,,,,,,,,,,,,001,20,2020_Jan_28_1526,spring_faces,3.1.5,60.024041669160916,
condition files/Stage1_2.xlsx,,T1,B2,m,"['c', 'm']","['Clue', 'Monopoly']","[-0.15, 0.5]","[0.15, 0.5]",1,1,,,,,,,,,0,5,5,5,0,5,5,2,,,,,,,,,,,,,,,,,,,,,,,,,,,,,,,,,,,,,,,,,,,,,,,,,,,,,,,949.3131359190011,None,949.3131359190011,None,949.3131359190011,None,m,1,0.23286811400248553,950.8632952480002,None,950.8632952480002,None,950.8632952480002,None,951.163315181002,None,951.163315181002,None,951.163315181002,None,951.163315181002,None,,,,,,,,,,,,,,,,,,,,,,,,,,,,,,,,,,,,,,,,,,,,001,20,2020_Jan_28_1526,spring_faces,3.1.5,60.024041669160916,
condition files/Stage1_2.xlsx,,B2,T2,m,"['c', 'm']","['Clue', 'Monopoly']","[-0.15, 0.5]","[0.15, 0.5]",1,1,,,,,,,,,0,5,5,5,0,6,6,3,,,,,,,,,,,,,,,,,,,,,,,,,,,,,,,,,,,,,,,,,,,,,,,,,,,,,,,953.1127170600012,None,953.1127170600012,None,953.1127170600012,None,c,0,0.03360253799837665,954.6465226050022,None,954.6465226050022,None,954.6465226050022,None,954.7301409889988,None,954.7301409889988,None,954.7301409889988,None,954.7301409889988,None,,,,,,,,,,,,,,,,,,,,,,,,,,,,,,,,,,,,,,,,,,,,001,20,2020_Jan_28_1526,spring_faces,3.1.5,60.024041669160916,
condition files/Stage1_2.xlsx,,T3,B3,c,"['c', 'm']","['Clue', 'Monopoly']","[-0.15, 0.5]","[0.15, 0.5]",1,1,,,,,,,,,0,5,5,5,0,7,7,4,,,,,,,,,,,,,,,,,,,,,,,,,,,,,,,,,,,,,,,,,,,,,,,,,,,,,,,956.6959317280016,None,956.6959317280016,None,956.6959317280016,None,m,0,1.1860560749992146,958.2461132850003,None,958.2461132850003,None,958.2461132850003,None,959.5132709030004,None,959.5132709030004,None,959.5132709030004,None,959.5132709030004,None,,,,,,,,,,,,,,,,,,,,,,,,,,,,,,,,,,,,,,,,,,,,001,20,2020_Jan_28_1526,spring_faces,3.1.5,60.024041669160916,
condition files/Stage1_1.xlsx,,T3,B4,c,"['c', 'm']","['Clue', 'Monopoly']","[-0.15, 0.5]","[0.15, 0.5]",1,1,,,,,,,,,0,6,6,6,0,0,0,5,,,,,,,,,,,,,,,,,,,,,,,,,,,,,,,,,,,,,,,,,,,,,,,,,,,,,,,961.4802618110007,None,961.4802618110007,None,961.4802618110007,None,c,1,0.09753333299886435,963.0146536210013,None,963.0146536210013,None,963.0146536210013,None,963.1629364639994,None,963.1629364639994,None,963.1629364639994,None,963.1629364639994,None,,,,,,,,,,,,,,,,,,,,,,,,,,,,,,,,,,,,,,,,,,,,001,20,2020_Jan_28_1526,spring_faces,3.1.5,60.024041669160916,
condition files/Stage1_1.xlsx,,B2,T1,m,"['c', 'm']","['Clue', 'Monopoly']","[-0.15, 0.5]","[0.15, 0.5]",1,1,,,,,,,,,0,6,6,6,0,1,1,2,,,,,,,,,,,,,,,,,,,,,,,,,,,,,,,,,,,,,,,,,,,,,,,,,,,,,,,965.1297935370021,None,965.1297935370021,None,965.1297935370021,None,m,1,0.2734110960009275,966.6628240380014,None,966.6628240380014,None,966.6628240380014,None,967.0133773289999,None,967.0133773289999,None,967.0133773289999,None,967.0133773289999,None,,,,,,,,,,,,,,,,,,,,,,,,,,,,,,,,,,,,,,,,,,,,001,20,2020_Jan_28_1526,spring_faces,3.1.5,60.024041669160916,
condition files/Stage1_1.xlsx,,T2,B2,m,"['c', 'm']","['Clue', 'Monopoly']","[-0.15, 0.5]","[0.15, 0.5]",1,1,,,,,,,,,0,6,6,6,0,2,2,3,,,,,,,,,,,,,,,,,,,,,,,,,,,,,,,,,,,,,,,,,,,,,,,,,,,,,,,968.9631603769994,None,968.9631603769994,None,968.9631603769994,None,c,0,0.6301679299976968,970.4980157659993,None,970.4980157659993,None,970.4980157659993,None,971.1798830020016,None,971.1798830020016,None,971.1798830020016,None,971.1798830020016,None,,,,,,,,,,,,,,,,,,,,,,,,,,,,,,,,,,,,,,,,,,,,001,20,2020_Jan_28_1526,spring_faces,3.1.5,60.024041669160916,
condition files/Stage1_1.xlsx,,B4,T4,m,"['c', 'm']","['Clue', 'Monopoly']","[-0.15, 0.5]","[0.15, 0.5]",1,1,,,,,,,,,0,6,6,6,0,3,3,7,,,,,,,,,,,,,,,,,,,,,,,,,,,,,,,,,,,,,,,,,,,,,,,,,,,,,,,973.1464405180013,None,973.1464405180013,None,973.1464405180013,None,m,1,0.3191833589989983,974.6810012800015,None,974.6810012800015,None,974.6810012800015,None,975.0631986150001,None,975.0631986150001,None,975.0631986150001,None,975.0631986150001,None,,,,,,,,,,,,,,,,,,,,,,,,,,,,,,,,,,,,,,,,,,,,001,20,2020_Jan_28_1526,spring_faces,3.1.5,60.024041669160916,
condition files/Stage1_1.xlsx,,T1,B1,c,"['c', 'm']","['Clue', 'Monopoly']","[-0.15, 0.5]","[0.15, 0.5]",1,1,,,,,,,,,0,6,6,6,0,4,4,0,,,,,,,,,,,,,,,,,,,,,,,,,,,,,,,,,,,,,,,,,,,,,,,,,,,,,,,977.0298692760007,None,977.0298692760007,None,977.0298692760007,None,m,0,0.25882458699925337,978.565315808999,None,978.565315808999,None,978.565315808999,None,978.8796484430022,None,978.8796484430022,None,978.8796484430022,None,978.8796484430022,None,,,,,,,,,,,,,,,,,,,,,,,,,,,,,,,,,,,,,,,,,,,,001,20,2020_Jan_28_1526,spring_faces,3.1.5,60.024041669160916,
condition files/Stage1_1.xlsx,,T4,B3,m,"['c', 'm']","['Clue', 'Monopoly']","[-0.15, 0.5]","[0.15, 0.5]",1,1,,,,,,,,,0,6,6,6,0,5,5,6,,,,,,,,,,,,,,,,,,,,,,,,,,,,,,,,,,,,,,,,,,,,,,,,,,,,,,,980.8459000879993,None,980.8459000879993,None,980.8459000879993,None,c,0,0.17142017199876136,982.3967532300012,None,982.3967532300012,None,982.3967532300012,None,982.6467801350009,None,982.6467801350009,None,982.6467801350009,None,982.6467801350009,None,,,,,,,,,,,,,,,,,,,,,,,,,,,,,,,,,,,,,,,,,,,,001,20,2020_Jan_28_1526,spring_faces,3.1.5,60.024041669160916,
condition files/Stage1_1.xlsx,,B3,T3,c,"['c', 'm']","['Clue', 'Monopoly']","[-0.15, 0.5]","[0.15, 0.5]",1,1,,,,,,,,,0,6,6,6,0,6,6,4,,,,,,,,,,,,,,,,,,,,,,,,,,,,,,,,,,,,,,,,,,,,,,,,,,,,,,,984.5960376980001,None,984.5960376980001,None,984.5960376980001,None,c,1,0.19801161299983505,986.130166840001,None,986.130166840001,None,986.130166840001,None,986.3805836930005,None,986.3805836930005,None,986.3805836930005,None,986.3805836930005,None,,,,,,,,,,,,,,,,,,,,,,,,,,,,,,,,,,,,,,,,,,,,001,20,2020_Jan_28_1526,spring_faces,3.1.5,60.024041669160916,
condition files/Stage1_1.xlsx,,B1,T2,c,"['c', 'm']","['Clue', 'Monopoly']","[-0.15, 0.5]","[0.15, 0.5]",1,1,,,,,,,,,0,6,6,6,0,7,7,1,,,,,,,,,,,,,,,,,,,,,,,,,,,,,,,,,,,,,,,,,,,,,,,,,,,,,,,988.3460813230013,None,988.3460813230013,None,988.3460813230013,None,c,1,0.07881753499896149,989.8813575269996,None,989.8813575269996,None,989.8813575269996,None,990.0135718130005,None,990.0135718130005,None,990.0135718130005,None,990.0135718130005,None,,,,,,,,,,,,,,,,,,,,,,,,,,,,,,,,,,,,,,,,,,,,001,20,2020_Jan_28_1526,spring_faces,3.1.5,60.024041669160916,
condition files/Stage1_2.xlsx,,B4,T3,c,"['c', 'm']","['Clue', 'Monopoly']","[-0.15, 0.5]","[0.15, 0.5]",1,1,,,,,,,,,0,7,7,7,0,0,0,5,,,,,,,,,,,,,,,,,,,,,,,,,,,,,,,,,,,,,,,,,,,,,,,,,,,,,,,991.9971507689988,None,991.9971507689988,None,991.9971507689988,None,c,1,0.38103312100065523,993.531152126001,None,993.531152126001,None,993.531152126001,None,993.9629508139988,None,993.9629508139988,None,993.9629508139988,None,993.9629508139988,None,,,,,,,,,,,,,,,,,,,,,,,,,,,,,,,,,,,,,,,,,,,,001,20,2020_Jan_28_1526,spring_faces,3.1.5,60.024041669160916,
condition files/Stage1_2.xlsx,,T1,B2,m,"['c', 'm']","['Clue', 'Monopoly']","[-0.15, 0.5]","[0.15, 0.5]",1,1,,,,,,,,,0,7,7,7,0,1,1,2,,,,,,,,,,,,,,,,,,,,,,,,,,,,,,,,,,,,,,,,,,,,,,,,,,,,,,,995.9298614280015,None,995.9298614280015,None,995.9298614280015,None,c,0,0.0645673840008385,997.479599524002,None,997.479599524002,None,997.479599524002,None,997.6133662520006,None,997.6133662520006,None,997.6133662520006,None,997.6133662520006,None,,,,,,,,,,,,,,,,,,,,,,,,,,,,,,,,,,,,,,,,,,,,001,20,2020_Jan_28_1526,spring_faces,3.1.5,60.024041669160916,
condition files/Stage1_2.xlsx,,B2,T2,m,"['c', 'm']","['Clue', 'Monopoly']","[-0.15, 0.5]","[0.15, 0.5]",1,1,,,,,,,,,0,7,7,7,0,2,2,3,,,,,,,,,,,,,,,,,,,,,,,,,,,,,,,,,,,,,,,,,,,,,,,,,,,,,,,999.5633480280012,None,999.5633480280012,None,999.5633480280012,None,m,1,0.35074316399914096,1001.1133703990017,None,1001.1133703990017,None,1001.1133703990017,None,1001.5296964320005,None,1001.5296964320005,None,1001.5296964320005,None,1001.5296964320005,None,,,,,,,,,,,,,,,,,,,,,,,,,,,,,,,,,,,,,,,,,,,,001,20,2020_Jan_28_1526,spring_faces,3.1.5,60.024041669160916,
condition files/Stage1_2.xlsx,,B3,T4,m,"['c', 'm']","['Clue', 'Monopoly']","[-0.15, 0.5]","[0.15, 0.5]",1,1,,,,,,,,,0,7,7,7,0,3,3,6,,,,,,,,,,,,,,,,,,,,,,,,,,,,,,,,,,,,,,,,,,,,,,,,,,,,,,,1003.5133293500003,None,1003.5133293500003,None,1003.5133293500003,None,m,1,0.00027138100267620757,1005.0318540379994,None,1005.0318540379994,None,1005.0318540379994,None,1005.09704452,None,1005.09704452,None,1005.09704452,None,1005.09704452,None,,,,,,,,,,,,,,,,,,,,,,,,,,,,,,,,,,,,,,,,,,,,001,20,2020_Jan_28_1526,spring_faces,3.1.5,60.024041669160916,
condition files/Stage1_2.xlsx,,T2,B1,c,"['c', 'm']","['Clue', 'Monopoly']","[-0.15, 0.5]","[0.15, 0.5]",1,1,,,,,,,,,0,7,7,7,0,4,4,1,,,,,,,,,,,,,,,,,,,,,,,,,,,,,,,,,,,,,,,,,,,,,,,,,,,,,,,1007.0625703250007,None,1007.0625703250007,None,1007.0625703250007,None,c,1,0.16304563599987887,1008.613124888001,None,1008.613124888001,None,1008.613124888001,None,1008.8463767940011,None,1008.8463767940011,None,1008.8463767940011,None,1008.8463767940011,None,,,,,,,,,,,,,,,,,,,,,,,,,,,,,,,,,,,,,,,,,,,,001,20,2020_Jan_28_1526,spring_faces,3.1.5,60.024041669160916,
condition files/Stage1_2.xlsx,,T4,B4,m,"['c', 'm']","['Clue', 'Monopoly']","[-0.15, 0.5]","[0.15, 0.5]",1,1,,,,,,,,,0,7,7,7,0,5,5,7,,,,,,,,,,,,,,,,,,,,,,,,,,,,,,,,,,,,,,,,,,,,,,,,,,,,,,,1010.7962466659992,None,1010.7962466659992,None,1010.7962466659992,None,m,1,0.04508324500056915,1012.3470456610012,None,1012.3470456610012,None,1012.3470456610012,None,1012.4635776960022,None,1012.4635776960022,None,1012.4635776960022,None,1012.4635776960022,None,,,,,,,,,,,,,,,,,,,,,,,,,,,,,,,,,,,,,,,,,,,,001,20,2020_Jan_28_1526,spring_faces,3.1.5,60.024041669160916,
condition files/Stage1_2.xlsx,,T3,B3,c,"['c', 'm']","['Clue', 'Monopoly']","[-0.15, 0.5]","[0.15, 0.5]",1,1,,,,,,,,,0,7,7,7,0,6,6,4,,,,,,,,,,,,,,,,,,,,,,,,,,,,,,,,,,,,,,,,,,,,,,,,,,,,,,,1014.4131368010021,None,1014.4131368010021,None,1014.4131368010021,None,m,0,0.01122253600260592,None,None,None,None,None,None,1015.9958613349991,None,1015.9958613349991,None,1015.9958613349991,None,1015.9958613349991,None,,,,,,,,,,,,,,,,,,,,,,,,,,,,,,,,,,,,,,,,,,,,001,20,2020_Jan_28_1526,spring_faces,3.1.5,60.024041669160916,
condition files/Stage1_2.xlsx,,B1,T1,c,"['c', 'm']","['Clue', 'Monopoly']","[-0.15, 0.5]","[0.15, 0.5]",1,1,,,,,,,,,0,7,7,7,0,7,7,0,,,,,,,,,,,,,,,,,,,,,,,,,,,,,,,,,,,,,,,,,,,,,,,,,,,,,,,1017.9460383299993,None,1017.9460383299993,None,1017.9460383299993,None,m,0,0.033086873998399824,None,None,None,None,None,None,1019.512610957001,None,1019.512610957001,None,1019.512610957001,None,1019.512610957001,None,,,,,,,,,,,,,,,,,,,,,,,,,,,,,,,,,,,,,,,,,,,,001,20,2020_Jan_28_1526,spring_faces,3.1.5,60.024041669160916,
condition files/Stage1_1.xlsx,,T3,B4,c,"['c', 'm']","['Clue', 'Monopoly']","[-0.15, 0.5]","[0.15, 0.5]",1,1,,,,,,,,,0,8,8,8,0,0,0,5,,,,,,,,,,,,,,,,,,,,,,,,,,,,,,,,,,,,,,,,,,,,,,,,,,,,,,,1021.4967528699999,None,1021.4967528699999,None,1021.4967528699999,None,m,0,0.00034465999851818196,1023.0317976309998,None,1023.0317976309998,None,1023.0317976309998,None,1023.0966269950004,None,1023.0966269950004,None,1023.0966269950004,None,1023.0966269950004,None,,,,,,,,,,,,,,,,,,,,,,,,,,,,,,,,,,,,,,,,,,,,001,20,2020_Jan_28_1526,spring_faces,3.1.5,60.024041669160916,
condition files/Stage1_1.xlsx,,B2,T1,m,"['c', 'm']","['Clue', 'Monopoly']","[-0.15, 0.5]","[0.15, 0.5]",1,1,,,,,,,,,0,8,8,8,0,1,1,2,,,,,,,,,,,,,,,,,,,,,,,,,,,,,,,,,,,,,,,,,,,,,,,,,,,,,,,1025.0631103240012,None,1025.0631103240012,None,1025.0631103240012,None,c,0,0.0015396130002045538,1026.598584776999,None,1026.598584776999,None,1026.598584776999,None,1026.680262056001,None,1026.680262056001,None,1026.680262056001,None,1026.680262056001,None,,,,,,,,,,,,,,,,,,,,,,,,,,,,,,,,,,,,,,,,,,,,001,20,2020_Jan_28_1526,spring_faces,3.1.5,60.024041669160916,
condition files/Stage1_1.xlsx,,T4,B3,m,"['c', 'm']","['Clue', 'Monopoly']","[-0.15, 0.5]","[0.15, 0.5]",1,1,,,,,,,,,0,8,8,8,0,2,2,6,,,,,,,,,,,,,,,,,,,,,,,,,,,,,,,,,,,,,,,,,,,,,,,,,,,,,,,1028.630167659001,None,1028.630167659001,None,1028.630167659001,None,c,0,-0.011758181000914192,1030.1799900430015,None,1030.1799900430015,None,1030.1799900430015,None,1030.2311138469995,None,1030.2311138469995,None,1030.2311138469995,None,1030.2311138469995,None,,,,,,,,,,,,,,,,,,,,,,,,,,,,,,,,,,,,,,,,,,,,001,20,2020_Jan_28_1526,spring_faces,3.1.5,60.024041669160916,
condition files/Stage1_1.xlsx,,T2,B2,m,"['c', 'm']","['Clue', 'Monopoly']","[-0.15, 0.5]","[0.15, 0.5]",1,1,,,,,,,,,0,8,8,8,0,3,3,3,,,,,,,,,,,,,,,,,,,,,,,,,,,,,,,,,,,,,,,,,,,,,,,,,,,,,,,1032.196130987002,None,1032.196130987002,None,1032.196130987002,None,m,1,0.021045183999376604,1033.7311771060013,None,1033.7311771060013,None,1033.7311771060013,None,1033.8128726670002,None,1033.8128726670002,None,1033.8128726670002,None,1033.8128726670002,None,,,,,,,,,,,,,,,,,,,,,,,,,,,,,,,,,,,,,,,,,,,,001,20,2020_Jan_28_1526,spring_faces,3.1.5,60.024041669160916,
condition files/Stage1_1.xlsx,,B1,T2,c,"['c', 'm']","['Clue', 'Monopoly']","[-0.15, 0.5]","[0.15, 0.5]",1,1,,,,,,,,,0,8,8,8,0,4,4,1,,,,,,,,,,,,,,,,,,,,,,,,,,,,,,,,,,,,,,,,,,,,,,,,,,,,,,,1035.7798369519987,None,1035.7798369519987,None,1035.7798369519987,None,c,1,0.16559746599887148,1037.3145202060005,None,1037.3145202060005,None,1037.3145202060005,None,1037.5470151549998,None,1037.5470151549998,None,1037.5470151549998,None,1037.5470151549998,None,,,,,,,,,,,,,,,,,,,,,,,,,,,,,,,,,,,,,,,,,,,,001,20,2020_Jan_28_1526,spring_faces,3.1.5,60.024041669160916,
condition files/Stage1_1.xlsx,,B3,T3,c,"['c', 'm']","['Clue', 'Monopoly']","[-0.15, 0.5]","[0.15, 0.5]",1,1,,,,,,,,,0,8,8,8,0,5,5,4,,,,,,,,,,,,,,,,,,,,,,,,,,,,,,,,,,,,,,,,,,,,,,,,,,,,,,,1039.496643622002,None,1039.496643622002,None,1039.496643622002,None,c,1,0.1936257920024218,1041.0466120660021,None,1041.0466120660021,None,1041.0466120660021,None,1041.2962583770022,None,1041.2962583770022,None,1041.2962583770022,None,1041.2962583770022,None,,,,,,,,,,,,,,,,,,,,,,,,,,,,,,,,,,,,,,,,,,,,001,20,2020_Jan_28_1526,spring_faces,3.1.5,60.024041669160916,
condition files/Stage1_1.xlsx,,B4,T4,m,"['c', 'm']","['Clue', 'Monopoly']","[-0.15, 0.5]","[0.15, 0.5]",1,1,,,,,,,,,0,8,8,8,0,6,6,7,,,,,,,,,,,,,,,,,,,,,,,,,,,,,,,,,,,,,,,,,,,,,,,,,,,,,,,1043.2633038720014,None,1043.2633038720014,None,1043.2633038720014,None,c,0,0.09024507899812306,1044.8299961760022,None,1044.8299961760022,None,1044.8299961760022,None,1044.9964375689997,None,1044.9964375689997,None,1044.9964375689997,None,1044.9964375689997,None,,,,,,,,,,,,,,,,,,,,,,,,,,,,,,,,,,,,,,,,,,,,001,20,2020_Jan_28_1526,spring_faces,3.1.5,60.024041669160916,
condition files/Stage1_1.xlsx,,T1,B1,c,"['c', 'm']","['Clue', 'Monopoly']","[-0.15, 0.5]","[0.15, 0.5]",1,1,,,,,,,,,0,8,8,8,0,7,7,0,,,,,,,,,,,,,,,,,,,,,,,,,,,,,,,,,,,,,,,,,,,,,,,,,,,,,,,1046.946470310002,None,1046.946470310002,None,1046.946470310002,None,m,0,0.07170302699887543,1048.4804911409992,None,1048.4804911409992,None,1048.4804911409992,None,1048.6293416510016,None,1048.6293416510016,None,1048.6293416510016,None,1048.6293416510016,None,,,,,,,,,,,,,,,,,,,,,,,,,,,,,,,,,,,,,,,,,,,,001,20,2020_Jan_28_1526,spring_faces,3.1.5,60.024041669160916,
condition files/Stage1_2.xlsx,,T2,B1,c,"['c', 'm']","['Clue', 'Monopoly']","[-0.15, 0.5]","[0.15, 0.5]",1,1,,,,,,,,,0,9,9,9,0,0,0,1,,,,,,,,,,,,,,,,,,,,,,,,,,,,,,,,,,,,,,,,,,,,,,,,,,,,,,,1050.596103292999,None,1050.596103292999,None,1050.596103292999,None,m,0,-0.026751428998977644,1052.1468559349996,None,1052.1468559349996,None,1052.1468559349996,None,1052.1977442450006,None,1052.1977442450006,None,1052.1977442450006,None,1052.1977442450006,None,,,,,,,,,,,,,,,,,,,,,,,,,,,,,,,,,,,,,,,,,,,,001,20,2020_Jan_28_1526,spring_faces,3.1.5,60.024041669160916,
condition files/Stage1_2.xlsx,,B4,T3,c,"['c', 'm']","['Clue', 'Monopoly']","[-0.15, 0.5]","[0.15, 0.5]",1,1,,,,,,,,,0,9,9,9,0,1,1,5,,,,,,,,,,,,,,,,,,,,,,,,,,,,,,,,,,,,,,,,,,,,,,,,,,,,,,,1054.163156581002,None,1054.163156581002,None,1054.163156581002,None,c,1,-0.009471813998970902,1055.7136852619988,None,1055.7136852619988,None,1055.7136852619988,None,1055.7629476270013,None,1055.7629476270013,None,1055.7629476270013,None,1055.7629476270013,None,,,,,,,,,,,,,,,,,,,,,,,,,,,,,,,,,,,,,,,,,,,,001,20,2020_Jan_28_1526,spring_faces,3.1.5,60.024041669160916,
condition files/Stage1_2.xlsx,,B3,T4,m,"['c', 'm']","['Clue', 'Monopoly']","[-0.15, 0.5]","[0.15, 0.5]",1,1,,,,,,,,,0,9,9,9,0,2,2,6,,,,,,,,,,,,,,,,,,,,,,,,,,,,,,,,,,,,,,,,,,,,,,,,,,,,,,,1057.7293071870008,None,1057.7293071870008,None,1057.7293071870008,None,c,0,0.05650210599924321,1059.2797215110004,None,1059.2797215110004,None,1059.2797215110004,None,1059.4126643759992,None,1059.4126643759992,None,1059.4126643759992,None,1059.4126643759992,None,,,,,,,,,,,,,,,,,,,,,,,,,,,,,,,,,,,,,,,,,,,,001,20,2020_Jan_28_1526,spring_faces,3.1.5,60.024041669160916,
condition files/Stage1_2.xlsx,,T4,B4,m,"['c', 'm']","['Clue', 'Monopoly']","[-0.15, 0.5]","[0.15, 0.5]",1,1,,,,,,,,,0,9,9,9,0,3,3,7,,,,,,,,,,,,,,,,,,,,,,,,,,,,,,,,,,,,,,,,,,,,,,,,,,,,,,,1061.363193827001,None,1061.363193827001,None,1061.363193827001,None,m,1,0.008340817999851424,None,None,None,None,None,None,1062.9468039640014,None,1062.9468039640014,None,1062.9468039640014,None,1062.9468039640014,None,,,,,,,,,,,,,,,,,,,,,,,,,,,,,,,,,,,,,,,,,,,,001,20,2020_Jan_28_1526,spring_faces,3.1.5,60.024041669160916,
condition files/Stage1_2.xlsx,,B1,T1,c,"['c', 'm']","['Clue', 'Monopoly']","[-0.15, 0.5]","[0.15, 0.5]",1,1,,,,,,,,,0,9,9,9,0,4,4,0,,,,,,,,,,,,,,,,,,,,,,,,,,,,,,,,,,,,,,,,,,,,,,,,,,,,,,,1064.895637853002,None,1064.895637853002,None,1064.895637853002,None,c,1,0.02599226600068505,None,None,None,None,None,None,1066.4792276709995,None,1066.4792276709995,None,1066.4792276709995,None,1066.4792276709995,None,,,,,,,,,,,,,,,,,,,,,,,,,,,,,,,,,,,,,,,,,,,,001,20,2020_Jan_28_1526,spring_faces,3.1.5,60.024041669160916,
condition files/Stage1_2.xlsx,,T1,B2,m,"['c', 'm']","['Clue', 'Monopoly']","[-0.15, 0.5]","[0.15, 0.5]",1,1,,,,,,,,,0,9,9,9,0,5,5,2,,,,,,,,,,,,,,,,,,,,,,,,,,,,,,,,,,,,,,,,,,,,,,,,,,,,,,,1068.4295868230001,None,1068.4295868230001,None,1068.4295868230001,None,c,0,0.15673900299952948,1069.963510993999,None,1069.963510993999,None,1069.963510993999,None,1070.1965140850007,None,1070.1965140850007,None,1070.1965140850007,None,1070.1965140850007,None,,,,,,,,,,,,,,,,,,,,,,,,,,,,,,,,,,,,,,,,,,,,001,20,2020_Jan_28_1526,spring_faces,3.1.5,60.024041669160916,
condition files/Stage1_2.xlsx,,B2,T2,m,"['c', 'm']","['Clue', 'Monopoly']","[-0.15, 0.5]","[0.15, 0.5]",1,1,,,,,,,,,0,9,9,9,0,6,6,3,,,,,,,,,,,,,,,,,,,,,,,,,,,,,,,,,,,,,,,,,,,,,,,,,,,,,,,1072.1458773390004,None,1072.1458773390004,None,1072.1458773390004,None,c,0,-0.009090854000533,1073.6812172050013,None,1073.6812172050013,None,1073.6812172050013,None,1073.7300978950007,None,1073.7300978950007,None,1073.7300978950007,None,1073.7300978950007,None,,,,,,,,,,,,,,,,,,,,,,,,,,,,,,,,,,,,,,,,,,,,001,20,2020_Jan_28_1526,spring_faces,3.1.5,60.024041669160916,
condition files/Stage1_2.xlsx,,T3,B3,c,"['c', 'm']","['Clue', 'Monopoly']","[-0.15, 0.5]","[0.15, 0.5]",1,1,,,,,,,,,0,9,9,9,0,7,7,4,,,,,,,,,,,,,,,,,,,,,,,,,,,,,,,,,,,,,,,,,,,,,,,,,,,,,,,1075.6966568419994,None,1075.6966568419994,None,1075.6966568419994,None,c,1,0.010825668003235478,None,None,None,None,None,None,1077.280078988002,None,1077.280078988002,None,1077.280078988002,None,1077.280078988002,None,,,,,,,,,,,,,,,,,,,,,,,,,,,,,,,,,,,,,,,,,,,,001,20,2020_Jan_28_1526,spring_faces,3.1.5,60.024041669160916,
condition files/Stage1_1.xlsx,,B3,T3,c,"['c', 'm']","['Clue', 'Monopoly']","[-0.15, 0.5]","[0.15, 0.5]",1,1,,,,,,,,,0,10,10,10,0,0,0,4,,,,,,,,,,,,,,,,,,,,,,,,,,,,,,,,,,,,,,,,,,,,,,,,,,,,,,,1079.246435563,None,1079.246435563,None,1079.246435563,None,c,1,0.20216667500062613,1080.782068026001,None,1080.782068026001,None,1080.782068026001,None,1081.0463616929992,None,1081.0463616929992,None,1081.0463616929992,None,1081.0463616929992,None,,,,,,,,,,,,,,,,,,,,,,,,,,,,,,,,,,,,,,,,,,,,001,20,2020_Jan_28_1526,spring_faces,3.1.5,60.024041669160916,
condition files/Stage1_1.xlsx,,T3,B4,c,"['c', 'm']","['Clue', 'Monopoly']","[-0.15, 0.5]","[0.15, 0.5]",1,1,,,,,,,,,0,10,10,10,0,1,1,5,,,,,,,,,,,,,,,,,,,,,,,,,,,,,,,,,,,,,,,,,,,,,,,,,,,,,,,1083.0132272250012,None,1083.0132272250012,None,1083.0132272250012,None,m,0,0.09913979300108622,1084.5490206989998,None,1084.5490206989998,None,1084.5490206989998,None,1084.713577685001,None,1084.713577685001,None,1084.713577685001,None,1084.713577685001,None,,,,,,,,,,,,,,,,,,,,,,,,,,,,,,,,,,,,,,,,,,,,001,20,2020_Jan_28_1526,spring_faces,3.1.5,60.024041669160916,
condition files/Stage1_1.xlsx,,T1,B1,c,"['c', 'm']","['Clue', 'Monopoly']","[-0.15, 0.5]","[0.15, 0.5]",1,1,,,,,,,,,0,10,10,10,0,2,2,0,,,,,,,,,,,,,,,,,,,,,,,,,,,,,,,,,,,,,,,,,,,,,,,,,,,,,,,1086.6792114929995,None,1086.6792114929995,None,1086.6792114929995,None,m,0,0.019640395999886096,None,None,None,None,None,None,1088.2494597160003,None,1088.2494597160003,None,1088.2494597160003,None,1088.2494597160003,None,,,,,,,,,,,,,,,,,,,,,,,,,,,,,,,,,,,,,,,,,,,,001,20,2020_Jan_28_1526,spring_faces,3.1.5,60.024041669160916,
condition files/Stage1_1.xlsx,,T4,B3,m,"['c', 'm']","['Clue', 'Monopoly']","[-0.15, 0.5]","[0.15, 0.5]",1,1,,,,,,,,,0,10,10,10,0,3,3,6,,,,,,,,,,,,,,,,,,,,,,,,,,,,,,,,,,,,,,,,,,,,,,,,,,,,,,,1090.2132286939996,None,1090.2132286939996,None,1090.2132286939996,None,m,1,0.020779300000867806,1091.7633927099996,None,1091.7633927099996,None,1091.7633927099996,None,1091.8634623370017,None,1091.8634623370017,None,1091.8634623370017,None,1091.8634623370017,None,,,,,,,,,,,,,,,,,,,,,,,,,,,,,,,,,,,,,,,,,,,,001,20,2020_Jan_28_1526,spring_faces,3.1.5,60.024041669160916,
condition files/Stage1_1.xlsx,,T2,B2,m,"['c', 'm']","['Clue', 'Monopoly']","[-0.15, 0.5]","[0.15, 0.5]",1,1,,,,,,,,,0,10,10,10,0,4,4,3,,,,,,,,,,,,,,,,,,,,,,,,,,,,,,,,,,,,,,,,,,,,,,,,,,,,,,,1093.8131619529995,None,1093.8131619529995,None,1093.8131619529995,None,c,0,-0.010660239000571892,1095.3628855979987,None,1095.3628855979987,None,1095.3628855979987,None,1095.4134552169999,None,1095.4134552169999,None,1095.4134552169999,None,1095.4134552169999,None,,,,,,,,,,,,,,,,,,,,,,,,,,,,,,,,,,,,,,,,,,,,001,20,2020_Jan_28_1526,spring_faces,3.1.5,60.024041669160916,
condition files/Stage1_1.xlsx,,B1,T2,c,"['c', 'm']","['Clue', 'Monopoly']","[-0.15, 0.5]","[0.15, 0.5]",1,1,,,,,,,,,0,10,10,10,0,5,5,1,,,,,,,,,,,,,,,,,,,,,,,,,,,,,,,,,,,,,,,,,,,,,,,,,,,,,,,1097.3799190989994,None,1097.3799190989994,None,1097.3799190989994,None,c,1,0.02256060299987439,None,None,None,None,None,None,1098.9638615570002,None,1098.9638615570002,None,1098.9638615570002,None,1098.9638615570002,None,,,,,,,,,,,,,,,,,,,,,,,,,,,,,,,,,,,,,,,,,,,,001,20,2020_Jan_28_1526,spring_faces,3.1.5,60.024041669160916,
condition files/Stage1_1.xlsx,,B4,T4,m,"['c', 'm']","['Clue', 'Monopoly']","[-0.15, 0.5]","[0.15, 0.5]",1,1,,,,,,,,,0,10,10,10,0,6,6,7,,,,,,,,,,,,,,,,,,,,,,,,,,,,,,,,,,,,,,,,,,,,,,,,,,,,,,,1100.9132697739988,None,1100.9132697739988,None,1100.9132697739988,None,c,0,0.03957616299885558,1102.448677534001,None,1102.448677534001,None,1102.448677534001,None,1102.5628281280005,None,1102.5628281280005,None,1102.5628281280005,None,1102.5628281280005,None,,,,,,,,,,,,,,,,,,,,,,,,,,,,,,,,,,,,,,,,,,,,001,20,2020_Jan_28_1526,spring_faces,3.1.5,60.024041669160916,
condition files/Stage1_1.xlsx,,B2,T1,m,"['c', 'm']","['Clue', 'Monopoly']","[-0.15, 0.5]","[0.15, 0.5]",1,1,,,,,,,,,0,10,10,10,0,7,7,2,,,,,,,,,,,,,,,,,,,,,,,,,,,,,,,,,,,,,,,,,,,,,,,,,,,,,,,1104.5127871619989,None,1104.5127871619989,None,1104.5127871619989,None,m,1,0.026068832998134894,None,None,None,None,None,None,1106.0966096890006,None,1106.0966096890006,None,1106.0966096890006,None,1106.0966096890006,None,,,,,,,,,,,,,,,,,,,,,,,,,,,,,,,,,,,,,,,,,,,,001,20,2020_Jan_28_1526,spring_faces,3.1.5,60.024041669160916,
condition files/Stage1_2.xlsx,,T2,B1,c,"['c', 'm']","['Clue', 'Monopoly']","[-0.15, 0.5]","[0.15, 0.5]",1,1,,,,,,,,,0,11,11,11,0,0,0,1,,,,,,,,,,,,,,,,,,,,,,,,,,,,,,,,,,,,,,,,,,,,,,,,,,,,,,,1108.0647400599992,None,1108.0647400599992,None,1108.0647400599992,None,m,0,0.04396205900047789,1109.596306620002,None,1109.596306620002,None,1109.596306620002,None,1109.713629050002,None,1109.713629050002,None,1109.713629050002,None,1109.713629050002,None,,,,,,,,,,,,,,,,,,,,,,,,,,,,,,,,,,,,,,,,,,,,001,20,2020_Jan_28_1526,spring_faces,3.1.5,60.024041669160916,
condition files/Stage1_2.xlsx,,T4,B4,m,"['c', 'm']","['Clue', 'Monopoly']","[-0.15, 0.5]","[0.15, 0.5]",1,1,,,,,,,,,0,11,11,11,0,1,1,7,,,,,,,,,,,,,,,,,,,,,,,,,,,,,,,,,,,,,,,,,,,,,,,,,,,,,,,1111.664727315001,None,1111.664727315001,None,1111.664727315001,None,c,0,0.07475008599794819,1113.213484832002,None,1113.213484832002,None,1113.213484832002,None,1113.3631002900001,None,1113.3631002900001,None,1113.3631002900001,None,1113.3631002900001,None,,,,,,,,,,,,,,,,,,,,,,,,,,,,,,,,,,,,,,,,,,,,001,20,2020_Jan_28_1526,spring_faces,3.1.5,60.024041669160916,
condition files/Stage1_2.xlsx,,B4,T3,c,"['c', 'm']","['Clue', 'Monopoly']","[-0.15, 0.5]","[0.15, 0.5]",1,1,,,,,,,,,0,11,11,11,0,2,2,5,,,,,,,,,,,,,,,,,,,,,,,,,,,,,,,,,,,,,,,,,,,,,,,,,,,,,,,1115.3127713270005,None,1115.3127713270005,None,1115.3127713270005,None,m,0,0.04078392199880909,1116.863435403,None,1116.863435403,None,1116.863435403,None,1116.9798344670016,None,1116.9798344670016,None,1116.9798344670016,None,1116.9798344670016,None,,,,,,,,,,,,,,,,,,,,,,,,,,,,,,,,,,,,,,,,,,,,001,20,2020_Jan_28_1526,spring_faces,3.1.5,60.024041669160916,
condition files/Stage1_2.xlsx,,B2,T2,m,"['c', 'm']","['Clue', 'Monopoly']","[-0.15, 0.5]","[0.15, 0.5]",1,1,,,,,,,,,0,11,11,11,0,3,3,3,,,,,,,,,,,,,,,,,,,,,,,,,,,,,,,,,,,,,,,,,,,,,,,,,,,,,,,1118.9466191280007,None,1118.9466191280007,None,1118.9466191280007,None,c,0,-0.02392760300062946,1120.4800416729995,None,1120.4800416729995,None,1120.4800416729995,None,1120.5468753589994,None,1120.5468753589994,None,1120.5468753589994,None,1120.5468753589994,None,,,,,,,,,,,,,,,,,,,,,,,,,,,,,,,,,,,,,,,,,,,,001,20,2020_Jan_28_1526,spring_faces,3.1.5,60.024041669160916,
condition files/Stage1_2.xlsx,,B3,T4,m,"['c', 'm']","['Clue', 'Monopoly']","[-0.15, 0.5]","[0.15, 0.5]",1,1,,,,,,,,,0,11,11,11,0,4,4,6,,,,,,,,,,,,,,,,,,,,,,,,,,,,,,,,,,,,,,,,,,,,,,,,,,,,,,,1122.496441907002,None,1122.496441907002,None,1122.496441907002,None,m,1,0.12085178100096527,1124.0313794169997,None,1124.0313794169997,None,1124.0313794169997,None,1124.212725854999,None,1124.212725854999,None,1124.212725854999,None,1124.212725854999,None,,,,,,,,,,,,,,,,,,,,,,,,,,,,,,,,,,,,,,,,,,,,001,20,2020_Jan_28_1526,spring_faces,3.1.5,60.024041669160916,
condition files/Stage1_2.xlsx,,T1,B2,m,"['c', 'm']","['Clue', 'Monopoly']","[-0.15, 0.5]","[0.15, 0.5]",1,1,,,,,,,,,0,11,11,11,0,5,5,2,,,,,,,,,,,,,,,,,,,,,,,,,,,,,,,,,,,,,,,,,,,,,,,,,,,,,,,1126.1793975330002,None,1126.1793975330002,None,1126.1793975330002,None,m,1,0.4535571489977883,1127.7146842200018,None,1127.7146842200018,None,1127.7146842200018,None,1128.2303324690001,None,1128.2303324690001,None,1128.2303324690001,None,1128.2303324690001,None,,,,,,,,,,,,,,,,,,,,,,,,,,,,,,,,,,,,,,,,,,,,001,20,2020_Jan_28_1526,spring_faces,3.1.5,60.024041669160916,
condition files/Stage1_2.xlsx,,T3,B3,c,"['c', 'm']","['Clue', 'Monopoly']","[-0.15, 0.5]","[0.15, 0.5]",1,1,,,,,,,,,0,11,11,11,0,6,6,4,,,,,,,,,,,,,,,,,,,,,,,,,,,,,,,,,,,,,,,,,,,,,,,,,,,,,,,1130.1963280890013,None,1130.1963280890013,None,1130.1963280890013,None,c,1,0.5800162960003945,1131.7321733099998,None,1131.7321733099998,None,1131.7321733099998,None,1132.3641010280007,None,1132.3641010280007,None,1132.3641010280007,None,1132.3641010280007,None,,,,,,,,,,,,,,,,,,,,,,,,,,,,,,,,,,,,,,,,,,,,001,20,2020_Jan_28_1526,spring_faces,3.1.5,60.024041669160916,
condition files/Stage1_2.xlsx,,B1,T1,c,"['c', 'm']","['Clue', 'Monopoly']","[-0.15, 0.5]","[0.15, 0.5]",1,1,,,,,,,,,0,11,11,11,0,7,7,0,,,,,,,,,,,,,,,,,,,,,,,,,,,,,,,,,,,,,,,,,,,,,,,,,,,,,,,1134.3470681719991,None,1134.3470681719991,None,1134.3470681719991,None,m,0,0.06300405100046191,1135.865184426002,None,1135.865184426002,None,1135.865184426002,None,1135.980110954999,None,1135.980110954999,None,1135.980110954999,None,1135.980110954999,None,,,,,,,,,,,,,,,,,,,,,,,,,,,,,,,,,,,,,,,,,,,,001,20,2020_Jan_28_1526,spring_faces,3.1.5,60.024041669160916,
,,,,,,,,,,,,,,,,,,,,,,,,,,,,,,,,,,,,,,,,,,,,,,,,,,,,,,,,,,,,,,,,,,,,,,,,,,,,,,,,,,,,,,,,,,,,,,,,,,,,,,,,,,,,,,,,1137.9630649300016,None,space,1.0448270980014058,1142.9633006699987,None,,,,,,,,,,,,,,,,,,,,,,,,,,,,,,001,20,2020_Jan_28_1526,spring_faces,3.1.5,60.024041669160916,
condition files/Stage2_1.xlsx,,T1,B1,s,"['s', 'r']","['Stratego', 'Risk']","[-0.15, 0.5]","[0.15, 0.5]",1,1,,,,,,,,,,,,,,,,,0,0,0,0,0,0,0,2,,,,,,,,,,,,,,,,,,,,,,,,,,,,,,,,,,,,,,,,,,,,,,,1144.0632577940014,None,1144.0632577940014,None,1144.0632577940014,None,s,1,0.49198600300223916,1145.5802525920008,None,1145.5802525920008,None,1145.5802525920008,None,1146.146680959002,None,1146.146680959002,None,1146.146680959002,None,1146.146680959002,None,,,,,,,,,,,,,,,1142.9633006699987,None,,,,,,,,,,,,,,,,,,,,,,,,,,,,001,20,2020_Jan_28_1526,spring_faces,3.1.5,60.024041669160916,
condition files/Stage2_1.xlsx,,T5,B5,s,"['s', 'r']","['Stratego', 'Risk']","[-0.15, 0.5]","[0.15, 0.5]",1,1,,,,,,,,,,,,,,,,,0,0,0,0,0,1,1,0,,,,,,,,,,,,,,,,,,,,,,,,,,,,,,,,,,,,,,,,,,,,,,,1148.0965282120014,None,1148.0965282120014,None,1148.0965282120014,None,r,0,0.05574089199944865,1149.680495392,None,1149.680495392,None,1149.680495392,None,1149.7968217439993,None,1149.7968217439993,None,1149.7968217439993,None,1149.7968217439993,None,,,,,,,,,,,,,,,,,,,,,,,,,,,,,,,,,,,,,,,,,,,,001,20,2020_Jan_28_1526,spring_faces,3.1.5,60.024041669160916,
condition files/Stage2_1.xlsx,,B6,T6,r,"['s', 'r']","['Stratego', 'Risk']","[-0.15, 0.5]","[0.15, 0.5]",1,1,,,,,,,,,,,,,,,,,0,0,0,0,0,2,2,1,,,,,,,,,,,,,,,,,,,,,,,,,,,,,,,,,,,,,,,,,,,,,,,1151.763201648002,None,1151.763201648002,None,1151.763201648002,None,s,0,0.02249468800073373,1153.2977338349992,None,1153.2977338349992,None,1153.2977338349992,None,1153.3967546029999,None,1153.3967546029999,None,1153.3967546029999,None,1153.3967546029999,None,,,,,,,,,,,,,,,,,,,,,,,,,,,,,,,,,,,,,,,,,,,,001,20,2020_Jan_28_1526,spring_faces,3.1.5,60.024041669160916,
condition files/Stage2_1.xlsx,,B4,T4,r,"['s', 'r']","['Stratego', 'Risk']","[-0.15, 0.5]","[0.15, 0.5]",1,1,,,,,,,,,,,,,,,,,0,0,0,0,0,3,3,5,,,,,,,,,,,,,,,,,,,,,,,,,,,,,,,,,,,,,,,,,,,,,,,1155.3460740260016,None,1155.3460740260016,None,1155.3460740260016,None,r,1,0.13467027099977713,1156.8815193500013,None,1156.8815193500013,None,1156.8815193500013,None,1157.079475262999,None,1157.079475262999,None,1157.079475262999,None,1157.079475262999,None,,,,,,,,,,,,,,,,,,,,,,,,,,,,,,,,,,,,,,,,,,,,001,20,2020_Jan_28_1526,spring_faces,3.1.5,60.024041669160916,
condition files/Stage2_1.xlsx,,B2,T2,r,"['s', 'r']","['Stratego', 'Risk']","[-0.15, 0.5]","[0.15, 0.5]",1,1,,,,,,,,,,,,,,,,,0,0,0,0,0,4,4,3,,,,,,,,,,,,,,,,,,,,,,,,,,,,,,,,,,,,,,,,,,,,,,,1159.0471267889989,None,1159.0471267889989,None,1159.0471267889989,None,s,0,0.0026936579997709487,1160.5815021660019,None,1160.5815021660019,None,1160.5815021660019,None,1160.646106862001,None,1160.646106862001,None,1160.646106862001,None,1160.646106862001,None,,,,,,,,,,,,,,,,,,,,,,,,,,,,,,,,,,,,,,,,,,,,001,20,2020_Jan_28_1526,spring_faces,3.1.5,60.024041669160916,
condition files/Stage2_1.xlsx,,T3,B3,s,"['s', 'r']","['Stratego', 'Risk']","[-0.15, 0.5]","[0.15, 0.5]",1,1,,,,,,,,,,,,,,,,,0,0,0,0,0,5,5,4,,,,,,,,,,,,,,,,,,,,,,,,,,,,,,,,,,,,,,,,,,,,,,,1162.6136140320014,None,1162.6136140320014,None,1162.6136140320014,None,r,0,0.03630754099867772,1164.163872396999,None,1164.163872396999,None,1164.163872396999,None,1164.2802097800013,None,1164.2802097800013,None,1164.2802097800013,None,1164.2802097800013,None,,,,,,,,,,,,,,,,,,,,,,,,,,,,,,,,,,,,,,,,,,,,001,20,2020_Jan_28_1526,spring_faces,3.1.5,60.024041669160916,
condition files/Stage2_2.xlsx,,B3,T3,s,"['s', 'r']","['Stratego', 'Risk']","[-0.15, 0.5]","[0.15, 0.5]",1,1,,,,,,,,,,,,,,,,,0,1,1,1,0,0,0,4,,,,,,,,,,,,,,,,,,,,,,,,,,,,,,,,,,,,,,,,,,,,,,,1166.2471227310016,None,1166.2471227310016,None,1166.2471227310016,None,s,1,0.02044878900051117,None,None,None,None,None,None,1167.829332524001,None,1167.829332524001,None,1167.829332524001,None,1167.829332524001,None,,,,,,,,,,,,,,,,,,,,,,,,,,,,,,,,,,,,,,,,,,,,001,20,2020_Jan_28_1526,spring_faces,3.1.5,60.024041669160916,
condition files/Stage2_2.xlsx,,T2,B2,r,"['s', 'r']","['Stratego', 'Risk']","[-0.15, 0.5]","[0.15, 0.5]",1,1,,,,,,,,,,,,,,,,,0,1,1,1,0,1,1,3,,,,,,,,,,,,,,,,,,,,,,,,,,,,,,,,,,,,,,,,,,,,,,,1169.7976413950018,None,1169.7976413950018,None,1169.7976413950018,None,r,1,0.03710946600040188,1171.347069763,None,1171.347069763,None,1171.347069763,None,1171.4634545629997,None,1171.4634545629997,None,1171.4634545629997,None,1171.4634545629997,None,,,,,,,,,,,,,,,,,,,,,,,,,,,,,,,,,,,,,,,,,,,,001,20,2020_Jan_28_1526,spring_faces,3.1.5,60.024041669160916,
condition files/Stage2_2.xlsx,,B1,T1,s,"['s', 'r']","['Stratego', 'Risk']","[-0.15, 0.5]","[0.15, 0.5]",1,1,,,,,,,,,,,,,,,,,0,1,1,1,0,2,2,2,,,,,,,,,,,,,,,,,,,,,,,,,,,,,,,,,,,,,,,,,,,,,,,1173.4125230890022,None,1173.4125230890022,None,1173.4125230890022,None,s,1,0.03732782500082976,None,None,None,None,None,None,1174.996484481002,None,1174.996484481002,None,1174.996484481002,None,1174.996484481002,None,,,,,,,,,,,,,,,,,,,,,,,,,,,,,,,,,,,,,,,,,,,,001,20,2020_Jan_28_1526,spring_faces,3.1.5,60.024041669160916,
condition files/Stage2_2.xlsx,,T6,B6,r,"['s', 'r']","['Stratego', 'Risk']","[-0.15, 0.5]","[0.15, 0.5]",1,1,,,,,,,,,,,,,,,,,0,1,1,1,0,3,3,1,,,,,,,,,,,,,,,,,,,,,,,,,,,,,,,,,,,,,,,,,,,,,,,1176.9462705469996,None,1176.9462705469996,None,1176.9462705469996,None,r,1,0.11941998800102738,1178.496745741999,None,1178.496745741999,None,1178.496745741999,None,1178.6967746769988,None,1178.6967746769988,None,1178.6967746769988,None,1178.6967746769988,None,,,,,,,,,,,,,,,,,,,,,,,,,,,,,,,,,,,,,,,,,,,,001,20,2020_Jan_28_1526,spring_faces,3.1.5,60.024041669160916,
condition files/Stage2_2.xlsx,,B5,T5,s,"['s', 'r']","['Stratego', 'Risk']","[-0.15, 0.5]","[0.15, 0.5]",1,1,,,,,,,,,,,,,,,,,0,1,1,1,0,4,4,0,,,,,,,,,,,,,,,,,,,,,,,,,,,,,,,,,,,,,,,,,,,,,,,1180.6465889680003,None,1180.6465889680003,None,1180.6465889680003,None,r,0,0.003883291999954963,1182.1803150580017,None,1182.1803150580017,None,1182.1803150580017,None,1182.247284729001,None,1182.247284729001,None,1182.247284729001,None,1182.247284729001,None,,,,,,,,,,,,,,,,,,,,,,,,,,,,,,,,,,,,,,,,,,,,001,20,2020_Jan_28_1526,spring_faces,3.1.5,60.024041669160916,
condition files/Stage2_2.xlsx,,T4,B4,r,"['s', 'r']","['Stratego', 'Risk']","[-0.15, 0.5]","[0.15, 0.5]",1,1,,,,,,,,,,,,,,,,,0,1,1,1,0,5,5,5,,,,,,,,,,,,,,,,,,,,,,,,,,,,,,,,,,,,,,,,,,,,,,,1184.212765761,None,1184.212765761,None,1184.212765761,None,s,0,0.0196938359986234,1185.7485184130019,None,1185.7485184130019,None,1185.7485184130019,None,1185.8468219290007,None,1185.8468219290007,None,1185.8468219290007,None,1185.8468219290007,None,,,,,,,,,,,,,,,,,,,,,,,,,,,,,,,,,,,,,,,,,,,,001,20,2020_Jan_28_1526,spring_faces,3.1.5,60.024041669160916,
condition files/Stage2_1.xlsx,,B6,T6,r,"['s', 'r']","['Stratego', 'Risk']","[-0.15, 0.5]","[0.15, 0.5]",1,1,,,,,,,,,,,,,,,,,0,2,2,2,0,0,0,1,,,,,,,,,,,,,,,,,,,,,,,,,,,,,,,,,,,,,,,,,,,,,,,1187.812977130001,None,1187.812977130001,None,1187.812977130001,None,s,0,0.06889475999923889,1189.3473090059997,None,1189.3473090059997,None,1189.3473090059997,None,1189.4803149649997,None,1189.4803149649997,None,1189.4803149649997,None,1189.4803149649997,None,,,,,,,,,,,,,,,,,,,,,,,,,,,,,,,,,,,,,,,,,,,,001,20,2020_Jan_28_1526,spring_faces,3.1.5,60.024041669160916,
condition files/Stage2_1.xlsx,,B4,T4,r,"['s', 'r']","['Stratego', 'Risk']","[-0.15, 0.5]","[0.15, 0.5]",1,1,,,,,,,,,,,,,,,,,0,2,2,2,0,1,1,5,,,,,,,,,,,,,,,,,,,,,,,,,,,,,,,,,,,,,,,,,,,,,,,1191.4465472260017,None,1191.4465472260017,None,1191.4465472260017,None,r,1,0.706958257000224,1192.9812922210003,None,1192.9812922210003,None,1192.9812922210003,None,1193.7466018330015,None,1193.7466018330015,None,1193.7466018330015,None,1193.7466018330015,None,,,,,,,,,,,,,,,,,,,,,,,,,,,,,,,,,,,,,,,,,,,,001,20,2020_Jan_28_1526,spring_faces,3.1.5,60.024041669160916,
condition files/Stage2_1.xlsx,,B2,T2,r,"['s', 'r']","['Stratego', 'Risk']","[-0.15, 0.5]","[0.15, 0.5]",1,1,,,,,,,,,,,,,,,,,0,2,2,2,0,2,2,3,,,,,,,,,,,,,,,,,,,,,,,,,,,,,,,,,,,,,,,,,,,,,,,1195.713008417999,None,1195.713008417999,None,1195.713008417999,None,r,1,0.007884008999099024,1197.2483163969991,None,1197.2483163969991,None,1197.2483163969991,None,1197.3138346849992,None,1197.3138346849992,None,1197.3138346849992,None,1197.3138346849992,None,,,,,,,,,,,,,,,,,,,,,,,,,,,,,,,,,,,,,,,,,,,,001,20,2020_Jan_28_1526,spring_faces,3.1.5,60.024041669160916,
condition files/Stage2_1.xlsx,,T3,B3,s,"['s', 'r']","['Stratego', 'Risk']","[-0.15, 0.5]","[0.15, 0.5]",1,1,,,,,,,,,,,,,,,,,0,2,2,2,0,3,3,4,,,,,,,,,,,,,,,,,,,,,,,,,,,,,,,,,,,,,,,,,,,,,,,1199.2798765980006,None,1199.2798765980006,None,1199.2798765980006,None,r,0,0.09067925199997262,1200.8295587069988,None,1200.8295587069988,None,1200.8295587069988,None,1200.9965092640014,None,1200.9965092640014,None,1200.9965092640014,None,1200.9965092640014,None,,,,,,,,,,,,,,,,,,,,,,,,,,,,,,,,,,,,,,,,,,,,001,20,2020_Jan_28_1526,spring_faces,3.1.5,60.024041669160916,
condition files/Stage2_1.xlsx,,T5,B5,s,"['s', 'r']","['Stratego', 'Risk']","[-0.15, 0.5]","[0.15, 0.5]",1,1,,,,,,,,,,,,,,,,,0,2,2,2,0,4,4,0,,,,,,,,,,,,,,,,,,,,,,,,,,,,,,,,,,,,,,,,,,,,,,,1202.945913325002,None,1202.945913325002,None,1202.945913325002,None,r,0,-0.024654368000483373,1204.4967909020015,None,1204.4967909020015,None,1204.4967909020015,None,1204.546305202999,None,1204.546305202999,None,1204.546305202999,None,1204.546305202999,None,,,,,,,,,,,,,,,,,,,,,,,,,,,,,,,,,,,,,,,,,,,,001,20,2020_Jan_28_1526,spring_faces,3.1.5,60.024041669160916,
condition files/Stage2_1.xlsx,,T1,B1,s,"['s', 'r']","['Stratego', 'Risk']","[-0.15, 0.5]","[0.15, 0.5]",1,1,,,,,,,,,,,,,,,,,0,2,2,2,0,5,5,2,,,,,,,,,,,,,,,,,,,,,,,,,,,,,,,,,,,,,,,,,,,,,,,1206.5131470310007,None,1206.5131470310007,None,1206.5131470310007,None,r,0,0.024816000001010252,1208.0634139590002,None,1208.0634139590002,None,1208.0634139590002,None,1208.1465423520021,None,1208.1465423520021,None,1208.1465423520021,None,1208.1465423520021,None,,,,,,,,,,,,,,,,,,,,,,,,,,,,,,,,,,,,,,,,,,,,001,20,2020_Jan_28_1526,spring_faces,3.1.5,60.024041669160916,
condition files/Stage2_2.xlsx,,T4,B4,r,"['s', 'r']","['Stratego', 'Risk']","[-0.15, 0.5]","[0.15, 0.5]",1,1,,,,,,,,,,,,,,,,,0,3,3,3,0,0,0,5,,,,,,,,,,,,,,,,,,,,,,,,,,,,,,,,,,,,,,,,,,,,,,,1210.1301933060022,None,1210.1301933060022,None,1210.1301933060022,None,s,0,0.16875985200022114,1211.6793925710008,None,1211.6793925710008,None,1211.6793925710008,None,1211.9301112089997,None,1211.9301112089997,None,1211.9301112089997,None,1211.9301112089997,None,,,,,,,,,,,,,,,,,,,,,,,,,,,,,,,,,,,,,,,,,,,,001,20,2020_Jan_28_1526,spring_faces,3.1.5,60.024041669160916,
condition files/Stage2_2.xlsx,,T2,B2,r,"['s', 'r']","['Stratego', 'Risk']","[-0.15, 0.5]","[0.15, 0.5]",1,1,,,,,,,,,,,,,,,,,0,3,3,3,0,1,1,3,,,,,,,,,,,,,,,,,,,,,,,,,,,,,,,,,,,,,,,,,,,,,,,1213.8798539669988,None,1213.8798539669988,None,1213.8798539669988,None,s,0,0.0028145350006525405,1215.4133811640022,None,1215.4133811640022,None,1215.4133811640022,None,1215.480438491999,None,1215.480438491999,None,1215.480438491999,None,1215.480438491999,None,,,,,,,,,,,,,,,,,,,,,,,,,,,,,,,,,,,,,,,,,,,,001,20,2020_Jan_28_1526,spring_faces,3.1.5,60.024041669160916,
condition files/Stage2_2.xlsx,,B3,T3,s,"['s', 'r']","['Stratego', 'Risk']","[-0.15, 0.5]","[0.15, 0.5]",1,1,,,,,,,,,,,,,,,,,0,3,3,3,0,2,2,4,,,,,,,,,,,,,,,,,,,,,,,,,,,,,,,,,,,,,,,,,,,,,,,1217.4467000389996,None,1217.4467000389996,None,1217.4467000389996,None,s,1,0.11542251300124917,1218.9967552929993,None,1218.9967552929993,None,1218.9967552929993,None,1219.1797477860018,None,1219.1797477860018,None,1219.1797477860018,None,1219.1797477860018,None,,,,,,,,,,,,,,,,,,,,,,,,,,,,,,,,,,,,,,,,,,,,001,20,2020_Jan_28_1526,spring_faces,3.1.5,60.024041669160916,
condition files/Stage2_2.xlsx,,B1,T1,s,"['s', 'r']","['Stratego', 'Risk']","[-0.15, 0.5]","[0.15, 0.5]",1,1,,,,,,,,,,,,,,,,,0,3,3,3,0,3,3,2,,,,,,,,,,,,,,,,,,,,,,,,,,,,,,,,,,,,,,,,,,,,,,,1221.1298982500011,None,1221.1298982500011,None,1221.1298982500011,None,s,1,0.016623300998617196,None,None,None,None,None,None,1222.7135822730015,None,1222.7135822730015,None,1222.7135822730015,None,1222.7135822730015,None,,,,,,,,,,,,,,,,,,,,,,,,,,,,,,,,,,,,,,,,,,,,001,20,2020_Jan_28_1526,spring_faces,3.1.5,60.024041669160916,
condition files/Stage2_2.xlsx,,T6,B6,r,"['s', 'r']","['Stratego', 'Risk']","[-0.15, 0.5]","[0.15, 0.5]",1,1,,,,,,,,,,,,,,,,,0,3,3,3,0,4,4,1,,,,,,,,,,,,,,,,,,,,,,,,,,,,,,,,,,,,,,,,,,,,,,,1224.6628015710012,None,1224.6628015710012,None,1224.6628015710012,None,s,0,0.32314463200236787,1226.19710958,None,1226.19710958,None,1226.19710958,None,1226.5968733560003,None,1226.5968733560003,None,1226.5968733560003,None,1226.5968733560003,None,,,,,,,,,,,,,,,,,,,,,,,,,,,,,,,,,,,,,,,,,,,,001,20,2020_Jan_28_1526,spring_faces,3.1.5,60.024041669160916,
condition files/Stage2_2.xlsx,,B5,T5,s,"['s', 'r']","['Stratego', 'Risk']","[-0.15, 0.5]","[0.15, 0.5]",1,1,,,,,,,,,,,,,,,,,0,3,3,3,0,5,5,0,,,,,,,,,,,,,,,,,,,,,,,,,,,,,,,,,,,,,,,,,,,,,,,1228.5467147199997,None,1228.5467147199997,None,1228.5467147199997,None,r,0,0.04005970599973807,None,None,None,None,None,None,1230.1300678690022,None,1230.1300678690022,None,1230.1300678690022,None,1230.1300678690022,None,,,,,,,,,,,,,,,,,,,,,,,,,,,,,,,,,,,,,,,,,,,,001,20,2020_Jan_28_1526,spring_faces,3.1.5,60.024041669160916,
condition files/Stage2_1.xlsx,,B2,T2,r,"['s', 'r']","['Stratego', 'Risk']","[-0.15, 0.5]","[0.15, 0.5]",1,1,,,,,,,,,,,,,,,,,0,4,4,4,0,0,0,3,,,,,,,,,,,,,,,,,,,,,,,,,,,,,,,,,,,,,,,,,,,,,,,1232.0963004650002,None,1232.0963004650002,None,1232.0963004650002,None,s,0,0.04107947000011336,1233.631182682002,None,1233.631182682002,None,1233.631182682002,None,1233.7467471990021,None,1233.7467471990021,None,1233.7467471990021,None,1233.7467471990021,None,,,,,,,,,,,,,,,,,,,,,,,,,,,,,,,,,,,,,,,,,,,,001,20,2020_Jan_28_1526,spring_faces,3.1.5,60.024041669160916,
condition files/Stage2_1.xlsx,,T1,B1,s,"['s', 'r']","['Stratego', 'Risk']","[-0.15, 0.5]","[0.15, 0.5]",1,1,,,,,,,,,,,,,,,,,0,4,4,4,0,1,1,2,,,,,,,,,,,,,,,,,,,,,,,,,,,,,,,,,,,,,,,,,,,,,,,1235.7134842070009,None,1235.7134842070009,None,1235.7134842070009,None,s,1,0.0897654969994619,1237.2464444239995,None,1237.2464444239995,None,1237.2464444239995,None,1237.4126308500017,None,1237.4126308500017,None,1237.4126308500017,None,1237.4126308500017,None,,,,,,,,,,,,,,,,,,,,,,,,,,,,,,,,,,,,,,,,,,,,001,20,2020_Jan_28_1526,spring_faces,3.1.5,60.024041669160916,
condition files/Stage2_1.xlsx,,T3,B3,s,"['s', 'r']","['Stratego', 'Risk']","[-0.15, 0.5]","[0.15, 0.5]",1,1,,,,,,,,,,,,,,,,,0,4,4,4,0,2,2,4,,,,,,,,,,,,,,,,,,,,,,,,,,,,,,,,,,,,,,,,,,,,,,,1239.362961101,None,1239.362961101,None,1239.362961101,None,s,1,0.00841013799799839,None,None,None,None,None,None,1240.9459784909996,None,1240.9459784909996,None,1240.9459784909996,None,1240.9459784909996,None,,,,,,,,,,,,,,,,,,,,,,,,,,,,,,,,,,,,,,,,,,,,001,20,2020_Jan_28_1526,spring_faces,3.1.5,60.024041669160916,
condition files/Stage2_1.xlsx,,B6,T6,r,"['s', 'r']","['Stratego', 'Risk']","[-0.15, 0.5]","[0.15, 0.5]",1,1,,,,,,,,,,,,,,,,,0,4,4,4,0,3,3,1,,,,,,,,,,,,,,,,,,,,,,,,,,,,,,,,,,,,,,,,,,,,,,,1242.8962921419989,None,1242.8962921419989,None,1242.8962921419989,None,r,1,0.025359369999932824,1244.4308253390009,None,1244.4308253390009,None,1244.4308253390009,None,1244.5129222750002,None,1244.5129222750002,None,1244.5129222750002,None,1244.5129222750002,None,,,,,,,,,,,,,,,,,,,,,,,,,,,,,,,,,,,,,,,,,,,,001,20,2020_Jan_28_1526,spring_faces,3.1.5,60.024041669160916,
