condsFile,subStage,cue1,cue2,correct,responseKeys,responseNames,cue1Position,cue2Position,cue1Opacity,cue2Opacity,stageLoop0.thisRepN,stageLoop0.thisTrialN,stageLoop0.thisN,stageLoop0.thisIndex,blockLoop0.thisRepN,blockLoop0.thisTrialN,blockLoop0.thisN,blockLoop0.thisIndex,stage1Loop.thisRepN,stage1Loop.thisTrialN,stage1Loop.thisN,stage1Loop.thisIndex,blockLoop1.thisRepN,blockLoop1.thisTrialN,blockLoop1.thisN,blockLoop1.thisIndex,stage2Loop.thisRepN,stage2Loop.thisTrialN,stage2Loop.thisN,stage2Loop.thisIndex,blockLoop2.thisRepN,blockLoop2.thisTrialN,blockLoop2.thisN,blockLoop2.thisIndex,testLoop.thisRepN,testLoop.thisTrialN,testLoop.thisN,testLoop.thisIndex,blockLoopTest.thisRepN,blockLoopTest.thisTrialN,blockLoopTest.thisN,blockLoopTest.thisIndex,cuePics,id_instr_text.started,id_instr_text.stopped,space_to_continue_2.started,space_to_continue_2.stopped,end_instructions_resp_3.keys,end_instructions_resp_3.rt,end_instructions_resp_3.started,end_instructions_resp_3.stopped,id_input_instr.started,id_input_instr.stopped,id_input_rect.started,id_input_rect.stopped,id_input_resp.keys,id_input_resp.rt,id_input_resp.started,id_input_resp.stopped,sonaID,id_input_text.started,id_input_text.stopped,final_text.started,final_text.stopped,instructions.started,instructions.stopped,end_instructions_resp.keys,end_instructions_resp.rt,end_instructions_resp.started,end_instructions_resp.stopped,space_to_continue.started,space_to_continue.stopped,instructions_stage0.started,instructions_stage0.stopped,end_instructions_resp_stage0.keys,end_instructions_resp_stage0.rt,end_instructions_resp_stage0.started,end_instructions_resp_stage0.stopped,space_to_continue_stage0.started,space_to_continue_stage0.stopped,text.started,text.stopped,resp_text1.started,resp_text1.stopped,resp_text2.started,resp_text2.stopped,trial_resp.keys,trial_resp.corr,trial_resp.rt,trial_resp.started,trial_resp.stopped,cue1Image.started,cue1Image.stopped,cue2Image.started,cue2Image.stopped,cue1Image_fb.started,cue1Image_fb.stopped,cue2Image_fb.started,cue2Image_fb.stopped,fb_text_answer.started,fb_text_answer.stopped,feedback_image.started,feedback_image.stopped,instructions_stage1.started,instructions_stage1.stopped,end_instructions_resp_stage1.keys,end_instructions_resp_stage1.rt,end_instructions_resp_stage1.started,end_instructions_resp_stage1.stopped,space_to_continue_stage1.started,space_to_continue_stage1.stopped,instructions_2.started,instructions_2.stopped,end_instructions_resp_2.keys,end_instructions_resp_2.rt,end_instructions_resp_2.started,end_instructions_resp_2.stopped,press_space_to_continue_stage2.started,press_space_to_continue_stage2.stopped,instructions_testStage1.started,instructions_testStage1.stopped,end_instructions_resp_test1.keys,end_instructions_resp_test1.rt,end_instructions_resp_test1.started,end_instructions_resp_test1.stopped,press_space_to_continue_test1.started,press_space_to_continue_test1.stopped,cue1Image_testChoice.started,cue1Image_testChoice.stopped,cue2Image_testChoice.started,cue2Image_testChoice.stopped,test_resp.keys,test_resp.corr,test_resp.rt,test_resp.started,test_resp.stopped,cue1Image_testConf.started,cue1Image_testConf.stopped,cue2Image_testConf.started,cue2Image_testConf.stopped,conf_reminder.started,conf_reminder.stopped,conf_rating.response,conf_rating.rt,conf_rating.started,conf_rating.stopped,session,participant,date,expName,psychopyVersion,frameRate,
,,,,,,,,,,,,,,,,,,,,,,,,,,,,,,,,,,,,,,,,,,,"{'none': 'pictures/20M_AN_C.png', 'alpha': 'pictures/SHINEd_apple.png', 'beta': 'pictures/SHINEd_melon.png', 'theta': 'pictures/SHINEd_pear.png', 'phi': 'pictures/SHINEd_pepper.png', 'T1': 'pictures/23M_AN_C.png', 'T2': 'pictures/36M_AN_C.png', 'T3': 'pictures/32M_AN_C.png', 'T4': 'pictures/34M_AN_C.png', 'T5': 'pictures/37M_AN_C.png', 'T6': 'pictures/31M_AN_C.png', 'B1': 'pictures/38M_NE_C.png', 'B2': 'pictures/20M_NE_C.png', 'B3': 'pictures/33M_NE_C.png', 'B4': 'pictures/26M_NE_C.png', 'B5': 'pictures/22M_NE_C.png', 'B6': 'pictures/25M_NE_C.png'}",51.60564211300152,None,56.60577602700141,None,space,24.674363799000275,56.60577602700141,None,,,,,,,,,,,,,,,,,,,,,,,,,,,,,,,,,,,,,,,,,,,,,,,,,,,,,,,,,,,,,,,,,,,,,,,,,,,,,,,,,,,,,,,,,,,,,,,,001,22,2020_Jan_28_1551,spring_faces,3.1.5,60.08450091846241,
,,,,,,,,,,,,,,,,,,,,,,,,,,,,,,,,,,,,,,,,,,,,,,,,,,,,81.65631407900219,None,81.65631407900219,None,"['0', '3', '3', '1', 'j', 'a', 'm', 'u', 'r', '0', '3', '3', '1', 'j', 'a', 'e', 'r', 'm', '0', '3', '3', '1', 'j', 'a', 'e', 'backspace', 'm', 'u', 'r']","[34.90378263900129, 35.591833955000766, 40.47179143000176, 41.19183373700071, 43.76770762600063, 44.34372963400165, 46.07178822499918, 46.887783301001036, 47.28777414900105, 63.127745231002336, 63.55983700499928, 67.12775131500166, 67.3837165469995, 71.41578273699997, 71.7837351929993, 82.69577819900223, 83.15983218399924, 83.70378912100205, 90.82375495499946, 91.1436887910022, 91.46375991400055, 91.75176854299934, 92.4717929690014, 92.67989034200218, 96.90377805500248, 98.32775467900137, 98.8078314480008, 99.09577587400054, 99.4957802329991]",81.65631407900219,None,,,,,,,,,,,,,,,,,,,,,,,,,,,,,,,,,,,,,,,,,,,,,,,,,,,,,,,,,,,,,,,,,,,,,,,,,,,,,,,,,,,,,,,,001,22,2020_Jan_28_1551,spring_faces,3.1.5,60.08450091846241,
,,,,,,,,,,,,,,,,,,,,,,,,,,,,,,,,,,,,,,,,,,,,,,,,,,,,,,,,,,,,0331jamur,81.65631407900219,None,81.65631407900219,None,186.2229760750015,None,space,2.777486511000461,191.22260194699993,None,,,,,,,,,,,,,,,,,,,,,,,,,,,,,,,,,,,,,,,,,,,,,,,,,,,,,,,,,,,,,,,,,,,,,,,,,,,,,001,22,2020_Jan_28_1551,spring_faces,3.1.5,60.08450091846241,
,,,,,,,,,,,,,,,,,,,,,,,,,,,,,,,,,,,,,,,,,,,,,,,,,,,,,,,,,,,,,,,,,,,,,,,191.22260194699993,None,194.03938928900243,None,space,9.521036492002168,199.03908135000165,None,,,,,,,,,,,,,,,,,,,,,,,,,,,,,,,,,,,,,,,,,,,,,,,,,,,,,,,,,,,,,,,,,,,,,001,22,2020_Jan_28_1551,spring_faces,3.1.5,60.08450091846241,
condition files/Stage0a.xlsx,0a,alpha,none,h,"['h', 'g']","['Chess', 'Go']","[0, 0.5]","[0, 0]",1,0,0,0,0,0,0,0,0,0,,,,,,,,,,,,,,,,,,,,,,,,,,,,,,,,,,,,,,,,,,,,,,,,,,,,,,,,,,,,,199.03908135000165,None,208.62266093799917,None,208.62266093799917,None,208.62266093799917,None,h,1,6.129960179998307,210.20609447300012,None,210.20609447300012,None,210.20609447300012,None,216.40603812799964,None,216.40603812799964,None,216.40603812799964,None,216.40603812799964,None,,,,,,,,,,,,,,,,,,,,,,,,,,,,,,,,,,,,,,,,,,,,001,22,2020_Jan_28_1551,spring_faces,3.1.5,60.08450091846241,
condition files/Stage0a.xlsx,0a,beta,none,g,"['h', 'g']","['Chess', 'Go']","[0, 0.5]","[0, 0]",1,0,0,0,0,0,0,1,1,1,,,,,,,,,,,,,,,,,,,,,,,,,,,,,,,,,,,,,,,,,,,,,,,,,,,,,,,,,,,,,,,218.35598751699945,None,218.35598751699945,None,218.35598751699945,None,h,0,3.5507880949990067,219.88926430300126,None,219.88926430300126,None,219.88926430300126,None,223.50554475800163,None,223.50554475800163,None,223.50554475800163,None,223.50554475800163,None,,,,,,,,,,,,,,,,,,,,,,,,,,,,,,,,,,,,,,,,,,,,001,22,2020_Jan_28_1551,spring_faces,3.1.5,60.08450091846241,
condition files/Stage0a.xlsx,0a,alpha,none,h,"['h', 'g']","['Chess', 'Go']","[0, 0.5]","[0, 0]",1,0,0,1,1,1,0,0,0,0,,,,,,,,,,,,,,,,,,,,,,,,,,,,,,,,,,,,,,,,,,,,,,,,,,,,,,,,,,,,,,,225.4894437490002,None,225.4894437490002,None,225.4894437490002,None,h,1,1.1054957189990091,227.0226022070019,None,227.0226022070019,None,227.0226022070019,None,228.18939641500037,None,228.18939641500037,None,228.18939641500037,None,228.18939641500037,None,,,,,,,,,,,,,,,,,,,,,,,,,,,,,,,,,,,,,,,,,,,,001,22,2020_Jan_28_1551,spring_faces,3.1.5,60.08450091846241,
condition files/Stage0a.xlsx,0a,beta,none,g,"['h', 'g']","['Chess', 'Go']","[0, 0.5]","[0, 0]",1,0,0,1,1,1,0,1,1,1,,,,,,,,,,,,,,,,,,,,,,,,,,,,,,,,,,,,,,,,,,,,,,,,,,,,,,,,,,,,,,,230.15585713600012,None,230.15585713600012,None,230.15585713600012,None,g,1,0.6621416229972965,231.6899712910017,None,231.6899712910017,None,231.6899712910017,None,232.40606724300233,None,232.40606724300233,None,232.40606724300233,None,232.40606724300233,None,,,,,,,,,,,,,,,,,,,,,,,,,,,,,,,,,,,,,,,,,,,,001,22,2020_Jan_28_1551,spring_faces,3.1.5,60.08450091846241,
condition files/Stage0a.xlsx,0a,beta,none,g,"['h', 'g']","['Chess', 'Go']","[0, 0.5]","[0, 0]",1,0,0,2,2,2,0,0,0,1,,,,,,,,,,,,,,,,,,,,,,,,,,,,,,,,,,,,,,,,,,,,,,,,,,,,,,,,,,,,,,,234.38923615300155,None,234.38923615300155,None,234.38923615300155,None,g,1,0.6853977930004476,235.92267099200035,None,235.92267099200035,None,235.92267099200035,None,236.6723946230013,None,236.6723946230013,None,236.6723946230013,None,236.6723946230013,None,,,,,,,,,,,,,,,,,,,,,,,,,,,,,,,,,,,,,,,,,,,,001,22,2020_Jan_28_1551,spring_faces,3.1.5,60.08450091846241,
condition files/Stage0a.xlsx,0a,alpha,none,h,"['h', 'g']","['Chess', 'Go']","[0, 0.5]","[0, 0]",1,0,0,2,2,2,0,1,1,0,,,,,,,,,,,,,,,,,,,,,,,,,,,,,,,,,,,,,,,,,,,,,,,,,,,,,,,,,,,,,,,238.63911700300014,None,238.63911700300014,None,238.63911700300014,None,h,1,0.5154790359993058,240.1725925899991,None,240.1725925899991,None,240.1725925899991,None,240.7388979999996,None,240.7388979999996,None,240.7388979999996,None,240.7388979999996,None,,,,,,,,,,,,,,,,,,,,,,,,,,,,,,,,,,,,,,,,,,,,001,22,2020_Jan_28_1551,spring_faces,3.1.5,60.08450091846241,
condition files/Stage0a.xlsx,0a,alpha,none,h,"['h', 'g']","['Chess', 'Go']","[0, 0.5]","[0, 0]",1,0,0,3,3,3,0,0,0,0,,,,,,,,,,,,,,,,,,,,,,,,,,,,,,,,,,,,,,,,,,,,,,,,,,,,,,,,,,,,,,,242.72270709499935,None,242.72270709499935,None,242.72270709499935,None,h,1,1.0720655229997647,244.256028445001,None,244.256028445001,None,244.256028445001,None,245.3896625840025,None,245.3896625840025,None,245.3896625840025,None,245.3896625840025,None,,,,,,,,,,,,,,,,,,,,,,,,,,,,,,,,,,,,,,,,,,,,001,22,2020_Jan_28_1551,spring_faces,3.1.5,60.08450091846241,
condition files/Stage0a.xlsx,0a,beta,none,g,"['h', 'g']","['Chess', 'Go']","[0, 0.5]","[0, 0]",1,0,0,3,3,3,0,1,1,1,,,,,,,,,,,,,,,,,,,,,,,,,,,,,,,,,,,,,,,,,,,,,,,,,,,,,,,,,,,,,,,247.3562039460012,None,247.3562039460012,None,247.3562039460012,None,g,1,0.6144653019982798,248.8896172829991,None,248.8896172829991,None,248.8896172829991,None,249.5559504110024,None,249.5559504110024,None,249.5559504110024,None,249.5559504110024,None,,,,,,,,,,,,,,,,,,,,,,,,,,,,,,,,,,,,,,,,,,,,001,22,2020_Jan_28_1551,spring_faces,3.1.5,60.08450091846241,
condition files/Stage0a.xlsx,0a,beta,none,g,"['h', 'g']","['Chess', 'Go']","[0, 0.5]","[0, 0]",1,0,0,4,4,4,0,0,0,1,,,,,,,,,,,,,,,,,,,,,,,,,,,,,,,,,,,,,,,,,,,,,,,,,,,,,,,,,,,,,,,251.53936859500027,None,251.53936859500027,None,251.53936859500027,None,g,1,0.5275402180013771,253.07254250000187,None,253.07254250000187,None,253.07254250000187,None,253.6562411039995,None,253.6562411039995,None,253.6562411039995,None,253.6562411039995,None,,,,,,,,,,,,,,,,,,,,,,,,,,,,,,,,,,,,,,,,,,,,001,22,2020_Jan_28_1551,spring_faces,3.1.5,60.08450091846241,
condition files/Stage0a.xlsx,0a,alpha,none,h,"['h', 'g']","['Chess', 'Go']","[0, 0.5]","[0, 0]",1,0,0,4,4,4,0,1,1,0,,,,,,,,,,,,,,,,,,,,,,,,,,,,,,,,,,,,,,,,,,,,,,,,,,,,,,,,,,,,,,,255.62257796700214,None,255.62257796700214,None,255.62257796700214,None,h,1,0.4124945260009554,257.1555706170002,None,257.1555706170002,None,257.1555706170002,None,257.62216919500133,None,257.62216919500133,None,257.62216919500133,None,257.62216919500133,None,,,,,,,,,,,,,,,,,,,,,,,,,,,,,,,,,,,,,,,,,,,,001,22,2020_Jan_28_1551,spring_faces,3.1.5,60.08450091846241,
condition files/Stage0a.xlsx,0a,beta,none,g,"['h', 'g']","['Chess', 'Go']","[0, 0.5]","[0, 0]",1,0,0,5,5,5,0,0,0,1,,,,,,,,,,,,,,,,,,,,,,,,,,,,,,,,,,,,,,,,,,,,,,,,,,,,,,,,,,,,,,,259.60578018900196,None,259.60578018900196,None,259.60578018900196,None,g,1,0.5727424870019604,261.1393482610001,None,261.1393482610001,None,261.1393482610001,None,261.77255831500224,None,261.77255831500224,None,261.77255831500224,None,261.77255831500224,None,,,,,,,,,,,,,,,,,,,,,,,,,,,,,,,,,,,,,,,,,,,,001,22,2020_Jan_28_1551,spring_faces,3.1.5,60.08450091846241,
condition files/Stage0a.xlsx,0a,alpha,none,h,"['h', 'g']","['Chess', 'Go']","[0, 0.5]","[0, 0]",1,0,0,5,5,5,0,1,1,0,,,,,,,,,,,,,,,,,,,,,,,,,,,,,,,,,,,,,,,,,,,,,,,,,,,,,,,,,,,,,,,263.7383604380011,None,263.7383604380011,None,263.7383604380011,None,h,1,0.3112831299986283,265.27276689800055,None,265.27276689800055,None,265.27276689800055,None,265.63955903700116,None,265.63955903700116,None,265.63955903700116,None,265.63955903700116,None,,,,,,,,,,,,,,,,,,,,,,,,,,,,,,,,,,,,,,,,,,,,001,22,2020_Jan_28_1551,spring_faces,3.1.5,60.08450091846241,
condition files/Stage0b_1.xlsx,0b,alpha,none,h,"['h', 'g']","['Chess', 'Go']","[-0.15, 0.5]","[0.15, 0.5]",1,0,0,6,6,6,0,0,0,0,,,,,,,,,,,,,,,,,,,,,,,,,,,,,,,,,,,,,,,,,,,,,,,,,,,,,,,,,,,,,,,267.62237870199897,None,267.62237870199897,None,267.62237870199897,None,h,1,0.6518456209996657,269.1562241970023,None,269.1562241970023,None,269.1562241970023,None,269.8728235490016,None,269.8728235490016,None,269.8728235490016,None,269.8728235490016,None,,,,,,,,,,,,,,,,,,,,,,,,,,,,,,,,,,,,,,,,,,,,001,22,2020_Jan_28_1551,spring_faces,3.1.5,60.08450091846241,
condition files/Stage0b_1.xlsx,0b,none,beta,g,"['h', 'g']","['Chess', 'Go']","[-0.15, 0.5]","[0.15, 0.5]",0,1,0,6,6,6,0,1,1,1,,,,,,,,,,,,,,,,,,,,,,,,,,,,,,,,,,,,,,,,,,,,,,,,,,,,,,,,,,,,,,,271.8388256690014,None,271.8388256690014,None,271.8388256690014,None,g,1,0.4620079100022849,273.37802165800167,None,273.37802165800167,None,273.37802165800167,None,273.9227794770013,None,273.9227794770013,None,273.9227794770013,None,273.9227794770013,None,,,,,,,,,,,,,,,,,,,,,,,,,,,,,,,,,,,,,,,,,,,,001,22,2020_Jan_28_1551,spring_faces,3.1.5,60.08450091846241,
condition files/Stage0b_2.xlsx,0b,none,alpha,h,"['h', 'g']","['Chess', 'Go']","[-0.15, 0.5]","[0.15, 0.5]",0,1,0,7,7,7,0,0,0,0,,,,,,,,,,,,,,,,,,,,,,,,,,,,,,,,,,,,,,,,,,,,,,,,,,,,,,,,,,,,,,,275.88935265799955,None,275.88935265799955,None,275.88935265799955,None,h,1,0.40172907300075167,277.42231746000107,None,277.42231746000107,None,277.42231746000107,None,277.88902486400184,None,277.88902486400184,None,277.88902486400184,None,277.88902486400184,None,,,,,,,,,,,,,,,,,,,,,,,,,,,,,,,,,,,,,,,,,,,,001,22,2020_Jan_28_1551,spring_faces,3.1.5,60.08450091846241,
condition files/Stage0b_2.xlsx,0b,beta,none,g,"['h', 'g']","['Chess', 'Go']","[-0.15, 0.5]","[0.15, 0.5]",1,0,0,7,7,7,0,1,1,1,,,,,,,,,,,,,,,,,,,,,,,,,,,,,,,,,,,,,,,,,,,,,,,,,,,,,,,,,,,,,,,279.8557479859992,None,279.8557479859992,None,279.8557479859992,None,g,1,0.40234613900247496,281.40572171500025,None,281.40572171500025,None,281.40572171500025,None,281.8750778780013,None,281.8750778780013,None,281.8750778780013,None,281.8750778780013,None,,,,,,,,,,,,,,,,,,,,,,,,,,,,,,,,,,,,,,,,,,,,001,22,2020_Jan_28_1551,spring_faces,3.1.5,60.08450091846241,
condition files/Stage0b_1.xlsx,0b,none,beta,g,"['h', 'g']","['Chess', 'Go']","[-0.15, 0.5]","[0.15, 0.5]",0,1,0,8,8,8,0,0,0,1,,,,,,,,,,,,,,,,,,,,,,,,,,,,,,,,,,,,,,,,,,,,,,,,,,,,,,,,,,,,,,,283.855837602001,None,283.855837602001,None,283.855837602001,None,g,1,0.4821273880006629,285.4059770519998,None,285.4059770519998,None,285.4059770519998,None,285.93877499500013,None,285.93877499500013,None,285.93877499500013,None,285.93877499500013,None,,,,,,,,,,,,,,,,,,,,,,,,,,,,,,,,,,,,,,,,,,,,001,22,2020_Jan_28_1551,spring_faces,3.1.5,60.08450091846241,
condition files/Stage0b_1.xlsx,0b,alpha,none,h,"['h', 'g']","['Chess', 'Go']","[-0.15, 0.5]","[0.15, 0.5]",1,0,0,8,8,8,0,1,1,0,,,,,,,,,,,,,,,,,,,,,,,,,,,,,,,,,,,,,,,,,,,,,,,,,,,,,,,,,,,,,,,287.9056645290002,None,287.9056645290002,None,287.9056645290002,None,h,1,0.5905818210012512,289.4414986330012,None,289.4414986330012,None,289.4414986330012,None,290.0896133999995,None,290.0896133999995,None,290.0896133999995,None,290.0896133999995,None,,,,,,,,,,,,,,,,,,,,,,,,,,,,,,,,,,,,,,,,,,,,001,22,2020_Jan_28_1551,spring_faces,3.1.5,60.08450091846241,
condition files/Stage0b_2.xlsx,0b,beta,none,g,"['h', 'g']","['Chess', 'Go']","[-0.15, 0.5]","[0.15, 0.5]",1,0,0,9,9,9,0,0,0,1,,,,,,,,,,,,,,,,,,,,,,,,,,,,,,,,,,,,,,,,,,,,,,,,,,,,,,,,,,,,,,,292.0723777460007,None,292.0723777460007,None,292.0723777460007,None,g,1,0.6500161809999554,293.6061021900023,None,293.6061021900023,None,293.6061021900023,None,294.30544625400216,None,294.30544625400216,None,294.30544625400216,None,294.30544625400216,None,,,,,,,,,,,,,,,,,,,,,,,,,,,,,,,,,,,,,,,,,,,,001,22,2020_Jan_28_1551,spring_faces,3.1.5,60.08450091846241,
condition files/Stage0b_2.xlsx,0b,none,alpha,h,"['h', 'g']","['Chess', 'Go']","[-0.15, 0.5]","[0.15, 0.5]",0,1,0,9,9,9,0,1,1,0,,,,,,,,,,,,,,,,,,,,,,,,,,,,,,,,,,,,,,,,,,,,,,,,,,,,,,,,,,,,,,,296.27240630800225,None,296.27240630800225,None,296.27240630800225,None,h,1,0.4478622370006633,297.80818664400067,None,297.80818664400067,None,297.80818664400067,None,298.31046941599925,None,298.31046941599925,None,298.31046941599925,None,298.31046941599925,None,,,,,,,,,,,,,,,,,,,,,,,,,,,,,,,,,,,,,,,,,,,,001,22,2020_Jan_28_1551,spring_faces,3.1.5,60.08450091846241,
condition files/Stage0b_1.xlsx,0b,none,beta,g,"['h', 'g']","['Chess', 'Go']","[-0.15, 0.5]","[0.15, 0.5]",0,1,0,10,10,10,0,0,0,1,,,,,,,,,,,,,,,,,,,,,,,,,,,,,,,,,,,,,,,,,,,,,,,,,,,,,,,,,,,,,,,300.2891701440021,None,300.2891701440021,None,300.2891701440021,None,g,1,0.5615792669996154,301.82248593500117,None,301.82248593500117,None,301.82248593500117,None,302.438682390999,None,302.438682390999,None,302.438682390999,None,302.438682390999,None,,,,,,,,,,,,,,,,,,,,,,,,,,,,,,,,,,,,,,,,,,,,001,22,2020_Jan_28_1551,spring_faces,3.1.5,60.08450091846241,
condition files/Stage0b_1.xlsx,0b,alpha,none,h,"['h', 'g']","['Chess', 'Go']","[-0.15, 0.5]","[0.15, 0.5]",1,0,0,10,10,10,0,1,1,0,,,,,,,,,,,,,,,,,,,,,,,,,,,,,,,,,,,,,,,,,,,,,,,,,,,,,,,,,,,,,,,304.40525391900155,None,304.40525391900155,None,304.40525391900155,None,h,1,0.5706237249978585,305.94146357000136,None,305.94146357000136,None,305.94146357000136,None,306.5757547760004,None,306.5757547760004,None,306.5757547760004,None,306.5757547760004,None,,,,,,,,,,,,,,,,,,,,,,,,,,,,,,,,,,,,,,,,,,,,001,22,2020_Jan_28_1551,spring_faces,3.1.5,60.08450091846241,
condition files/Stage0b_2.xlsx,0b,beta,none,g,"['h', 'g']","['Chess', 'Go']","[-0.15, 0.5]","[0.15, 0.5]",1,0,0,11,11,11,0,0,0,1,,,,,,,,,,,,,,,,,,,,,,,,,,,,,,,,,,,,,,,,,,,,,,,,,,,,,,,,,,,,,,,308.5562833420008,None,308.5562833420008,None,308.5562833420008,None,g,1,0.5032390390006185,310.0888868229995,None,310.0888868229995,None,310.0888868229995,None,310.6557728040025,None,310.6557728040025,None,310.6557728040025,None,310.6557728040025,None,,,,,,,,,,,,,,,,,,,,,,,,,,,,,,,,,,,,,,,,,,,,001,22,2020_Jan_28_1551,spring_faces,3.1.5,60.08450091846241,
condition files/Stage0b_2.xlsx,0b,none,alpha,h,"['h', 'g']","['Chess', 'Go']","[-0.15, 0.5]","[0.15, 0.5]",0,1,0,11,11,11,0,1,1,0,,,,,,,,,,,,,,,,,,,,,,,,,,,,,,,,,,,,,,,,,,,,,,,,,,,,,,,,,,,,,,,312.62241913600155,None,312.62241913600155,None,312.62241913600155,None,h,1,0.36986311199871125,314.15822858699903,None,314.15822858699903,None,314.15822858699903,None,314.5928487750025,None,314.5928487750025,None,314.5928487750025,None,314.5928487750025,None,,,,,,,,,,,,,,,,,,,,,,,,,,,,,,,,,,,,,,,,,,,,001,22,2020_Jan_28_1551,spring_faces,3.1.5,60.08450091846241,
condition files/Stage0c_1.xlsx,0c,phi,beta,g,"['h', 'g']","['Chess', 'Go']","[-0.15, 0.5]","[0.15, 0.5]",1,1,0,12,12,12,0,0,0,3,,,,,,,,,,,,,,,,,,,,,,,,,,,,,,,,,,,,,,,,,,,,,,,,,,,,,,,,,,,,,,,316.5728062320013,None,316.5728062320013,None,316.5728062320013,None,g,1,1.5900703580009576,318.1060166919997,None,318.1060166919997,None,318.1060166919997,None,319.7556314180001,None,319.7556314180001,None,319.7556314180001,None,319.7556314180001,None,,,,,,,,,,,,,,,,,,,,,,,,,,,,,,,,,,,,,,,,,,,,001,22,2020_Jan_28_1551,spring_faces,3.1.5,60.08450091846241,
condition files/Stage0c_1.xlsx,0c,alpha,phi,h,"['h', 'g']","['Chess', 'Go']","[-0.15, 0.5]","[0.15, 0.5]",1,1,0,12,12,12,0,1,1,1,,,,,,,,,,,,,,,,,,,,,,,,,,,,,,,,,,,,,,,,,,,,,,,,,,,,,,,,,,,,,,,321.72237080800187,None,321.72237080800187,None,321.72237080800187,None,h,1,0.8400903970032232,323.2560283999992,None,323.2560283999992,None,323.2560283999992,None,324.15611384099975,None,324.15611384099975,None,324.15611384099975,None,324.15611384099975,None,,,,,,,,,,,,,,,,,,,,,,,,,,,,,,,,,,,,,,,,,,,,001,22,2020_Jan_28_1551,spring_faces,3.1.5,60.08450091846241,
condition files/Stage0c_1.xlsx,0c,beta,theta,g,"['h', 'g']","['Chess', 'Go']","[-0.15, 0.5]","[0.15, 0.5]",1,1,0,12,12,12,0,2,2,2,,,,,,,,,,,,,,,,,,,,,,,,,,,,,,,,,,,,,,,,,,,,,,,,,,,,,,,,,,,,,,,326.12206999400223,None,326.12206999400223,None,326.12206999400223,None,g,1,0.8559775890025776,327.656140719002,None,327.656140719002,None,327.656140719002,None,328.5730475640012,None,328.5730475640012,None,328.5730475640012,None,328.5730475640012,None,,,,,,,,,,,,,,,,,,,,,,,,,,,,,,,,,,,,,,,,,,,,001,22,2020_Jan_28_1551,spring_faces,3.1.5,60.08450091846241,
condition files/Stage0c_1.xlsx,0c,theta,alpha,h,"['h', 'g']","['Chess', 'Go']","[-0.15, 0.5]","[0.15, 0.5]",1,1,0,12,12,12,0,3,3,0,,,,,,,,,,,,,,,,,,,,,,,,,,,,,,,,,,,,,,,,,,,,,,,,,,,,,,,,,,,,,,,330.5391534030023,None,330.5391534030023,None,330.5391534030023,None,h,1,0.5197709419990133,332.0723087860024,None,332.0723087860024,None,332.0723087860024,None,332.65600947200073,None,332.65600947200073,None,332.65600947200073,None,332.65600947200073,None,,,,,,,,,,,,,,,,,,,,,,,,,,,,,,,,,,,,,,,,,,,,001,22,2020_Jan_28_1551,spring_faces,3.1.5,60.08450091846241,
condition files/Stage0c_2.xlsx,0c,alpha,theta,h,"['h', 'g']","['Chess', 'Go']","[-0.15, 0.5]","[0.15, 0.5]",1,1,0,13,13,13,0,0,0,0,,,,,,,,,,,,,,,,,,,,,,,,,,,,,,,,,,,,,,,,,,,,,,,,,,,,,,,,,,,,,,,334.6391435860023,None,334.6391435860023,None,334.6391435860023,None,h,1,0.8514016000008269,336.17264430400246,None,336.17264430400246,None,336.17264430400246,None,337.0753181990003,None,337.0753181990003,None,337.0753181990003,None,337.0753181990003,None,,,,,,,,,,,,,,,,,,,,,,,,,,,,,,,,,,,,,,,,,,,,001,22,2020_Jan_28_1551,spring_faces,3.1.5,60.08450091846241,
condition files/Stage0c_2.xlsx,0c,beta,phi,g,"['h', 'g']","['Chess', 'Go']","[-0.15, 0.5]","[0.15, 0.5]",1,1,0,13,13,13,0,1,1,3,,,,,,,,,,,,,,,,,,,,,,,,,,,,,,,,,,,,,,,,,,,,,,,,,,,,,,,,,,,,,,,339.05577119100053,None,339.05577119100053,None,339.05577119100053,None,g,1,0.8186308999975154,340.58944431200143,None,340.58944431200143,None,340.58944431200143,None,341.47261570499904,None,341.47261570499904,None,341.47261570499904,None,341.47261570499904,None,,,,,,,,,,,,,,,,,,,,,,,,,,,,,,,,,,,,,,,,,,,,001,22,2020_Jan_28_1551,spring_faces,3.1.5,60.08450091846241,
condition files/Stage0c_2.xlsx,0c,phi,alpha,h,"['h', 'g']","['Chess', 'Go']","[-0.15, 0.5]","[0.15, 0.5]",1,1,0,13,13,13,0,2,2,1,,,,,,,,,,,,,,,,,,,,,,,,,,,,,,,,,,,,,,,,,,,,,,,,,,,,,,,,,,,,,,,343.43925716599915,None,343.43925716599915,None,343.43925716599915,None,h,1,0.5798800060001668,344.9721999700014,None,344.9721999700014,None,344.9721999700014,None,345.6059990930007,None,345.6059990930007,None,345.6059990930007,None,345.6059990930007,None,,,,,,,,,,,,,,,,,,,,,,,,,,,,,,,,,,,,,,,,,,,,001,22,2020_Jan_28_1551,spring_faces,3.1.5,60.08450091846241,
condition files/Stage0c_2.xlsx,0c,theta,beta,g,"['h', 'g']","['Chess', 'Go']","[-0.15, 0.5]","[0.15, 0.5]",1,1,0,13,13,13,0,3,3,2,,,,,,,,,,,,,,,,,,,,,,,,,,,,,,,,,,,,,,,,,,,,,,,,,,,,,,,,,,,,,,,347.572444286001,None,347.572444286001,None,347.572444286001,None,g,1,0.7505241680009931,349.10556744100177,None,349.10556744100177,None,349.10556744100177,None,349.906029435002,None,349.906029435002,None,349.906029435002,None,349.906029435002,None,,,,,,,,,,,,,,,,,,,,,,,,,,,,,,,,,,,,,,,,,,,,001,22,2020_Jan_28_1551,spring_faces,3.1.5,60.08450091846241,
condition files/Stage0c_1.xlsx,0c,beta,theta,g,"['h', 'g']","['Chess', 'Go']","[-0.15, 0.5]","[0.15, 0.5]",1,1,0,14,14,14,0,0,0,2,,,,,,,,,,,,,,,,,,,,,,,,,,,,,,,,,,,,,,,,,,,,,,,,,,,,,,,,,,,,,,,351.8886487710006,None,351.8886487710006,None,351.8886487710006,None,g,1,0.7212676429990097,353.4228323110001,None,353.4228323110001,None,353.4228323110001,None,354.1910203180014,None,354.1910203180014,None,354.1910203180014,None,354.1910203180014,None,,,,,,,,,,,,,,,,,,,,,,,,,,,,,,,,,,,,,,,,,,,,001,22,2020_Jan_28_1551,spring_faces,3.1.5,60.08450091846241,
condition files/Stage0c_1.xlsx,0c,phi,beta,g,"['h', 'g']","['Chess', 'Go']","[-0.15, 0.5]","[0.15, 0.5]",1,1,0,14,14,14,0,1,1,3,,,,,,,,,,,,,,,,,,,,,,,,,,,,,,,,,,,,,,,,,,,,,,,,,,,,,,,,,,,,,,,356.1725062350015,None,356.1725062350015,None,356.1725062350015,None,g,1,1.4783211530011613,357.7057327250004,None,357.7057327250004,None,357.7057327250004,None,359.2244017140001,None,359.2244017140001,None,359.2244017140001,None,359.2244017140001,None,,,,,,,,,,,,,,,,,,,,,,,,,,,,,,,,,,,,,,,,,,,,001,22,2020_Jan_28_1551,spring_faces,3.1.5,60.08450091846241,
condition files/Stage0c_1.xlsx,0c,theta,alpha,h,"['h', 'g']","['Chess', 'Go']","[-0.15, 0.5]","[0.15, 0.5]",1,1,0,14,14,14,0,2,2,0,,,,,,,,,,,,,,,,,,,,,,,,,,,,,,,,,,,,,,,,,,,,,,,,,,,,,,,,,,,,,,,361.2057874050006,None,361.2057874050006,None,361.2057874050006,None,h,1,0.6685596100032853,362.73950936500114,None,362.73950936500114,None,362.73950936500114,None,363.4728063930015,None,363.4728063930015,None,363.4728063930015,None,363.4728063930015,None,,,,,,,,,,,,,,,,,,,,,,,,,,,,,,,,,,,,,,,,,,,,001,22,2020_Jan_28_1551,spring_faces,3.1.5,60.08450091846241,
condition files/Stage0c_1.xlsx,0c,alpha,phi,h,"['h', 'g']","['Chess', 'Go']","[-0.15, 0.5]","[0.15, 0.5]",1,1,0,14,14,14,0,3,3,1,,,,,,,,,,,,,,,,,,,,,,,,,,,,,,,,,,,,,,,,,,,,,,,,,,,,,,,,,,,,,,,365.4389331679995,None,365.4389331679995,None,365.4389331679995,None,g,0,1.203462158999173,366.9726239640004,None,366.9726239640004,None,366.9726239640004,None,368.22567906300173,None,368.22567906300173,None,368.22567906300173,None,368.22567906300173,None,,,,,,,,,,,,,,,,,,,,,,,,,,,,,,,,,,,,,,,,,,,,001,22,2020_Jan_28_1551,spring_faces,3.1.5,60.08450091846241,
condition files/Stage0c_2.xlsx,0c,theta,beta,g,"['h', 'g']","['Chess', 'Go']","[-0.15, 0.5]","[0.15, 0.5]",1,1,0,15,15,15,0,0,0,2,,,,,,,,,,,,,,,,,,,,,,,,,,,,,,,,,,,,,,,,,,,,,,,,,,,,,,,,,,,,,,,370.22313679700164,None,370.22313679700164,None,370.22313679700164,None,g,1,0.6451219510017836,371.73888149699997,None,371.73888149699997,None,371.73888149699997,None,372.4395132190002,None,372.4395132190002,None,372.4395132190002,None,372.4395132190002,None,,,,,,,,,,,,,,,,,,,,,,,,,,,,,,,,,,,,,,,,,,,,001,22,2020_Jan_28_1551,spring_faces,3.1.5,60.08450091846241,
condition files/Stage0c_2.xlsx,0c,beta,phi,g,"['h', 'g']","['Chess', 'Go']","[-0.15, 0.5]","[0.15, 0.5]",1,1,0,15,15,15,0,1,1,3,,,,,,,,,,,,,,,,,,,,,,,,,,,,,,,,,,,,,,,,,,,,,,,,,,,,,,,,,,,,,,,374.40594201800195,None,374.40594201800195,None,374.40594201800195,None,g,1,0.8444397780003783,375.93965050300176,None,375.93965050300176,None,375.93965050300176,None,376.8232603610013,None,376.8232603610013,None,376.8232603610013,None,376.8232603610013,None,,,,,,,,,,,,,,,,,,,,,,,,,,,,,,,,,,,,,,,,,,,,001,22,2020_Jan_28_1551,spring_faces,3.1.5,60.08450091846241,
condition files/Stage0c_2.xlsx,0c,alpha,theta,h,"['h', 'g']","['Chess', 'Go']","[-0.15, 0.5]","[0.15, 0.5]",1,1,0,15,15,15,0,2,2,0,,,,,,,,,,,,,,,,,,,,,,,,,,,,,,,,,,,,,,,,,,,,,,,,,,,,,,,,,,,,,,,378.80575434500133,None,378.80575434500133,None,378.80575434500133,None,h,1,0.46063722100007,380.33943225700204,None,380.33943225700204,None,380.33943225700204,None,380.8555585899994,None,380.8555585899994,None,380.8555585899994,None,380.8555585899994,None,,,,,,,,,,,,,,,,,,,,,,,,,,,,,,,,,,,,,,,,,,,,001,22,2020_Jan_28_1551,spring_faces,3.1.5,60.08450091846241,
condition files/Stage0c_2.xlsx,0c,phi,alpha,h,"['h', 'g']","['Chess', 'Go']","[-0.15, 0.5]","[0.15, 0.5]",1,1,0,15,15,15,0,3,3,1,,,,,,,,,,,,,,,,,,,,,,,,,,,,,,,,,,,,,,,,,,,,,,,,,,,,,,,,,,,,,,,382.8223493559999,None,382.8223493559999,None,382.8223493559999,None,h,1,0.5880139889995917,384.3560785059999,None,384.3560785059999,None,384.3560785059999,None,384.98875652599963,None,384.98875652599963,None,384.98875652599963,None,384.98875652599963,None,,,,,,,,,,,,,,,,,,,,,,,,,,,,,,,,,,,,,,,,,,,,001,22,2020_Jan_28_1551,spring_faces,3.1.5,60.08450091846241,
condition files/Stage0c_1.xlsx,0c,theta,alpha,h,"['h', 'g']","['Chess', 'Go']","[-0.15, 0.5]","[0.15, 0.5]",1,1,0,16,16,16,0,0,0,0,,,,,,,,,,,,,,,,,,,,,,,,,,,,,,,,,,,,,,,,,,,,,,,,,,,,,,,,,,,,,,,386.98883691300216,None,386.98883691300216,None,386.98883691300216,None,h,1,0.5652323680005793,388.52287169100236,None,388.52287169100236,None,388.52287169100236,None,389.1248436900023,None,389.1248436900023,None,389.1248436900023,None,389.1248436900023,None,,,,,,,,,,,,,,,,,,,,,,,,,,,,,,,,,,,,,,,,,,,,001,22,2020_Jan_28_1551,spring_faces,3.1.5,60.08450091846241,
condition files/Stage0c_1.xlsx,0c,phi,beta,g,"['h', 'g']","['Chess', 'Go']","[-0.15, 0.5]","[0.15, 0.5]",1,1,0,16,16,16,0,1,1,3,,,,,,,,,,,,,,,,,,,,,,,,,,,,,,,,,,,,,,,,,,,,,,,,,,,,,,,,,,,,,,,391.10501675900014,None,391.10501675900014,None,391.10501675900014,None,g,1,0.6889647429998149,392.6391151880016,None,392.6391151880016,None,392.6391151880016,None,393.3892226179996,None,393.3892226179996,None,393.3892226179996,None,393.3892226179996,None,,,,,,,,,,,,,,,,,,,,,,,,,,,,,,,,,,,,,,,,,,,,001,22,2020_Jan_28_1551,spring_faces,3.1.5,60.08450091846241,
condition files/Stage0c_1.xlsx,0c,alpha,phi,h,"['h', 'g']","['Chess', 'Go']","[-0.15, 0.5]","[0.15, 0.5]",1,1,0,16,16,16,0,2,2,1,,,,,,,,,,,,,,,,,,,,,,,,,,,,,,,,,,,,,,,,,,,,,,,,,,,,,,,,,,,,,,,395.35528316600175,None,395.35528316600175,None,395.35528316600175,None,h,1,0.5668269380003039,396.889195284999,None,396.889195284999,None,396.889195284999,None,397.52275498400195,None,397.52275498400195,None,397.52275498400195,None,397.52275498400195,None,,,,,,,,,,,,,,,,,,,,,,,,,,,,,,,,,,,,,,,,,,,,001,22,2020_Jan_28_1551,spring_faces,3.1.5,60.08450091846241,
condition files/Stage0c_1.xlsx,0c,beta,theta,g,"['h', 'g']","['Chess', 'Go']","[-0.15, 0.5]","[0.15, 0.5]",1,1,0,16,16,16,0,3,3,2,,,,,,,,,,,,,,,,,,,,,,,,,,,,,,,,,,,,,,,,,,,,,,,,,,,,,,,,,,,,,,,399.4891194459997,None,399.4891194459997,None,399.4891194459997,None,g,1,0.5137237230010214,401.0223138680012,None,401.0223138680012,None,401.0223138680012,None,401.5891640030022,None,401.5891640030022,None,401.5891640030022,None,401.5891640030022,None,,,,,,,,,,,,,,,,,,,,,,,,,,,,,,,,,,,,,,,,,,,,001,22,2020_Jan_28_1551,spring_faces,3.1.5,60.08450091846241,
condition files/Stage0c_2.xlsx,0c,alpha,theta,h,"['h', 'g']","['Chess', 'Go']","[-0.15, 0.5]","[0.15, 0.5]",1,1,0,17,17,17,0,0,0,0,,,,,,,,,,,,,,,,,,,,,,,,,,,,,,,,,,,,,,,,,,,,,,,,,,,,,,,,,,,,,,,403.5726652000012,None,403.5726652000012,None,403.5726652000012,None,h,1,0.542029870000988,405.1061095570003,None,405.1061095570003,None,405.1061095570003,None,405.7060102739997,None,405.7060102739997,None,405.7060102739997,None,405.7060102739997,None,,,,,,,,,,,,,,,,,,,,,,,,,,,,,,,,,,,,,,,,,,,,001,22,2020_Jan_28_1551,spring_faces,3.1.5,60.08450091846241,
condition files/Stage0c_2.xlsx,0c,beta,phi,g,"['h', 'g']","['Chess', 'Go']","[-0.15, 0.5]","[0.15, 0.5]",1,1,0,17,17,17,0,1,1,3,,,,,,,,,,,,,,,,,,,,,,,,,,,,,,,,,,,,,,,,,,,,,,,,,,,,,,,,,,,,,,,407.67230972000107,None,407.67230972000107,None,407.67230972000107,None,g,1,0.6664955300002475,409.20560076900074,None,409.20560076900074,None,409.20560076900074,None,409.9225810099997,None,409.9225810099997,None,409.9225810099997,None,409.9225810099997,None,,,,,,,,,,,,,,,,,,,,,,,,,,,,,,,,,,,,,,,,,,,,001,22,2020_Jan_28_1551,spring_faces,3.1.5,60.08450091846241,
condition files/Stage0c_2.xlsx,0c,phi,alpha,h,"['h', 'g']","['Chess', 'Go']","[-0.15, 0.5]","[0.15, 0.5]",1,1,0,17,17,17,0,2,2,1,,,,,,,,,,,,,,,,,,,,,,,,,,,,,,,,,,,,,,,,,,,,,,,,,,,,,,,,,,,,,,,411.8888759420006,None,411.8888759420006,None,411.8888759420006,None,h,1,0.6254671809983847,413.42265647599925,None,413.42265647599925,None,413.42265647599925,None,414.105848064999,None,414.105848064999,None,414.105848064999,None,414.105848064999,None,,,,,,,,,,,,,,,,,,,,,,,,,,,,,,,,,,,,,,,,,,,,001,22,2020_Jan_28_1551,spring_faces,3.1.5,60.08450091846241,
condition files/Stage0c_2.xlsx,0c,theta,beta,g,"['h', 'g']","['Chess', 'Go']","[-0.15, 0.5]","[0.15, 0.5]",1,1,0,17,17,17,0,3,3,2,,,,,,,,,,,,,,,,,,,,,,,,,,,,,,,,,,,,,,,,,,,,,,,,,,,,,,,,,,,,,,,416.0724612410013,None,416.0724612410013,None,416.0724612410013,None,g,1,0.47443570799805457,417.60567429500225,None,417.60567429500225,None,417.60567429500225,None,418.1390841499997,None,418.1390841499997,None,418.1390841499997,None,418.1390841499997,None,,,,,,,,,,,,,,,,,,,,,,,,,,,,,,,,,,,,,,,,,,,,001,22,2020_Jan_28_1551,spring_faces,3.1.5,60.08450091846241,
,,,,,,,,,,,,,,,,,,,,,,,,,,,,,,,,,,,,,,,,,,,,,,,,,,,,,,,,,,,,,,,,,,,,,,,,,,,,,,,,,,,,,,,,,,,,,,,,,,,,,,,,420.122643925999,None,space,6.670022883998172,425.12206288000016,None,,,,,,,,,,,,,,,,,,,,,,,,,,,,,,,,,,,,,,001,22,2020_Jan_28_1551,spring_faces,3.1.5,60.08450091846241,
condition files/Stage1_1.xlsx,,B1,T2,c,"['c', 'm']","['Clue', 'Monopoly']","[-0.15, 0.5]","[0.15, 0.5]",1,1,,,,,,,,,0,0,0,0,0,0,0,1,,,,,,,,,,,,,,,,,,,,,,,,,,,,,,,,,,,,,,,,,,,,,,,,,,,,,,,431.85622841700024,None,431.85622841700024,None,431.85622841700024,None,c,1,3.2827021420016536,433.3894060240018,None,433.3894060240018,None,433.3894060240018,None,436.7389033239997,None,436.7389033239997,None,436.7389033239997,None,436.7389033239997,None,,,,,,,425.12206288000016,None,,,,,,,,,,,,,,,,,,,,,,,,,,,,,,,,,,,,001,22,2020_Jan_28_1551,spring_faces,3.1.5,60.08450091846241,
condition files/Stage1_1.xlsx,,T1,B1,c,"['c', 'm']","['Clue', 'Monopoly']","[-0.15, 0.5]","[0.15, 0.5]",1,1,,,,,,,,,0,0,0,0,0,1,1,0,,,,,,,,,,,,,,,,,,,,,,,,,,,,,,,,,,,,,,,,,,,,,,,,,,,,,,,438.68906559800234,None,438.68906559800234,None,438.68906559800234,None,m,0,3.055209535999893,440.22494134700173,None,440.22494134700173,None,440.22494134700173,None,443.33908912100014,None,443.33908912100014,None,443.33908912100014,None,443.33908912100014,None,,,,,,,,,,,,,,,,,,,,,,,,,,,,,,,,,,,,,,,,,,,,001,22,2020_Jan_28_1551,spring_faces,3.1.5,60.08450091846241,
condition files/Stage1_1.xlsx,,B2,T1,m,"['c', 'm']","['Clue', 'Monopoly']","[-0.15, 0.5]","[0.15, 0.5]",1,1,,,,,,,,,0,0,0,0,0,2,2,2,,,,,,,,,,,,,,,,,,,,,,,,,,,,,,,,,,,,,,,,,,,,,,,,,,,,,,,445.30591938,None,445.30591938,None,445.30591938,None,c,0,5.367764871996769,446.8403183139999,None,446.8403183139999,None,446.8403183139999,None,452.2728479060024,None,452.2728479060024,None,452.2728479060024,None,452.2728479060024,None,,,,,,,,,,,,,,,,,,,,,,,,,,,,,,,,,,,,,,,,,,,,001,22,2020_Jan_28_1551,spring_faces,3.1.5,60.08450091846241,
condition files/Stage1_1.xlsx,,B4,T4,m,"['c', 'm']","['Clue', 'Monopoly']","[-0.15, 0.5]","[0.15, 0.5]",1,1,,,,,,,,,0,0,0,0,0,3,3,7,,,,,,,,,,,,,,,,,,,,,,,,,,,,,,,,,,,,,,,,,,,,,,,,,,,,,,,454.2386688680017,None,454.2386688680017,None,454.2386688680017,None,c,0,3.5232528500018816,455.77286887399896,None,455.77286887399896,None,455.77286887399896,None,459.355754643002,None,459.355754643002,None,459.355754643002,None,459.355754643002,None,,,,,,,,,,,,,,,,,,,,,,,,,,,,,,,,,,,,,,,,,,,,001,22,2020_Jan_28_1551,spring_faces,3.1.5,60.08450091846241,
condition files/Stage1_1.xlsx,,T2,B2,m,"['c', 'm']","['Clue', 'Monopoly']","[-0.15, 0.5]","[0.15, 0.5]",1,1,,,,,,,,,0,0,0,0,0,4,4,3,,,,,,,,,,,,,,,,,,,,,,,,,,,,,,,,,,,,,,,,,,,,,,,,,,,,,,,461.3225374040012,None,461.3225374040012,None,461.3225374040012,None,c,0,5.896032134998677,462.856024257002,None,462.856024257002,None,462.856024257002,None,468.80643676800173,None,468.80643676800173,None,468.80643676800173,None,468.80643676800173,None,,,,,,,,,,,,,,,,,,,,,,,,,,,,,,,,,,,,,,,,,,,,001,22,2020_Jan_28_1551,spring_faces,3.1.5,60.08450091846241,
condition files/Stage1_1.xlsx,,B3,T3,c,"['c', 'm']","['Clue', 'Monopoly']","[-0.15, 0.5]","[0.15, 0.5]",1,1,,,,,,,,,0,0,0,0,0,5,5,4,,,,,,,,,,,,,,,,,,,,,,,,,,,,,,,,,,,,,,,,,,,,,,,,,,,,,,,470.77254704000006,None,470.77254704000006,None,470.77254704000006,None,m,0,1.5819203159990138,472.30618288700134,None,472.30618288700134,None,472.30618288700134,None,473.9561649749994,None,473.9561649749994,None,473.9561649749994,None,473.9561649749994,None,,,,,,,,,,,,,,,,,,,,,,,,,,,,,,,,,,,,,,,,,,,,001,22,2020_Jan_28_1551,spring_faces,3.1.5,60.08450091846241,
condition files/Stage1_1.xlsx,,T4,B3,m,"['c', 'm']","['Clue', 'Monopoly']","[-0.15, 0.5]","[0.15, 0.5]",1,1,,,,,,,,,0,0,0,0,0,6,6,6,,,,,,,,,,,,,,,,,,,,,,,,,,,,,,,,,,,,,,,,,,,,,,,,,,,,,,,475.905919326,None,475.905919326,None,475.905919326,None,m,1,2.960644268001488,477.4394234970023,None,477.4394234970023,None,477.4394234970023,None,480.4568026170018,None,480.4568026170018,None,480.4568026170018,None,480.4568026170018,None,,,,,,,,,,,,,,,,,,,,,,,,,,,,,,,,,,,,,,,,,,,,001,22,2020_Jan_28_1551,spring_faces,3.1.5,60.08450091846241,
condition files/Stage1_1.xlsx,,T3,B4,c,"['c', 'm']","['Clue', 'Monopoly']","[-0.15, 0.5]","[0.15, 0.5]",1,1,,,,,,,,,0,0,0,0,0,7,7,5,,,,,,,,,,,,,,,,,,,,,,,,,,,,,,,,,,,,,,,,,,,,,,,,,,,,,,,482.42214470399995,None,482.42214470399995,None,482.42214470399995,None,c,1,1.1646733609995863,483.95538329199917,None,483.95538329199917,None,483.95538329199917,None,485.1736594610011,None,485.1736594610011,None,485.1736594610011,None,485.1736594610011,None,,,,,,,,,,,,,,,,,,,,,,,,,,,,,,,,,,,,,,,,,,,,001,22,2020_Jan_28_1551,spring_faces,3.1.5,60.08450091846241,
condition files/Stage1_2.xlsx,,B1,T1,c,"['c', 'm']","['Clue', 'Monopoly']","[-0.15, 0.5]","[0.15, 0.5]",1,1,,,,,,,,,0,1,1,1,0,0,0,0,,,,,,,,,,,,,,,,,,,,,,,,,,,,,,,,,,,,,,,,,,,,,,,,,,,,,,,487.15579787599927,None,487.15579787599927,None,487.15579787599927,None,m,0,0.6692275829991559,488.69088817100055,None,488.69088817100055,None,488.69088817100055,None,489.4222457120013,None,489.4222457120013,None,489.4222457120013,None,489.4222457120013,None,,,,,,,,,,,,,,,,,,,,,,,,,,,,,,,,,,,,,,,,,,,,001,22,2020_Jan_28_1551,spring_faces,3.1.5,60.08450091846241,
condition files/Stage1_2.xlsx,,T1,B2,m,"['c', 'm']","['Clue', 'Monopoly']","[-0.15, 0.5]","[0.15, 0.5]",1,1,,,,,,,,,0,1,1,1,0,1,1,2,,,,,,,,,,,,,,,,,,,,,,,,,,,,,,,,,,,,,,,,,,,,,,,,,,,,,,,491.38910940200003,None,491.38910940200003,None,491.38910940200003,None,c,0,1.6851374780017068,492.922948620002,None,492.922948620002,None,492.922948620002,None,494.67226896300053,None,494.67226896300053,None,494.67226896300053,None,494.67226896300053,None,,,,,,,,,,,,,,,,,,,,,,,,,,,,,,,,,,,,,,,,,,,,001,22,2020_Jan_28_1551,spring_faces,3.1.5,60.08450091846241,
condition files/Stage1_2.xlsx,,T3,B3,c,"['c', 'm']","['Clue', 'Monopoly']","[-0.15, 0.5]","[0.15, 0.5]",1,1,,,,,,,,,0,1,1,1,0,2,2,4,,,,,,,,,,,,,,,,,,,,,,,,,,,,,,,,,,,,,,,,,,,,,,,,,,,,,,,496.6388713660017,None,496.6388713660017,None,496.6388713660017,None,c,1,1.5875449990016932,498.1725427599995,None,498.1725427599995,None,498.1725427599995,None,499.8226533369998,None,499.8226533369998,None,499.8226533369998,None,499.8226533369998,None,,,,,,,,,,,,,,,,,,,,,,,,,,,,,,,,,,,,,,,,,,,,001,22,2020_Jan_28_1551,spring_faces,3.1.5,60.08450091846241,
condition files/Stage1_2.xlsx,,B3,T4,m,"['c', 'm']","['Clue', 'Monopoly']","[-0.15, 0.5]","[0.15, 0.5]",1,1,,,,,,,,,0,1,1,1,0,3,3,6,,,,,,,,,,,,,,,,,,,,,,,,,,,,,,,,,,,,,,,,,,,,,,,,,,,,,,,501.7885744769992,None,501.7885744769992,None,501.7885744769992,None,c,0,1.413471338000818,503.3226192000002,None,503.3226192000002,None,503.3226192000002,None,504.7901906670013,None,504.7901906670013,None,504.7901906670013,None,504.7901906670013,None,,,,,,,,,,,,,,,,,,,,,,,,,,,,,,,,,,,,,,,,,,,,001,22,2020_Jan_28_1551,spring_faces,3.1.5,60.08450091846241,
condition files/Stage1_2.xlsx,,T2,B1,c,"['c', 'm']","['Clue', 'Monopoly']","[-0.15, 0.5]","[0.15, 0.5]",1,1,,,,,,,,,0,1,1,1,0,4,4,1,,,,,,,,,,,,,,,,,,,,,,,,,,,,,,,,,,,,,,,,,,,,,,,,,,,,,,,506.7554487109992,None,506.7554487109992,None,506.7554487109992,None,c,1,1.3421093100005237,508.28996998300136,None,508.28996998300136,None,508.28996998300136,None,509.69041797200043,None,509.69041797200043,None,509.69041797200043,None,509.69041797200043,None,,,,,,,,,,,,,,,,,,,,,,,,,,,,,,,,,,,,,,,,,,,,001,22,2020_Jan_28_1551,spring_faces,3.1.5,60.08450091846241,
condition files/Stage1_2.xlsx,,B4,T3,c,"['c', 'm']","['Clue', 'Monopoly']","[-0.15, 0.5]","[0.15, 0.5]",1,1,,,,,,,,,0,1,1,1,0,5,5,5,,,,,,,,,,,,,,,,,,,,,,,,,,,,,,,,,,,,,,,,,,,,,,,,,,,,,,,511.6552113370017,None,511.6552113370017,None,511.6552113370017,None,c,1,0.9231951000001573,513.1889203009996,None,513.1889203009996,None,513.1889203009996,None,514.1726644170012,None,514.1726644170012,None,514.1726644170012,None,514.1726644170012,None,,,,,,,,,,,,,,,,,,,,,,,,,,,,,,,,,,,,,,,,,,,,001,22,2020_Jan_28_1551,spring_faces,3.1.5,60.08450091846241,
condition files/Stage1_2.xlsx,,B2,T2,m,"['c', 'm']","['Clue', 'Monopoly']","[-0.15, 0.5]","[0.15, 0.5]",1,1,,,,,,,,,0,1,1,1,0,6,6,3,,,,,,,,,,,,,,,,,,,,,,,,,,,,,,,,,,,,,,,,,,,,,,,,,,,,,,,516.1392687650005,None,516.1392687650005,None,516.1392687650005,None,m,1,1.3675617379994947,517.6724739090023,None,517.6724739090023,None,517.6724739090023,None,519.1228245050006,None,519.1228245050006,None,519.1228245050006,None,519.1228245050006,None,,,,,,,,,,,,,,,,,,,,,,,,,,,,,,,,,,,,,,,,,,,,001,22,2020_Jan_28_1551,spring_faces,3.1.5,60.08450091846241,
condition files/Stage1_2.xlsx,,T4,B4,m,"['c', 'm']","['Clue', 'Monopoly']","[-0.15, 0.5]","[0.15, 0.5]",1,1,,,,,,,,,0,1,1,1,0,7,7,7,,,,,,,,,,,,,,,,,,,,,,,,,,,,,,,,,,,,,,,,,,,,,,,,,,,,,,,521.0725729290025,None,521.0725729290025,None,521.0725729290025,None,m,1,0.6262855570021202,522.6057416020012,None,522.6057416020012,None,522.6057416020012,None,523.2888277950005,None,523.2888277950005,None,523.2888277950005,None,523.2888277950005,None,,,,,,,,,,,,,,,,,,,,,,,,,,,,,,,,,,,,,,,,,,,,001,22,2020_Jan_28_1551,spring_faces,3.1.5,60.08450091846241,
condition files/Stage1_1.xlsx,,B4,T4,m,"['c', 'm']","['Clue', 'Monopoly']","[-0.15, 0.5]","[0.15, 0.5]",1,1,,,,,,,,,0,2,2,2,0,0,0,7,,,,,,,,,,,,,,,,,,,,,,,,,,,,,,,,,,,,,,,,,,,,,,,,,,,,,,,525.2727492049999,None,525.2727492049999,None,525.2727492049999,None,m,1,0.762497281000833,526.8055920350016,None,526.8055920350016,None,526.8055920350016,None,527.6222118860023,None,527.6222118860023,None,527.6222118860023,None,527.6222118860023,None,,,,,,,,,,,,,,,,,,,,,,,,,,,,,,,,,,,,,,,,,,,,001,22,2020_Jan_28_1551,spring_faces,3.1.5,60.08450091846241,
condition files/Stage1_1.xlsx,,B1,T2,c,"['c', 'm']","['Clue', 'Monopoly']","[-0.15, 0.5]","[0.15, 0.5]",1,1,,,,,,,,,0,2,2,2,0,1,1,1,,,,,,,,,,,,,,,,,,,,,,,,,,,,,,,,,,,,,,,,,,,,,,,,,,,,,,,529.5891075090003,None,529.5891075090003,None,529.5891075090003,None,c,1,0.6852059150005516,531.122863812001,None,531.122863812001,None,531.122863812001,None,531.8720969530004,None,531.8720969530004,None,531.8720969530004,None,531.8720969530004,None,,,,,,,,,,,,,,,,,,,,,,,,,,,,,,,,,,,,,,,,,,,,001,22,2020_Jan_28_1551,spring_faces,3.1.5,60.08450091846241,
condition files/Stage1_1.xlsx,,B2,T1,m,"['c', 'm']","['Clue', 'Monopoly']","[-0.15, 0.5]","[0.15, 0.5]",1,1,,,,,,,,,0,2,2,2,0,2,2,2,,,,,,,,,,,,,,,,,,,,,,,,,,,,,,,,,,,,,,,,,,,,,,,,,,,,,,,533.8389555249996,None,533.8389555249996,None,533.8389555249996,None,m,1,0.8651682449999498,535.3748430640007,None,535.3748430640007,None,535.3748430640007,None,536.3229530490025,None,536.3229530490025,None,536.3229530490025,None,536.3229530490025,None,,,,,,,,,,,,,,,,,,,,,,,,,,,,,,,,,,,,,,,,,,,,001,22,2020_Jan_28_1551,spring_faces,3.1.5,60.08450091846241,
condition files/Stage1_1.xlsx,,T4,B3,m,"['c', 'm']","['Clue', 'Monopoly']","[-0.15, 0.5]","[0.15, 0.5]",1,1,,,,,,,,,0,2,2,2,0,3,3,6,,,,,,,,,,,,,,,,,,,,,,,,,,,,,,,,,,,,,,,,,,,,,,,,,,,,,,,538.2724660870008,None,538.2724660870008,None,538.2724660870008,None,m,1,1.0236806140019326,539.808416625001,None,539.808416625001,None,539.808416625001,None,540.8890581830019,None,540.8890581830019,None,540.8890581830019,None,540.8890581830019,None,,,,,,,,,,,,,,,,,,,,,,,,,,,,,,,,,,,,,,,,,,,,001,22,2020_Jan_28_1551,spring_faces,3.1.5,60.08450091846241,
condition files/Stage1_1.xlsx,,T2,B2,m,"['c', 'm']","['Clue', 'Monopoly']","[-0.15, 0.5]","[0.15, 0.5]",1,1,,,,,,,,,0,2,2,2,0,4,4,3,,,,,,,,,,,,,,,,,,,,,,,,,,,,,,,,,,,,,,,,,,,,,,,,,,,,,,,542.8558529620022,None,542.8558529620022,None,542.8558529620022,None,c,0,0.8109572920002392,544.3891318200003,None,544.3891318200003,None,544.3891318200003,None,545.256112629002,None,545.256112629002,None,545.256112629002,None,545.256112629002,None,,,,,,,,,,,,,,,,,,,,,,,,,,,,,,,,,,,,,,,,,,,,001,22,2020_Jan_28_1551,spring_faces,3.1.5,60.08450091846241,
condition files/Stage1_1.xlsx,,B3,T3,c,"['c', 'm']","['Clue', 'Monopoly']","[-0.15, 0.5]","[0.15, 0.5]",1,1,,,,,,,,,0,2,2,2,0,5,5,4,,,,,,,,,,,,,,,,,,,,,,,,,,,,,,,,,,,,,,,,,,,,,,,,,,,,,,,547.2222597639993,None,547.2222597639993,None,547.2222597639993,None,c,1,1.0206633349989715,548.7554317739996,None,548.7554317739996,None,548.7554317739996,None,549.8396434690003,None,549.8396434690003,None,549.8396434690003,None,549.8396434690003,None,,,,,,,,,,,,,,,,,,,,,,,,,,,,,,,,,,,,,,,,,,,,001,22,2020_Jan_28_1551,spring_faces,3.1.5,60.08450091846241,
condition files/Stage1_1.xlsx,,T3,B4,c,"['c', 'm']","['Clue', 'Monopoly']","[-0.15, 0.5]","[0.15, 0.5]",1,1,,,,,,,,,0,2,2,2,0,6,6,5,,,,,,,,,,,,,,,,,,,,,,,,,,,,,,,,,,,,,,,,,,,,,,,,,,,,,,,551.8058309010012,None,551.8058309010012,None,551.8058309010012,None,c,1,1.1405297210003482,553.3396057579994,None,553.3396057579994,None,553.3396057579994,None,554.5386169490012,None,554.5386169490012,None,554.5386169490012,None,554.5386169490012,None,,,,,,,,,,,,,,,,,,,,,,,,,,,,,,,,,,,,,,,,,,,,001,22,2020_Jan_28_1551,spring_faces,3.1.5,60.08450091846241,
condition files/Stage1_1.xlsx,,T1,B1,c,"['c', 'm']","['Clue', 'Monopoly']","[-0.15, 0.5]","[0.15, 0.5]",1,1,,,,,,,,,0,2,2,2,0,7,7,0,,,,,,,,,,,,,,,,,,,,,,,,,,,,,,,,,,,,,,,,,,,,,,,,,,,,,,,556.5057298350002,None,556.5057298350002,None,556.5057298350002,None,m,0,0.5051051699992968,558.0389973970014,None,558.0389973970014,None,558.0389973970014,None,558.6061348340008,None,558.6061348340008,None,558.6061348340008,None,558.6061348340008,None,,,,,,,,,,,,,,,,,,,,,,,,,,,,,,,,,,,,,,,,,,,,001,22,2020_Jan_28_1551,spring_faces,3.1.5,60.08450091846241,
condition files/Stage1_2.xlsx,,T4,B4,m,"['c', 'm']","['Clue', 'Monopoly']","[-0.15, 0.5]","[0.15, 0.5]",1,1,,,,,,,,,0,3,3,3,0,0,0,7,,,,,,,,,,,,,,,,,,,,,,,,,,,,,,,,,,,,,,,,,,,,,,,,,,,,,,,560.5893060029994,None,560.5893060029994,None,560.5893060029994,None,m,1,0.9964161890020478,562.1236817099998,None,562.1236817099998,None,562.1236817099998,None,563.1738330990011,None,563.1738330990011,None,563.1738330990011,None,563.1738330990011,None,,,,,,,,,,,,,,,,,,,,,,,,,,,,,,,,,,,,,,,,,,,,001,22,2020_Jan_28_1551,spring_faces,3.1.5,60.08450091846241,
condition files/Stage1_2.xlsx,,B4,T3,c,"['c', 'm']","['Clue', 'Monopoly']","[-0.15, 0.5]","[0.15, 0.5]",1,1,,,,,,,,,0,3,3,3,0,1,1,5,,,,,,,,,,,,,,,,,,,,,,,,,,,,,,,,,,,,,,,,,,,,,,,,,,,,,,,565.139292464999,None,565.139292464999,None,565.139292464999,None,c,1,0.9118624789989553,566.6722051420002,None,566.6722051420002,None,566.6722051420002,None,567.6422167620003,None,567.6422167620003,None,567.6422167620003,None,567.6422167620003,None,,,,,,,,,,,,,,,,,,,,,,,,,,,,,,,,,,,,,,,,,,,,001,22,2020_Jan_28_1551,spring_faces,3.1.5,60.08450091846241,
condition files/Stage1_2.xlsx,,T1,B2,m,"['c', 'm']","['Clue', 'Monopoly']","[-0.15, 0.5]","[0.15, 0.5]",1,1,,,,,,,,,0,3,3,3,0,2,2,2,,,,,,,,,,,,,,,,,,,,,,,,,,,,,,,,,,,,,,,,,,,,,,,,,,,,,,,569.605335016,None,569.605335016,None,569.605335016,None,m,1,2.957184156002768,571.1389642510003,None,571.1389642510003,None,571.1389642510003,None,574.1586590709994,None,574.1586590709994,None,574.1586590709994,None,574.1586590709994,None,,,,,,,,,,,,,,,,,,,,,,,,,,,,,,,,,,,,,,,,,,,,001,22,2020_Jan_28_1551,spring_faces,3.1.5,60.08450091846241,
condition files/Stage1_2.xlsx,,B3,T4,m,"['c', 'm']","['Clue', 'Monopoly']","[-0.15, 0.5]","[0.15, 0.5]",1,1,,,,,,,,,0,3,3,3,0,3,3,6,,,,,,,,,,,,,,,,,,,,,,,,,,,,,,,,,,,,,,,,,,,,,,,,,,,,,,,576.1222084799992,None,576.1222084799992,None,576.1222084799992,None,c,0,0.6808769169983862,577.6553581590015,None,577.6553581590015,None,577.6553581590015,None,578.3889222420003,None,578.3889222420003,None,578.3889222420003,None,578.3889222420003,None,,,,,,,,,,,,,,,,,,,,,,,,,,,,,,,,,,,,,,,,,,,,001,22,2020_Jan_28_1551,spring_faces,3.1.5,60.08450091846241,
condition files/Stage1_2.xlsx,,B1,T1,c,"['c', 'm']","['Clue', 'Monopoly']","[-0.15, 0.5]","[0.15, 0.5]",1,1,,,,,,,,,0,3,3,3,0,4,4,0,,,,,,,,,,,,,,,,,,,,,,,,,,,,,,,,,,,,,,,,,,,,,,,,,,,,,,,580.355526727999,None,580.355526727999,None,580.355526727999,None,m,0,1.566525524998724,581.8895690210011,None,581.8895690210011,None,581.8895690210011,None,583.5069028069993,None,583.5069028069993,None,583.5069028069993,None,583.5069028069993,None,,,,,,,,,,,,,,,,,,,,,,,,,,,,,,,,,,,,,,,,,,,,001,22,2020_Jan_28_1551,spring_faces,3.1.5,60.08450091846241,
condition files/Stage1_2.xlsx,,T3,B3,c,"['c', 'm']","['Clue', 'Monopoly']","[-0.15, 0.5]","[0.15, 0.5]",1,1,,,,,,,,,0,3,3,3,0,5,5,4,,,,,,,,,,,,,,,,,,,,,,,,,,,,,,,,,,,,,,,,,,,,,,,,,,,,,,,585.4721452800004,None,585.4721452800004,None,585.4721452800004,None,c,1,1.0587249399977736,587.0053938870005,None,587.0053938870005,None,587.0053938870005,None,588.1220876680018,None,588.1220876680018,None,588.1220876680018,None,588.1220876680018,None,,,,,,,,,,,,,,,,,,,,,,,,,,,,,,,,,,,,,,,,,,,,001,22,2020_Jan_28_1551,spring_faces,3.1.5,60.08450091846241,
condition files/Stage1_2.xlsx,,B2,T2,m,"['c', 'm']","['Clue', 'Monopoly']","[-0.15, 0.5]","[0.15, 0.5]",1,1,,,,,,,,,0,3,3,3,0,6,6,3,,,,,,,,,,,,,,,,,,,,,,,,,,,,,,,,,,,,,,,,,,,,,,,,,,,,,,,590.0892518479995,None,590.0892518479995,None,590.0892518479995,None,m,1,2.6810029440021026,591.6230830690001,None,591.6230830690001,None,591.6230830690001,None,594.3727115299989,None,594.3727115299989,None,594.3727115299989,None,594.3727115299989,None,,,,,,,,,,,,,,,,,,,,,,,,,,,,,,,,,,,,,,,,,,,,001,22,2020_Jan_28_1551,spring_faces,3.1.5,60.08450091846241,
condition files/Stage1_2.xlsx,,T2,B1,c,"['c', 'm']","['Clue', 'Monopoly']","[-0.15, 0.5]","[0.15, 0.5]",1,1,,,,,,,,,0,3,3,3,0,7,7,1,,,,,,,,,,,,,,,,,,,,,,,,,,,,,,,,,,,,,,,,,,,,,,,,,,,,,,,596.3220738599994,None,596.3220738599994,None,596.3220738599994,None,c,1,0.8486030499989283,597.855533897,None,597.855533897,None,597.855533897,None,598.7560223069995,None,598.7560223069995,None,598.7560223069995,None,598.7560223069995,None,,,,,,,,,,,,,,,,,,,,,,,,,,,,,,,,,,,,,,,,,,,,001,22,2020_Jan_28_1551,spring_faces,3.1.5,60.08450091846241,
condition files/Stage1_1.xlsx,,T3,B4,c,"['c', 'm']","['Clue', 'Monopoly']","[-0.15, 0.5]","[0.15, 0.5]",1,1,,,,,,,,,0,4,4,4,0,0,0,5,,,,,,,,,,,,,,,,,,,,,,,,,,,,,,,,,,,,,,,,,,,,,,,,,,,,,,,600.7392742320008,None,600.7392742320008,None,600.7392742320008,None,c,1,0.9265980119998858,602.2895385010015,None,602.2895385010015,None,602.2895385010015,None,603.2726220920013,None,603.2726220920013,None,603.2726220920013,None,603.2726220920013,None,,,,,,,,,,,,,,,,,,,,,,,,,,,,,,,,,,,,,,,,,,,,001,22,2020_Jan_28_1551,spring_faces,3.1.5,60.08450091846241,
condition files/Stage1_1.xlsx,,T4,B3,m,"['c', 'm']","['Clue', 'Monopoly']","[-0.15, 0.5]","[0.15, 0.5]",1,1,,,,,,,,,0,4,4,4,0,1,1,6,,,,,,,,,,,,,,,,,,,,,,,,,,,,,,,,,,,,,,,,,,,,,,,,,,,,,,,605.2391901650008,None,605.2391901650008,None,605.2391901650008,None,m,1,1.0342619080001896,606.773819299,None,606.773819299,None,606.773819299,None,607.8721967349993,None,607.8721967349993,None,607.8721967349993,None,607.8721967349993,None,,,,,,,,,,,,,,,,,,,,,,,,,,,,,,,,,,,,,,,,,,,,001,22,2020_Jan_28_1551,spring_faces,3.1.5,60.08450091846241,
condition files/Stage1_1.xlsx,,B4,T4,m,"['c', 'm']","['Clue', 'Monopoly']","[-0.15, 0.5]","[0.15, 0.5]",1,1,,,,,,,,,0,4,4,4,0,2,2,7,,,,,,,,,,,,,,,,,,,,,,,,,,,,,,,,,,,,,,,,,,,,,,,,,,,,,,,609.8390746820005,None,609.8390746820005,None,609.8390746820005,None,m,1,0.6754743490018882,611.3726650989993,None,611.3726650989993,None,611.3726650989993,None,612.1057603010013,None,612.1057603010013,None,612.1057603010013,None,612.1057603010013,None,,,,,,,,,,,,,,,,,,,,,,,,,,,,,,,,,,,,,,,,,,,,001,22,2020_Jan_28_1551,spring_faces,3.1.5,60.08450091846241,
condition files/Stage1_1.xlsx,,T2,B2,m,"['c', 'm']","['Clue', 'Monopoly']","[-0.15, 0.5]","[0.15, 0.5]",1,1,,,,,,,,,0,4,4,4,0,3,3,3,,,,,,,,,,,,,,,,,,,,,,,,,,,,,,,,,,,,,,,,,,,,,,,,,,,,,,,614.0725090010019,None,614.0725090010019,None,614.0725090010019,None,c,0,1.3382303500002308,615.6058605120015,None,615.6058605120015,None,615.6058605120015,None,617.005707802,None,617.005707802,None,617.005707802,None,617.005707802,None,,,,,,,,,,,,,,,,,,,,,,,,,,,,,,,,,,,,,,,,,,,,001,22,2020_Jan_28_1551,spring_faces,3.1.5,60.08450091846241,
condition files/Stage1_1.xlsx,,T1,B1,c,"['c', 'm']","['Clue', 'Monopoly']","[-0.15, 0.5]","[0.15, 0.5]",1,1,,,,,,,,,0,4,4,4,0,4,4,0,,,,,,,,,,,,,,,,,,,,,,,,,,,,,,,,,,,,,,,,,,,,,,,,,,,,,,,618.9727088540021,None,618.9727088540021,None,618.9727088540021,None,c,1,2.006122892998974,620.5058997880005,None,620.5058997880005,None,620.5058997880005,None,622.5742322719998,None,622.5742322719998,None,622.5742322719998,None,622.5742322719998,None,,,,,,,,,,,,,,,,,,,,,,,,,,,,,,,,,,,,,,,,,,,,001,22,2020_Jan_28_1551,spring_faces,3.1.5,60.08450091846241,
condition files/Stage1_1.xlsx,,B3,T3,c,"['c', 'm']","['Clue', 'Monopoly']","[-0.15, 0.5]","[0.15, 0.5]",1,1,,,,,,,,,0,4,4,4,0,5,5,4,,,,,,,,,,,,,,,,,,,,,,,,,,,,,,,,,,,,,,,,,,,,,,,,,,,,,,,624.5388756030006,None,624.5388756030006,None,624.5388756030006,None,c,1,0.7427615300002799,626.0733973499991,None,626.0733973499991,None,626.0733973499991,None,626.872928869001,None,626.872928869001,None,626.872928869001,None,626.872928869001,None,,,,,,,,,,,,,,,,,,,,,,,,,,,,,,,,,,,,,,,,,,,,001,22,2020_Jan_28_1551,spring_faces,3.1.5,60.08450091846241,
condition files/Stage1_1.xlsx,,B2,T1,m,"['c', 'm']","['Clue', 'Monopoly']","[-0.15, 0.5]","[0.15, 0.5]",1,1,,,,,,,,,0,4,4,4,0,6,6,2,,,,,,,,,,,,,,,,,,,,,,,,,,,,,,,,,,,,,,,,,,,,,,,,,,,,,,,628.8388278999992,None,628.8388278999992,None,628.8388278999992,None,m,1,1.0810748349977075,630.3749876309994,None,630.3749876309994,None,630.3749876309994,None,631.5087050780021,None,631.5087050780021,None,631.5087050780021,None,631.5087050780021,None,,,,,,,,,,,,,,,,,,,,,,,,,,,,,,,,,,,,,,,,,,,,001,22,2020_Jan_28_1551,spring_faces,3.1.5,60.08450091846241,
condition files/Stage1_1.xlsx,,B1,T2,c,"['c', 'm']","['Clue', 'Monopoly']","[-0.15, 0.5]","[0.15, 0.5]",1,1,,,,,,,,,0,4,4,4,0,7,7,1,,,,,,,,,,,,,,,,,,,,,,,,,,,,,,,,,,,,,,,,,,,,,,,,,,,,,,,633.4718632990007,None,633.4718632990007,None,633.4718632990007,None,c,1,0.4819533420013613,635.0061407239991,None,635.0061407239991,None,635.0061407239991,None,635.5418758300002,None,635.5418758300002,None,635.5418758300002,None,635.5418758300002,None,,,,,,,,,,,,,,,,,,,,,,,,,,,,,,,,,,,,,,,,,,,,001,22,2020_Jan_28_1551,spring_faces,3.1.5,60.08450091846241,
condition files/Stage1_2.xlsx,,B3,T4,m,"['c', 'm']","['Clue', 'Monopoly']","[-0.15, 0.5]","[0.15, 0.5]",1,1,,,,,,,,,0,5,5,5,0,0,0,6,,,,,,,,,,,,,,,,,,,,,,,,,,,,,,,,,,,,,,,,,,,,,,,,,,,,,,,637.5221826080015,None,637.5221826080015,None,637.5221826080015,None,m,1,0.9445247980002023,639.0555611640011,None,639.0555611640011,None,639.0555611640011,None,640.0584224949998,None,640.0584224949998,None,640.0584224949998,None,640.0584224949998,None,,,,,,,,,,,,,,,,,,,,,,,,,,,,,,,,,,,,,,,,,,,,001,22,2020_Jan_28_1551,spring_faces,3.1.5,60.08450091846241,
condition files/Stage1_2.xlsx,,T2,B1,c,"['c', 'm']","['Clue', 'Monopoly']","[-0.15, 0.5]","[0.15, 0.5]",1,1,,,,,,,,,0,5,5,5,0,1,1,1,,,,,,,,,,,,,,,,,,,,,,,,,,,,,,,,,,,,,,,,,,,,,,,,,,,,,,,642.0224543620025,None,642.0224543620025,None,642.0224543620025,None,c,1,0.6043634809975629,643.5557624030007,None,643.5557624030007,None,643.5557624030007,None,644.2223215310005,None,644.2223215310005,None,644.2223215310005,None,644.2223215310005,None,,,,,,,,,,,,,,,,,,,,,,,,,,,,,,,,,,,,,,,,,,,,001,22,2020_Jan_28_1551,spring_faces,3.1.5,60.08450091846241,
condition files/Stage1_2.xlsx,,B2,T2,m,"['c', 'm']","['Clue', 'Monopoly']","[-0.15, 0.5]","[0.15, 0.5]",1,1,,,,,,,,,0,5,5,5,0,2,2,3,,,,,,,,,,,,,,,,,,,,,,,,,,,,,,,,,,,,,,,,,,,,,,,,,,,,,,,646.1892834099999,None,646.1892834099999,None,646.1892834099999,None,m,1,1.0778501530003268,647.7222802530014,None,647.7222802530014,None,647.7222802530014,None,648.8719809590002,None,648.8719809590002,None,648.8719809590002,None,648.8719809590002,None,,,,,,,,,,,,,,,,,,,,,,,,,,,,,,,,,,,,,,,,,,,,001,22,2020_Jan_28_1551,spring_faces,3.1.5,60.08450091846241,
condition files/Stage1_2.xlsx,,B1,T1,c,"['c', 'm']","['Clue', 'Monopoly']","[-0.15, 0.5]","[0.15, 0.5]",1,1,,,,,,,,,0,5,5,5,0,3,3,0,,,,,,,,,,,,,,,,,,,,,,,,,,,,,,,,,,,,,,,,,,,,,,,,,,,,,,,650.8224664410009,None,650.8224664410009,None,650.8224664410009,None,c,1,0.44183364899799926,652.358261794001,None,652.358261794001,None,652.358261794001,None,652.8575153749989,None,652.8575153749989,None,652.8575153749989,None,652.8575153749989,None,,,,,,,,,,,,,,,,,,,,,,,,,,,,,,,,,,,,,,,,,,,,001,22,2020_Jan_28_1551,spring_faces,3.1.5,60.08450091846241,
condition files/Stage1_2.xlsx,,T3,B3,c,"['c', 'm']","['Clue', 'Monopoly']","[-0.15, 0.5]","[0.15, 0.5]",1,1,,,,,,,,,0,5,5,5,0,4,4,4,,,,,,,,,,,,,,,,,,,,,,,,,,,,,,,,,,,,,,,,,,,,,,,,,,,,,,,654.822033370001,None,654.822033370001,None,654.822033370001,None,c,1,0.9549058919983509,656.3572244550014,None,656.3572244550014,None,656.3572244550014,None,657.3730028270002,None,657.3730028270002,None,657.3730028270002,None,657.3730028270002,None,,,,,,,,,,,,,,,,,,,,,,,,,,,,,,,,,,,,,,,,,,,,001,22,2020_Jan_28_1551,spring_faces,3.1.5,60.08450091846241,
condition files/Stage1_2.xlsx,,T4,B4,m,"['c', 'm']","['Clue', 'Monopoly']","[-0.15, 0.5]","[0.15, 0.5]",1,1,,,,,,,,,0,5,5,5,0,5,5,7,,,,,,,,,,,,,,,,,,,,,,,,,,,,,,,,,,,,,,,,,,,,,,,,,,,,,,,659.3392491310005,None,659.3392491310005,None,659.3392491310005,None,m,1,0.7113826740023796,660.8726565550023,None,660.8726565550023,None,660.8726565550023,None,661.6562510920012,None,661.6562510920012,None,661.6562510920012,None,661.6562510920012,None,,,,,,,,,,,,,,,,,,,,,,,,,,,,,,,,,,,,,,,,,,,,001,22,2020_Jan_28_1551,spring_faces,3.1.5,60.08450091846241,
condition files/Stage1_2.xlsx,,B4,T3,c,"['c', 'm']","['Clue', 'Monopoly']","[-0.15, 0.5]","[0.15, 0.5]",1,1,,,,,,,,,0,5,5,5,0,6,6,5,,,,,,,,,,,,,,,,,,,,,,,,,,,,,,,,,,,,,,,,,,,,,,,,,,,,,,,663.6053204439995,None,663.6053204439995,None,663.6053204439995,None,c,1,0.9872756860022491,665.1408313230022,None,665.1408313230022,None,665.1408313230022,None,666.2060523170003,None,666.2060523170003,None,666.2060523170003,None,666.2060523170003,None,,,,,,,,,,,,,,,,,,,,,,,,,,,,,,,,,,,,,,,,,,,,001,22,2020_Jan_28_1551,spring_faces,3.1.5,60.08450091846241,
condition files/Stage1_2.xlsx,,T1,B2,m,"['c', 'm']","['Clue', 'Monopoly']","[-0.15, 0.5]","[0.15, 0.5]",1,1,,,,,,,,,0,5,5,5,0,7,7,2,,,,,,,,,,,,,,,,,,,,,,,,,,,,,,,,,,,,,,,,,,,,,,,,,,,,,,,668.1558606100007,None,668.1558606100007,None,668.1558606100007,None,m,1,0.5979772650025552,669.7061036779996,None,669.7061036779996,None,669.7061036779996,None,670.3586622580005,None,670.3586622580005,None,670.3586622580005,None,670.3586622580005,None,,,,,,,,,,,,,,,,,,,,,,,,,,,,,,,,,,,,,,,,,,,,001,22,2020_Jan_28_1551,spring_faces,3.1.5,60.08450091846241,
condition files/Stage1_1.xlsx,,B3,T3,c,"['c', 'm']","['Clue', 'Monopoly']","[-0.15, 0.5]","[0.15, 0.5]",1,1,,,,,,,,,0,6,6,6,0,0,0,4,,,,,,,,,,,,,,,,,,,,,,,,,,,,,,,,,,,,,,,,,,,,,,,,,,,,,,,672.3393349770013,None,672.3393349770013,None,672.3393349770013,None,c,1,0.8954309840009955,673.8726014690001,None,673.8726014690001,None,673.8726014690001,None,674.8394501270013,None,674.8394501270013,None,674.8394501270013,None,674.8394501270013,None,,,,,,,,,,,,,,,,,,,,,,,,,,,,,,,,,,,,,,,,,,,,001,22,2020_Jan_28_1551,spring_faces,3.1.5,60.08450091846241,
condition files/Stage1_1.xlsx,,B2,T1,m,"['c', 'm']","['Clue', 'Monopoly']","[-0.15, 0.5]","[0.15, 0.5]",1,1,,,,,,,,,0,6,6,6,0,1,1,2,,,,,,,,,,,,,,,,,,,,,,,,,,,,,,,,,,,,,,,,,,,,,,,,,,,,,,,676.7890305239998,None,676.7890305239998,None,676.7890305239998,None,m,1,1.0058412090002093,678.3222827810023,None,678.3222827810023,None,678.3222827810023,None,679.3919729690024,None,679.3919729690024,None,679.3919729690024,None,679.3919729690024,None,,,,,,,,,,,,,,,,,,,,,,,,,,,,,,,,,,,,,,,,,,,,001,22,2020_Jan_28_1551,spring_faces,3.1.5,60.08450091846241,
condition files/Stage1_1.xlsx,,T3,B4,c,"['c', 'm']","['Clue', 'Monopoly']","[-0.15, 0.5]","[0.15, 0.5]",1,1,,,,,,,,,0,6,6,6,0,2,2,5,,,,,,,,,,,,,,,,,,,,,,,,,,,,,,,,,,,,,,,,,,,,,,,,,,,,,,,681.3552805360014,None,681.3552805360014,None,681.3552805360014,None,c,1,0.9816771849982615,682.9064211320001,None,682.9064211320001,None,682.9064211320001,None,683.9554406460011,None,683.9554406460011,None,683.9554406460011,None,683.9554406460011,None,,,,,,,,,,,,,,,,,,,,,,,,,,,,,,,,,,,,,,,,,,,,001,22,2020_Jan_28_1551,spring_faces,3.1.5,60.08450091846241,
condition files/Stage1_1.xlsx,,B1,T2,c,"['c', 'm']","['Clue', 'Monopoly']","[-0.15, 0.5]","[0.15, 0.5]",1,1,,,,,,,,,0,6,6,6,0,3,3,1,,,,,,,,,,,,,,,,,,,,,,,,,,,,,,,,,,,,,,,,,,,,,,,,,,,,,,,685.9052437339997,None,685.9052437339997,None,685.9052437339997,None,c,1,0.6708653470013815,687.4412904980018,None,687.4412904980018,None,687.4412904980018,None,688.1726248980012,None,688.1726248980012,None,688.1726248980012,None,688.1726248980012,None,,,,,,,,,,,,,,,,,,,,,,,,,,,,,,,,,,,,,,,,,,,,001,22,2020_Jan_28_1551,spring_faces,3.1.5,60.08450091846241,
condition files/Stage1_1.xlsx,,T1,B1,c,"['c', 'm']","['Clue', 'Monopoly']","[-0.15, 0.5]","[0.15, 0.5]",1,1,,,,,,,,,0,6,6,6,0,4,4,0,,,,,,,,,,,,,,,,,,,,,,,,,,,,,,,,,,,,,,,,,,,,,,,,,,,,,,,690.138680676002,None,690.138680676002,None,690.138680676002,None,m,0,0.5017413989990018,691.6743978449995,None,691.6743978449995,None,691.6743978449995,None,692.2386786220013,None,692.2386786220013,None,692.2386786220013,None,692.2386786220013,None,,,,,,,,,,,,,,,,,,,,,,,,,,,,,,,,,,,,,,,,,,,,001,22,2020_Jan_28_1551,spring_faces,3.1.5,60.08450091846241,
condition files/Stage1_1.xlsx,,T2,B2,m,"['c', 'm']","['Clue', 'Monopoly']","[-0.15, 0.5]","[0.15, 0.5]",1,1,,,,,,,,,0,6,6,6,0,5,5,3,,,,,,,,,,,,,,,,,,,,,,,,,,,,,,,,,,,,,,,,,,,,,,,,,,,,,,,694.2058252429997,None,694.2058252429997,None,694.2058252429997,None,m,1,1.1721259810001357,695.7400100049999,None,695.7400100049999,None,695.7400100049999,None,696.9892115570001,None,696.9892115570001,None,696.9892115570001,None,696.9892115570001,None,,,,,,,,,,,,,,,,,,,,,,,,,,,,,,,,,,,,,,,,,,,,001,22,2020_Jan_28_1551,spring_faces,3.1.5,60.08450091846241,
condition files/Stage1_1.xlsx,,B4,T4,m,"['c', 'm']","['Clue', 'Monopoly']","[-0.15, 0.5]","[0.15, 0.5]",1,1,,,,,,,,,0,6,6,6,0,6,6,7,,,,,,,,,,,,,,,,,,,,,,,,,,,,,,,,,,,,,,,,,,,,,,,,,,,,,,,698.939565683002,None,698.939565683002,None,698.939565683002,None,m,1,1.4793200679996517,700.4727783890012,None,700.4727783890012,None,700.4727783890012,None,702.0060385329998,None,702.0060385329998,None,702.0060385329998,None,702.0060385329998,None,,,,,,,,,,,,,,,,,,,,,,,,,,,,,,,,,,,,,,,,,,,,001,22,2020_Jan_28_1551,spring_faces,3.1.5,60.08450091846241,
condition files/Stage1_1.xlsx,,T4,B3,m,"['c', 'm']","['Clue', 'Monopoly']","[-0.15, 0.5]","[0.15, 0.5]",1,1,,,,,,,,,0,6,6,6,0,7,7,6,,,,,,,,,,,,,,,,,,,,,,,,,,,,,,,,,,,,,,,,,,,,,,,,,,,,,,,703.9718907410024,None,703.9718907410024,None,703.9718907410024,None,m,1,0.8289891669992357,705.5072291569995,None,705.5072291569995,None,705.5072291569995,None,706.3887689210023,None,706.3887689210023,None,706.3887689210023,None,706.3887689210023,None,,,,,,,,,,,,,,,,,,,,,,,,,,,,,,,,,,,,,,,,,,,,001,22,2020_Jan_28_1551,spring_faces,3.1.5,60.08450091846241,
condition files/Stage1_2.xlsx,,B3,T4,m,"['c', 'm']","['Clue', 'Monopoly']","[-0.15, 0.5]","[0.15, 0.5]",1,1,,,,,,,,,0,7,7,7,0,0,0,6,,,,,,,,,,,,,,,,,,,,,,,,,,,,,,,,,,,,,,,,,,,,,,,,,,,,,,,708.3725463260016,None,708.3725463260016,None,708.3725463260016,None,m,1,0.877336853001907,709.906744287,None,709.906744287,None,709.906744287,None,710.8392426530008,None,710.8392426530008,None,710.8392426530008,None,710.8392426530008,None,,,,,,,,,,,,,,,,,,,,,,,,,,,,,,,,,,,,,,,,,,,,001,22,2020_Jan_28_1551,spring_faces,3.1.5,60.08450091846241,
condition files/Stage1_2.xlsx,,B1,T1,c,"['c', 'm']","['Clue', 'Monopoly']","[-0.15, 0.5]","[0.15, 0.5]",1,1,,,,,,,,,0,7,7,7,0,1,1,0,,,,,,,,,,,,,,,,,,,,,,,,,,,,,,,,,,,,,,,,,,,,,,,,,,,,,,,712.8060054369998,None,712.8060054369998,None,712.8060054369998,None,c,1,0.6533445749992097,714.3387550629996,None,714.3387550629996,None,714.3387550629996,None,715.0558819040016,None,715.0558819040016,None,715.0558819040016,None,715.0558819040016,None,,,,,,,,,,,,,,,,,,,,,,,,,,,,,,,,,,,,,,,,,,,,001,22,2020_Jan_28_1551,spring_faces,3.1.5,60.08450091846241,
condition files/Stage1_2.xlsx,,T3,B3,c,"['c', 'm']","['Clue', 'Monopoly']","[-0.15, 0.5]","[0.15, 0.5]",1,1,,,,,,,,,0,7,7,7,0,2,2,4,,,,,,,,,,,,,,,,,,,,,,,,,,,,,,,,,,,,,,,,,,,,,,,,,,,,,,,717.0225530300013,None,717.0225530300013,None,717.0225530300013,None,c,1,0.8520505080014118,718.5560503640008,None,718.5560503640008,None,718.5560503640008,None,719.4721992820014,None,719.4721992820014,None,719.4721992820014,None,719.4721992820014,None,,,,,,,,,,,,,,,,,,,,,,,,,,,,,,,,,,,,,,,,,,,,001,22,2020_Jan_28_1551,spring_faces,3.1.5,60.08450091846241,
condition files/Stage1_2.xlsx,,T1,B2,m,"['c', 'm']","['Clue', 'Monopoly']","[-0.15, 0.5]","[0.15, 0.5]",1,1,,,,,,,,,0,7,7,7,0,3,3,2,,,,,,,,,,,,,,,,,,,,,,,,,,,,,,,,,,,,,,,,,,,,,,,,,,,,,,,721.4387178889992,None,721.4387178889992,None,721.4387178889992,None,m,1,0.9157776409992948,722.9723056770017,None,722.9723056770017,None,722.9723056770017,None,723.9558097059999,None,723.9558097059999,None,723.9558097059999,None,723.9558097059999,None,,,,,,,,,,,,,,,,,,,,,,,,,,,,,,,,,,,,,,,,,,,,001,22,2020_Jan_28_1551,spring_faces,3.1.5,60.08450091846241,
condition files/Stage1_2.xlsx,,T4,B4,m,"['c', 'm']","['Clue', 'Monopoly']","[-0.15, 0.5]","[0.15, 0.5]",1,1,,,,,,,,,0,7,7,7,0,4,4,7,,,,,,,,,,,,,,,,,,,,,,,,,,,,,,,,,,,,,,,,,,,,,,,,,,,,,,,725.9058969030011,None,725.9058969030011,None,725.9058969030011,None,m,1,1.056920879000245,727.4391997349994,None,727.4391997349994,None,727.4391997349994,None,728.5556989960023,None,728.5556989960023,None,728.5556989960023,None,728.5556989960023,None,,,,,,,,,,,,,,,,,,,,,,,,,,,,,,,,,,,,,,,,,,,,001,22,2020_Jan_28_1551,spring_faces,3.1.5,60.08450091846241,
condition files/Stage1_2.xlsx,,T2,B1,c,"['c', 'm']","['Clue', 'Monopoly']","[-0.15, 0.5]","[0.15, 0.5]",1,1,,,,,,,,,0,7,7,7,0,5,5,1,,,,,,,,,,,,,,,,,,,,,,,,,,,,,,,,,,,,,,,,,,,,,,,,,,,,,,,730.5226889590012,None,730.5226889590012,None,730.5226889590012,None,c,1,0.9681180650004535,732.055923701002,None,732.055923701002,None,732.055923701002,None,733.0889141820007,None,733.0889141820007,None,733.0889141820007,None,733.0889141820007,None,,,,,,,,,,,,,,,,,,,,,,,,,,,,,,,,,,,,,,,,,,,,001,22,2020_Jan_28_1551,spring_faces,3.1.5,60.08450091846241,
condition files/Stage1_2.xlsx,,B4,T3,c,"['c', 'm']","['Clue', 'Monopoly']","[-0.15, 0.5]","[0.15, 0.5]",1,1,,,,,,,,,0,7,7,7,0,6,6,5,,,,,,,,,,,,,,,,,,,,,,,,,,,,,,,,,,,,,,,,,,,,,,,,,,,,,,,735.0551321509993,None,735.0551321509993,None,735.0551321509993,None,c,1,0.9125535909988685,736.5915381070008,None,736.5915381070008,None,736.5915381070008,None,737.5562554339995,None,737.5562554339995,None,737.5562554339995,None,737.5562554339995,None,,,,,,,,,,,,,,,,,,,,,,,,,,,,,,,,,,,,,,,,,,,,001,22,2020_Jan_28_1551,spring_faces,3.1.5,60.08450091846241,
condition files/Stage1_2.xlsx,,B2,T2,m,"['c', 'm']","['Clue', 'Monopoly']","[-0.15, 0.5]","[0.15, 0.5]",1,1,,,,,,,,,0,7,7,7,0,7,7,3,,,,,,,,,,,,,,,,,,,,,,,,,,,,,,,,,,,,,,,,,,,,,,,,,,,,,,,739.5223475439998,None,739.5223475439998,None,739.5223475439998,None,m,1,0.6562144810013706,741.0559098129997,None,741.0559098129997,None,741.0559098129997,None,741.7745625610005,None,741.7745625610005,None,741.7745625610005,None,741.7745625610005,None,,,,,,,,,,,,,,,,,,,,,,,,,,,,,,,,,,,,,,,,,,,,001,22,2020_Jan_28_1551,spring_faces,3.1.5,60.08450091846241,
condition files/Stage1_1.xlsx,,B4,T4,m,"['c', 'm']","['Clue', 'Monopoly']","[-0.15, 0.5]","[0.15, 0.5]",1,1,,,,,,,,,0,8,8,8,0,0,0,7,,,,,,,,,,,,,,,,,,,,,,,,,,,,,,,,,,,,,,,,,,,,,,,,,,,,,,,743.7560394070024,None,743.7560394070024,None,743.7560394070024,None,m,1,0.8064479950007808,745.2896981420017,None,745.2896981420017,None,745.2896981420017,None,746.1558056579997,None,746.1558056579997,None,746.1558056579997,None,746.1558056579997,None,,,,,,,,,,,,,,,,,,,,,,,,,,,,,,,,,,,,,,,,,,,,001,22,2020_Jan_28_1551,spring_faces,3.1.5,60.08450091846241,
condition files/Stage1_1.xlsx,,T1,B1,c,"['c', 'm']","['Clue', 'Monopoly']","[-0.15, 0.5]","[0.15, 0.5]",1,1,,,,,,,,,0,8,8,8,0,1,1,0,,,,,,,,,,,,,,,,,,,,,,,,,,,,,,,,,,,,,,,,,,,,,,,,,,,,,,,748.1224596220018,None,748.1224596220018,None,748.1224596220018,None,c,1,0.7431095959982486,749.6570198959998,None,749.6570198959998,None,749.6570198959998,None,750.4577597930002,None,750.4577597930002,None,750.4577597930002,None,750.4577597930002,None,,,,,,,,,,,,,,,,,,,,,,,,,,,,,,,,,,,,,,,,,,,,001,22,2020_Jan_28_1551,spring_faces,3.1.5,60.08450091846241,
condition files/Stage1_1.xlsx,,B1,T2,c,"['c', 'm']","['Clue', 'Monopoly']","[-0.15, 0.5]","[0.15, 0.5]",1,1,,,,,,,,,0,8,8,8,0,2,2,1,,,,,,,,,,,,,,,,,,,,,,,,,,,,,,,,,,,,,,,,,,,,,,,,,,,,,,,752.4225557460013,None,752.4225557460013,None,752.4225557460013,None,c,1,1.0039752869997756,753.9561306579999,None,753.9561306579999,None,753.9561306579999,None,755.021996407002,None,755.021996407002,None,755.021996407002,None,755.021996407002,None,,,,,,,,,,,,,,,,,,,,,,,,,,,,,,,,,,,,,,,,,,,,001,22,2020_Jan_28_1551,spring_faces,3.1.5,60.08450091846241,
condition files/Stage1_1.xlsx,,B3,T3,c,"['c', 'm']","['Clue', 'Monopoly']","[-0.15, 0.5]","[0.15, 0.5]",1,1,,,,,,,,,0,8,8,8,0,3,3,4,,,,,,,,,,,,,,,,,,,,,,,,,,,,,,,,,,,,,,,,,,,,,,,,,,,,,,,756.9891618620022,None,756.9891618620022,None,756.9891618620022,None,c,1,0.820827993000421,758.523258600002,None,758.523258600002,None,758.523258600002,None,759.405541332002,None,759.405541332002,None,759.405541332002,None,759.405541332002,None,,,,,,,,,,,,,,,,,,,,,,,,,,,,,,,,,,,,,,,,,,,,001,22,2020_Jan_28_1551,spring_faces,3.1.5,60.08450091846241,
condition files/Stage1_1.xlsx,,T4,B3,m,"['c', 'm']","['Clue', 'Monopoly']","[-0.15, 0.5]","[0.15, 0.5]",1,1,,,,,,,,,0,8,8,8,0,4,4,6,,,,,,,,,,,,,,,,,,,,,,,,,,,,,,,,,,,,,,,,,,,,,,,,,,,,,,,761.372601613999,None,761.372601613999,None,761.372601613999,None,m,1,0.6944006949997856,762.9056815160002,None,762.9056815160002,None,762.9056815160002,None,763.6720837230023,None,763.6720837230023,None,763.6720837230023,None,763.6720837230023,None,,,,,,,,,,,,,,,,,,,,,,,,,,,,,,,,,,,,,,,,,,,,001,22,2020_Jan_28_1551,spring_faces,3.1.5,60.08450091846241,
condition files/Stage1_1.xlsx,,T3,B4,c,"['c', 'm']","['Clue', 'Monopoly']","[-0.15, 0.5]","[0.15, 0.5]",1,1,,,,,,,,,0,8,8,8,0,5,5,5,,,,,,,,,,,,,,,,,,,,,,,,,,,,,,,,,,,,,,,,,,,,,,,,,,,,,,,765.622143261,None,765.622143261,None,765.622143261,None,c,1,0.8599833000007493,767.1561696980025,None,767.1561696980025,None,767.1561696980025,None,768.0892188329999,None,768.0892188329999,None,768.0892188329999,None,768.0892188329999,None,,,,,,,,,,,,,,,,,,,,,,,,,,,,,,,,,,,,,,,,,,,,001,22,2020_Jan_28_1551,spring_faces,3.1.5,60.08450091846241,
condition files/Stage1_1.xlsx,,B2,T1,m,"['c', 'm']","['Clue', 'Monopoly']","[-0.15, 0.5]","[0.15, 0.5]",1,1,,,,,,,,,0,8,8,8,0,6,6,2,,,,,,,,,,,,,,,,,,,,,,,,,,,,,,,,,,,,,,,,,,,,,,,,,,,,,,,770.0392456020018,None,770.0392456020018,None,770.0392456020018,None,m,1,1.2598261880011705,771.5722748129992,None,771.5722748129992,None,771.5722748129992,None,772.905885608001,None,772.905885608001,None,772.905885608001,None,772.905885608001,None,,,,,,,,,,,,,,,,,,,,,,,,,,,,,,,,,,,,,,,,,,,,001,22,2020_Jan_28_1551,spring_faces,3.1.5,60.08450091846241,
condition files/Stage1_1.xlsx,,T2,B2,m,"['c', 'm']","['Clue', 'Monopoly']","[-0.15, 0.5]","[0.15, 0.5]",1,1,,,,,,,,,0,8,8,8,0,7,7,3,,,,,,,,,,,,,,,,,,,,,,,,,,,,,,,,,,,,,,,,,,,,,,,,,,,,,,,774.855872133001,None,774.855872133001,None,774.855872133001,None,m,1,2.474406990000716,776.3897484150002,None,776.3897484150002,None,776.3897484150002,None,778.9229921430015,None,778.9229921430015,None,778.9229921430015,None,778.9229921430015,None,,,,,,,,,,,,,,,,,,,,,,,,,,,,,,,,,,,,,,,,,,,,001,22,2020_Jan_28_1551,spring_faces,3.1.5,60.08450091846241,
condition files/Stage1_2.xlsx,,B3,T4,m,"['c', 'm']","['Clue', 'Monopoly']","[-0.15, 0.5]","[0.15, 0.5]",1,1,,,,,,,,,0,9,9,9,0,0,0,6,,,,,,,,,,,,,,,,,,,,,,,,,,,,,,,,,,,,,,,,,,,,,,,,,,,,,,,780.9058761289998,None,780.9058761289998,None,780.9058761289998,None,m,1,1.0318505190007272,782.4402733080024,None,782.4402733080024,None,782.4402733080024,None,783.5230638970024,None,783.5230638970024,None,783.5230638970024,None,783.5230638970024,None,,,,,,,,,,,,,,,,,,,,,,,,,,,,,,,,,,,,,,,,,,,,001,22,2020_Jan_28_1551,spring_faces,3.1.5,60.08450091846241,
condition files/Stage1_2.xlsx,,B1,T1,c,"['c', 'm']","['Clue', 'Monopoly']","[-0.15, 0.5]","[0.15, 0.5]",1,1,,,,,,,,,0,9,9,9,0,1,1,0,,,,,,,,,,,,,,,,,,,,,,,,,,,,,,,,,,,,,,,,,,,,,,,,,,,,,,,785.4892391829999,None,785.4892391829999,None,785.4892391829999,None,c,1,0.6239935340017837,787.0241614160004,None,787.0241614160004,None,787.0241614160004,None,787.7228194640011,None,787.7228194640011,None,787.7228194640011,None,787.7228194640011,None,,,,,,,,,,,,,,,,,,,,,,,,,,,,,,,,,,,,,,,,,,,,001,22,2020_Jan_28_1551,spring_faces,3.1.5,60.08450091846241,
condition files/Stage1_2.xlsx,,T2,B1,c,"['c', 'm']","['Clue', 'Monopoly']","[-0.15, 0.5]","[0.15, 0.5]",1,1,,,,,,,,,0,9,9,9,0,2,2,1,,,,,,,,,,,,,,,,,,,,,,,,,,,,,,,,,,,,,,,,,,,,,,,,,,,,,,,789.6724828840015,None,789.6724828840015,None,789.6724828840015,None,c,1,0.5197369210000033,791.2083072130008,None,791.2083072130008,None,791.2083072130008,None,791.7895571230001,None,791.7895571230001,None,791.7895571230001,None,791.7895571230001,None,,,,,,,,,,,,,,,,,,,,,,,,,,,,,,,,,,,,,,,,,,,,001,22,2020_Jan_28_1551,spring_faces,3.1.5,60.08450091846241,
condition files/Stage1_2.xlsx,,T3,B3,c,"['c', 'm']","['Clue', 'Monopoly']","[-0.15, 0.5]","[0.15, 0.5]",1,1,,,,,,,,,0,9,9,9,0,3,3,4,,,,,,,,,,,,,,,,,,,,,,,,,,,,,,,,,,,,,,,,,,,,,,,,,,,,,,,793.7557772210021,None,793.7557772210021,None,793.7557772210021,None,c,1,0.7418233759999566,795.2902650169999,None,795.2902650169999,None,795.2902650169999,None,796.0893797060016,None,796.0893797060016,None,796.0893797060016,None,796.0893797060016,None,,,,,,,,,,,,,,,,,,,,,,,,,,,,,,,,,,,,,,,,,,,,001,22,2020_Jan_28_1551,spring_faces,3.1.5,60.08450091846241,
condition files/Stage1_2.xlsx,,T4,B4,m,"['c', 'm']","['Clue', 'Monopoly']","[-0.15, 0.5]","[0.15, 0.5]",1,1,,,,,,,,,0,9,9,9,0,4,4,7,,,,,,,,,,,,,,,,,,,,,,,,,,,,,,,,,,,,,,,,,,,,,,,,,,,,,,,798.0560424530013,None,798.0560424530013,None,798.0560424530013,None,m,1,0.6826667740024277,799.5894566989991,None,799.5894566989991,None,799.5894566989991,None,800.3393744099994,None,800.3393744099994,None,800.3393744099994,None,800.3393744099994,None,,,,,,,,,,,,,,,,,,,,,,,,,,,,,,,,,,,,,,,,,,,,001,22,2020_Jan_28_1551,spring_faces,3.1.5,60.08450091846241,
condition files/Stage1_2.xlsx,,B2,T2,m,"['c', 'm']","['Clue', 'Monopoly']","[-0.15, 0.5]","[0.15, 0.5]",1,1,,,,,,,,,0,9,9,9,0,5,5,3,,,,,,,,,,,,,,,,,,,,,,,,,,,,,,,,,,,,,,,,,,,,,,,,,,,,,,,802.2883844030002,None,802.2883844030002,None,802.2883844030002,None,m,1,0.7533156580029754,803.8387826149992,None,803.8387826149992,None,803.8387826149992,None,804.6560275070005,None,804.6560275070005,None,804.6560275070005,None,804.6560275070005,None,,,,,,,,,,,,,,,,,,,,,,,,,,,,,,,,,,,,,,,,,,,,001,22,2020_Jan_28_1551,spring_faces,3.1.5,60.08450091846241,
condition files/Stage1_2.xlsx,,B4,T3,c,"['c', 'm']","['Clue', 'Monopoly']","[-0.15, 0.5]","[0.15, 0.5]",1,1,,,,,,,,,0,9,9,9,0,6,6,5,,,,,,,,,,,,,,,,,,,,,,,,,,,,,,,,,,,,,,,,,,,,,,,,,,,,,,,806.6223647100014,None,806.6223647100014,None,806.6223647100014,None,c,1,0.7718079510013922,808.1562366470025,None,808.1562366470025,None,808.1562366470025,None,808.9912236540004,None,808.9912236540004,None,808.9912236540004,None,808.9912236540004,None,,,,,,,,,,,,,,,,,,,,,,,,,,,,,,,,,,,,,,,,,,,,001,22,2020_Jan_28_1551,spring_faces,3.1.5,60.08450091846241,
condition files/Stage1_2.xlsx,,T1,B2,m,"['c', 'm']","['Clue', 'Monopoly']","[-0.15, 0.5]","[0.15, 0.5]",1,1,,,,,,,,,0,9,9,9,0,7,7,2,,,,,,,,,,,,,,,,,,,,,,,,,,,,,,,,,,,,,,,,,,,,,,,,,,,,,,,810.9552285190002,None,810.9552285190002,None,810.9552285190002,None,m,1,0.6307997149997391,812.4892800410016,None,812.4892800410016,None,812.4892800410016,None,813.1890242150002,None,813.1890242150002,None,813.1890242150002,None,813.1890242150002,None,,,,,,,,,,,,,,,,,,,,,,,,,,,,,,,,,,,,,,,,,,,,001,22,2020_Jan_28_1551,spring_faces,3.1.5,60.08450091846241,
condition files/Stage1_1.xlsx,,B1,T2,c,"['c', 'm']","['Clue', 'Monopoly']","[-0.15, 0.5]","[0.15, 0.5]",1,1,,,,,,,,,0,10,10,10,0,0,0,1,,,,,,,,,,,,,,,,,,,,,,,,,,,,,,,,,,,,,,,,,,,,,,,,,,,,,,,815.1554411600009,None,815.1554411600009,None,815.1554411600009,None,c,1,0.6694109039999603,816.6907150400002,None,816.6907150400002,None,816.6907150400002,None,817.4397006479994,None,817.4397006479994,None,817.4397006479994,None,817.4397006479994,None,,,,,,,,,,,,,,,,,,,,,,,,,,,,,,,,,,,,,,,,,,,,001,22,2020_Jan_28_1551,spring_faces,3.1.5,60.08450091846241,
condition files/Stage1_1.xlsx,,T1,B1,c,"['c', 'm']","['Clue', 'Monopoly']","[-0.15, 0.5]","[0.15, 0.5]",1,1,,,,,,,,,0,10,10,10,0,1,1,0,,,,,,,,,,,,,,,,,,,,,,,,,,,,,,,,,,,,,,,,,,,,,,,,,,,,,,,819.3891223540013,None,819.3891223540013,None,819.3891223540013,None,c,1,0.6616491050008335,820.9224203560007,None,820.9224203560007,None,820.9224203560007,None,821.6395869539992,None,821.6395869539992,None,821.6395869539992,None,821.6395869539992,None,,,,,,,,,,,,,,,,,,,,,,,,,,,,,,,,,,,,,,,,,,,,001,22,2020_Jan_28_1551,spring_faces,3.1.5,60.08450091846241,
condition files/Stage1_1.xlsx,,T3,B4,c,"['c', 'm']","['Clue', 'Monopoly']","[-0.15, 0.5]","[0.15, 0.5]",1,1,,,,,,,,,0,10,10,10,0,2,2,5,,,,,,,,,,,,,,,,,,,,,,,,,,,,,,,,,,,,,,,,,,,,,,,,,,,,,,,823.6058493679993,None,823.6058493679993,None,823.6058493679993,None,c,1,0.5566819289997511,825.1394866810006,None,825.1394866810006,None,825.1394866810006,None,825.7562372440007,None,825.7562372440007,None,825.7562372440007,None,825.7562372440007,None,,,,,,,,,,,,,,,,,,,,,,,,,,,,,,,,,,,,,,,,,,,,001,22,2020_Jan_28_1551,spring_faces,3.1.5,60.08450091846241,
condition files/Stage1_1.xlsx,,B4,T4,m,"['c', 'm']","['Clue', 'Monopoly']","[-0.15, 0.5]","[0.15, 0.5]",1,1,,,,,,,,,0,10,10,10,0,3,3,7,,,,,,,,,,,,,,,,,,,,,,,,,,,,,,,,,,,,,,,,,,,,,,,,,,,,,,,827.7225530579999,None,827.7225530579999,None,827.7225530579999,None,m,1,0.6624413910030853,829.2576461790013,None,829.2576461790013,None,829.2576461790013,None,829.9894369430003,None,829.9894369430003,None,829.9894369430003,None,829.9894369430003,None,,,,,,,,,,,,,,,,,,,,,,,,,,,,,,,,,,,,,,,,,,,,001,22,2020_Jan_28_1551,spring_faces,3.1.5,60.08450091846241,
condition files/Stage1_1.xlsx,,B3,T3,c,"['c', 'm']","['Clue', 'Monopoly']","[-0.15, 0.5]","[0.15, 0.5]",1,1,,,,,,,,,0,10,10,10,0,4,4,4,,,,,,,,,,,,,,,,,,,,,,,,,,,,,,,,,,,,,,,,,,,,,,,,,,,,,,,831.9389618160021,None,831.9389618160021,None,831.9389618160021,None,c,1,0.6724370179981634,833.47171075,None,833.47171075,None,833.47171075,None,834.2063782309997,None,834.2063782309997,None,834.2063782309997,None,834.2063782309997,None,,,,,,,,,,,,,,,,,,,,,,,,,,,,,,,,,,,,,,,,,,,,001,22,2020_Jan_28_1551,spring_faces,3.1.5,60.08450091846241,
condition files/Stage1_1.xlsx,,B2,T1,m,"['c', 'm']","['Clue', 'Monopoly']","[-0.15, 0.5]","[0.15, 0.5]",1,1,,,,,,,,,0,10,10,10,0,5,5,2,,,,,,,,,,,,,,,,,,,,,,,,,,,,,,,,,,,,,,,,,,,,,,,,,,,,,,,836.1717399410009,None,836.1717399410009,None,836.1717399410009,None,m,1,0.646564523998677,837.7055033249999,None,837.7055033249999,None,837.7055033249999,None,838.4227579649996,None,838.4227579649996,None,838.4227579649996,None,838.4227579649996,None,,,,,,,,,,,,,,,,,,,,,,,,,,,,,,,,,,,,,,,,,,,,001,22,2020_Jan_28_1551,spring_faces,3.1.5,60.08450091846241,
condition files/Stage1_1.xlsx,,T2,B2,m,"['c', 'm']","['Clue', 'Monopoly']","[-0.15, 0.5]","[0.15, 0.5]",1,1,,,,,,,,,0,10,10,10,0,6,6,3,,,,,,,,,,,,,,,,,,,,,,,,,,,,,,,,,,,,,,,,,,,,,,,,,,,,,,,840.3726287720019,None,840.3726287720019,None,840.3726287720019,None,m,1,0.7651523989989073,841.9069598700007,None,841.9069598700007,None,841.9069598700007,None,842.7231220909998,None,842.7231220909998,None,842.7231220909998,None,842.7231220909998,None,,,,,,,,,,,,,,,,,,,,,,,,,,,,,,,,,,,,,,,,,,,,001,22,2020_Jan_28_1551,spring_faces,3.1.5,60.08450091846241,
condition files/Stage1_1.xlsx,,T4,B3,m,"['c', 'm']","['Clue', 'Monopoly']","[-0.15, 0.5]","[0.15, 0.5]",1,1,,,,,,,,,0,10,10,10,0,7,7,6,,,,,,,,,,,,,,,,,,,,,,,,,,,,,,,,,,,,,,,,,,,,,,,,,,,,,,,844.6888413910019,None,844.6888413910019,None,844.6888413910019,None,m,1,1.1535759159996815,846.2225385810016,None,846.2225385810016,None,846.2225385810016,None,847.4395254390001,None,847.4395254390001,None,847.4395254390001,None,847.4395254390001,None,,,,,,,,,,,,,,,,,,,,,,,,,,,,,,,,,,,,,,,,,,,,001,22,2020_Jan_28_1551,spring_faces,3.1.5,60.08450091846241,
condition files/Stage1_2.xlsx,,B4,T3,c,"['c', 'm']","['Clue', 'Monopoly']","[-0.15, 0.5]","[0.15, 0.5]",1,1,,,,,,,,,0,11,11,11,0,0,0,5,,,,,,,,,,,,,,,,,,,,,,,,,,,,,,,,,,,,,,,,,,,,,,,,,,,,,,,849.4230039670001,None,849.4230039670001,None,849.4230039670001,None,c,1,0.5318128719991364,850.9563136960023,None,850.9563136960023,None,850.9563136960023,None,851.5559970390022,None,851.5559970390022,None,851.5559970390022,None,851.5559970390022,None,,,,,,,,,,,,,,,,,,,,,,,,,,,,,,,,,,,,,,,,,,,,001,22,2020_Jan_28_1551,spring_faces,3.1.5,60.08450091846241,
condition files/Stage1_2.xlsx,,B3,T4,m,"['c', 'm']","['Clue', 'Monopoly']","[-0.15, 0.5]","[0.15, 0.5]",1,1,,,,,,,,,0,11,11,11,0,1,1,6,,,,,,,,,,,,,,,,,,,,,,,,,,,,,,,,,,,,,,,,,,,,,,,,,,,,,,,853.5061507259998,None,853.5061507259998,None,853.5061507259998,None,m,1,0.7535037189991272,855.038581175002,None,855.038581175002,None,855.038581175002,None,855.8728799689998,None,855.8728799689998,None,855.8728799689998,None,855.8728799689998,None,,,,,,,,,,,,,,,,,,,,,,,,,,,,,,,,,,,,,,,,,,,,001,22,2020_Jan_28_1551,spring_faces,3.1.5,60.08450091846241,
condition files/Stage1_2.xlsx,,T1,B2,m,"['c', 'm']","['Clue', 'Monopoly']","[-0.15, 0.5]","[0.15, 0.5]",1,1,,,,,,,,,0,11,11,11,0,2,2,2,,,,,,,,,,,,,,,,,,,,,,,,,,,,,,,,,,,,,,,,,,,,,,,,,,,,,,,857.8225301210005,None,857.8225301210005,None,857.8225301210005,None,m,1,0.6444196900010866,859.3556788679998,None,859.3556788679998,None,859.3556788679998,None,860.0561735039992,None,860.0561735039992,None,860.0561735039992,None,860.0561735039992,None,,,,,,,,,,,,,,,,,,,,,,,,,,,,,,,,,,,,,,,,,,,,001,22,2020_Jan_28_1551,spring_faces,3.1.5,60.08450091846241,
condition files/Stage1_2.xlsx,,B2,T2,m,"['c', 'm']","['Clue', 'Monopoly']","[-0.15, 0.5]","[0.15, 0.5]",1,1,,,,,,,,,0,11,11,11,0,3,3,3,,,,,,,,,,,,,,,,,,,,,,,,,,,,,,,,,,,,,,,,,,,,,,,,,,,,,,,862.0217726129995,None,862.0217726129995,None,862.0217726129995,None,m,1,0.8281491859997914,863.5559065689995,None,863.5559065689995,None,863.5559065689995,None,864.4389454070006,None,864.4389454070006,None,864.4389454070006,None,864.4389454070006,None,,,,,,,,,,,,,,,,,,,,,,,,,,,,,,,,,,,,,,,,,,,,001,22,2020_Jan_28_1551,spring_faces,3.1.5,60.08450091846241,
condition files/Stage1_2.xlsx,,T3,B3,c,"['c', 'm']","['Clue', 'Monopoly']","[-0.15, 0.5]","[0.15, 0.5]",1,1,,,,,,,,,0,11,11,11,0,4,4,4,,,,,,,,,,,,,,,,,,,,,,,,,,,,,,,,,,,,,,,,,,,,,,,,,,,,,,,866.405942491001,None,866.405942491001,None,866.405942491001,None,c,1,0.5887809389969334,867.9393222950021,None,867.9393222950021,None,867.9393222950021,None,868.5887816800023,None,868.5887816800023,None,868.5887816800023,None,868.5887816800023,None,,,,,,,,,,,,,,,,,,,,,,,,,,,,,,,,,,,,,,,,,,,,001,22,2020_Jan_28_1551,spring_faces,3.1.5,60.08450091846241,
condition files/Stage1_2.xlsx,,T2,B1,c,"['c', 'm']","['Clue', 'Monopoly']","[-0.15, 0.5]","[0.15, 0.5]",1,1,,,,,,,,,0,11,11,11,0,5,5,1,,,,,,,,,,,,,,,,,,,,,,,,,,,,,,,,,,,,,,,,,,,,,,,,,,,,,,,870.5558121540016,None,870.5558121540016,None,870.5558121540016,None,c,1,0.5822054710006341,872.0899126629993,None,872.0899126629993,None,872.0899126629993,None,872.7220014170016,None,872.7220014170016,None,872.7220014170016,None,872.7220014170016,None,,,,,,,,,,,,,,,,,,,,,,,,,,,,,,,,,,,,,,,,,,,,001,22,2020_Jan_28_1551,spring_faces,3.1.5,60.08450091846241,
condition files/Stage1_2.xlsx,,T4,B4,m,"['c', 'm']","['Clue', 'Monopoly']","[-0.15, 0.5]","[0.15, 0.5]",1,1,,,,,,,,,0,11,11,11,0,6,6,7,,,,,,,,,,,,,,,,,,,,,,,,,,,,,,,,,,,,,,,,,,,,,,,,,,,,,,,874.6885570310005,None,874.6885570310005,None,874.6885570310005,None,m,1,0.8474811910018616,876.2246402060009,None,876.2246402060009,None,876.2246402060009,None,877.1395387270022,None,877.1395387270022,None,877.1395387270022,None,877.1395387270022,None,,,,,,,,,,,,,,,,,,,,,,,,,,,,,,,,,,,,,,,,,,,,001,22,2020_Jan_28_1551,spring_faces,3.1.5,60.08450091846241,
condition files/Stage1_2.xlsx,,B1,T1,c,"['c', 'm']","['Clue', 'Monopoly']","[-0.15, 0.5]","[0.15, 0.5]",1,1,,,,,,,,,0,11,11,11,0,7,7,0,,,,,,,,,,,,,,,,,,,,,,,,,,,,,,,,,,,,,,,,,,,,,,,,,,,,,,,879.0886263620014,None,879.0886263620014,None,879.0886263620014,None,c,1,0.673679395000363,880.6224637949999,None,880.6224637949999,None,880.6224637949999,None,881.3559756790019,None,881.3559756790019,None,881.3559756790019,None,881.3559756790019,None,,,,,,,,,,,,,,,,,,,,,,,,,,,,,,,,,,,,,,,,,,,,001,22,2020_Jan_28_1551,spring_faces,3.1.5,60.08450091846241,
,,,,,,,,,,,,,,,,,,,,,,,,,,,,,,,,,,,,,,,,,,,,,,,,,,,,,,,,,,,,,,,,,,,,,,,,,,,,,,,,,,,,,,,,,,,,,,,,,,,,,,,,,,,,,,,,883.3392876760008,None,space,10.620972156997595,888.3391512220005,None,,,,,,,,,,,,,,,,,,,,,,,,,,,,,,001,22,2020_Jan_28_1551,spring_faces,3.1.5,60.08450091846241,
condition files/Stage2_1.xlsx,,B4,T4,r,"['s', 'r']","['Stratego', 'Risk']","[-0.15, 0.5]","[0.15, 0.5]",1,1,,,,,,,,,,,,,,,,,0,0,0,0,0,0,0,5,,,,,,,,,,,,,,,,,,,,,,,,,,,,,,,,,,,,,,,,,,,,,,,899.0219408910016,None,899.0219408910016,None,899.0219408910016,None,r,1,3.3944266560029064,900.5416929230014,None,900.5416929230014,None,900.5416929230014,None,904.006369191,None,904.006369191,None,904.006369191,None,904.006369191,None,,,,,,,,,,,,,,,888.3391512220005,None,,,,,,,,,,,,,,,,,,,,,,,,,,,,001,22,2020_Jan_28_1551,spring_faces,3.1.5,60.08450091846241,
condition files/Stage2_1.xlsx,,B2,T2,r,"['s', 'r']","['Stratego', 'Risk']","[-0.15, 0.5]","[0.15, 0.5]",1,1,,,,,,,,,,,,,,,,,0,0,0,0,0,1,1,3,,,,,,,,,,,,,,,,,,,,,,,,,,,,,,,,,,,,,,,,,,,,,,,905.9557719730001,None,905.9557719730001,None,905.9557719730001,None,r,1,1.6290051840005617,907.4910859260017,None,907.4910859260017,None,907.4910859260017,None,909.1726146530018,None,909.1726146530018,None,909.1726146530018,None,909.1726146530018,None,,,,,,,,,,,,,,,,,,,,,,,,,,,,,,,,,,,,,,,,,,,,001,22,2020_Jan_28_1551,spring_faces,3.1.5,60.08450091846241,
condition files/Stage2_1.xlsx,,T5,B5,s,"['s', 'r']","['Stratego', 'Risk']","[-0.15, 0.5]","[0.15, 0.5]",1,1,,,,,,,,,,,,,,,,,0,0,0,0,0,2,2,0,,,,,,,,,,,,,,,,,,,,,,,,,,,,,,,,,,,,,,,,,,,,,,,911.1395015029993,None,911.1395015029993,None,911.1395015029993,None,s,1,3.6477311919989006,912.6723562480001,None,912.6723562480001,None,912.6723562480001,None,916.3740647760023,None,916.3740647760023,None,916.3740647760023,None,916.3740647760023,None,,,,,,,,,,,,,,,,,,,,,,,,,,,,,,,,,,,,,,,,,,,,001,22,2020_Jan_28_1551,spring_faces,3.1.5,60.08450091846241,
condition files/Stage2_1.xlsx,,T1,B1,s,"['s', 'r']","['Stratego', 'Risk']","[-0.15, 0.5]","[0.15, 0.5]",1,1,,,,,,,,,,,,,,,,,0,0,0,0,0,3,3,2,,,,,,,,,,,,,,,,,,,,,,,,,,,,,,,,,,,,,,,,,,,,,,,918.3392329540002,None,918.3392329540002,None,918.3392329540002,None,r,0,2.4635007530014263,919.8725957560018,None,919.8725957560018,None,919.8725957560018,None,922.3894237060013,None,922.3894237060013,None,922.3894237060013,None,922.3894237060013,None,,,,,,,,,,,,,,,,,,,,,,,,,,,,,,,,,,,,,,,,,,,,001,22,2020_Jan_28_1551,spring_faces,3.1.5,60.08450091846241,
condition files/Stage2_1.xlsx,,T3,B3,s,"['s', 'r']","['Stratego', 'Risk']","[-0.15, 0.5]","[0.15, 0.5]",1,1,,,,,,,,,,,,,,,,,0,0,0,0,0,4,4,4,,,,,,,,,,,,,,,,,,,,,,,,,,,,,,,,,,,,,,,,,,,,,,,924.3560596560019,None,924.3560596560019,None,924.3560596560019,None,s,1,0.9901078270013386,925.8900512440014,None,925.8900512440014,None,925.8900512440014,None,926.9392055770004,None,926.9392055770004,None,926.9392055770004,None,926.9392055770004,None,,,,,,,,,,,,,,,,,,,,,,,,,,,,,,,,,,,,,,,,,,,,001,22,2020_Jan_28_1551,spring_faces,3.1.5,60.08450091846241,
condition files/Stage2_1.xlsx,,B6,T6,r,"['s', 'r']","['Stratego', 'Risk']","[-0.15, 0.5]","[0.15, 0.5]",1,1,,,,,,,,,,,,,,,,,0,0,0,0,0,5,5,1,,,,,,,,,,,,,,,,,,,,,,,,,,,,,,,,,,,,,,,,,,,,,,,928.9059196100025,None,928.9059196100025,None,928.9059196100025,None,s,0,1.2080843660005485,930.4400698169993,None,930.4400698169993,None,930.4400698169993,None,931.7221672119995,None,931.7221672119995,None,931.7221672119995,None,931.7221672119995,None,,,,,,,,,,,,,,,,,,,,,,,,,,,,,,,,,,,,,,,,,,,,001,22,2020_Jan_28_1551,spring_faces,3.1.5,60.08450091846241,
condition files/Stage2_2.xlsx,,T6,B6,r,"['s', 'r']","['Stratego', 'Risk']","[-0.15, 0.5]","[0.15, 0.5]",1,1,,,,,,,,,,,,,,,,,0,1,1,1,0,0,0,1,,,,,,,,,,,,,,,,,,,,,,,,,,,,,,,,,,,,,,,,,,,,,,,933.6886323530016,None,933.6886323530016,None,933.6886323530016,None,r,1,2.1215295090005384,935.2225785850023,None,935.2225785850023,None,935.2225785850023,None,937.4059969850023,None,937.4059969850023,None,937.4059969850023,None,937.4059969850023,None,,,,,,,,,,,,,,,,,,,,,,,,,,,,,,,,,,,,,,,,,,,,001,22,2020_Jan_28_1551,spring_faces,3.1.5,60.08450091846241,
condition files/Stage2_2.xlsx,,T4,B4,r,"['s', 'r']","['Stratego', 'Risk']","[-0.15, 0.5]","[0.15, 0.5]",1,1,,,,,,,,,,,,,,,,,0,1,1,1,0,1,1,5,,,,,,,,,,,,,,,,,,,,,,,,,,,,,,,,,,,,,,,,,,,,,,,939.3726512120011,None,939.3726512120011,None,939.3726512120011,None,r,1,2.0059532310006034,940.906145541001,None,940.906145541001,None,940.906145541001,None,942.9724370799995,None,942.9724370799995,None,942.9724370799995,None,942.9724370799995,None,,,,,,,,,,,,,,,,,,,,,,,,,,,,,,,,,,,,,,,,,,,,001,22,2020_Jan_28_1551,spring_faces,3.1.5,60.08450091846241,
condition files/Stage2_2.xlsx,,B3,T3,s,"['s', 'r']","['Stratego', 'Risk']","[-0.15, 0.5]","[0.15, 0.5]",1,1,,,,,,,,,,,,,,,,,0,1,1,1,0,2,2,4,,,,,,,,,,,,,,,,,,,,,,,,,,,,,,,,,,,,,,,,,,,,,,,944.9391168399998,None,944.9391168399998,None,944.9391168399998,None,s,1,1.4943747549987165,946.473758709999,None,946.473758709999,None,946.473758709999,None,948.024556548,None,948.024556548,None,948.024556548,None,948.024556548,None,,,,,,,,,,,,,,,,,,,,,,,,,,,,,,,,,,,,,,,,,,,,001,22,2020_Jan_28_1551,spring_faces,3.1.5,60.08450091846241,
condition files/Stage2_2.xlsx,,B5,T5,s,"['s', 'r']","['Stratego', 'Risk']","[-0.15, 0.5]","[0.15, 0.5]",1,1,,,,,,,,,,,,,,,,,0,1,1,1,0,3,3,0,,,,,,,,,,,,,,,,,,,,,,,,,,,,,,,,,,,,,,,,,,,,,,,949.9892715650021,None,949.9892715650021,None,949.9892715650021,None,r,0,2.0615334499998426,951.5225514740014,None,951.5225514740014,None,951.5225514740014,None,953.6395148020019,None,953.6395148020019,None,953.6395148020019,None,953.6395148020019,None,,,,,,,,,,,,,,,,,,,,,,,,,,,,,,,,,,,,,,,,,,,,001,22,2020_Jan_28_1551,spring_faces,3.1.5,60.08450091846241,
condition files/Stage2_2.xlsx,,B1,T1,s,"['s', 'r']","['Stratego', 'Risk']","[-0.15, 0.5]","[0.15, 0.5]",1,1,,,,,,,,,,,,,,,,,0,1,1,1,0,4,4,2,,,,,,,,,,,,,,,,,,,,,,,,,,,,,,,,,,,,,,,,,,,,,,,955.6059918339997,None,955.6059918339997,None,955.6059918339997,None,s,1,1.340866429000016,957.1393008250016,None,957.1393008250016,None,957.1393008250016,None,958.5392209420024,None,958.5392209420024,None,958.5392209420024,None,958.5392209420024,None,,,,,,,,,,,,,,,,,,,,,,,,,,,,,,,,,,,,,,,,,,,,001,22,2020_Jan_28_1551,spring_faces,3.1.5,60.08450091846241,
condition files/Stage2_2.xlsx,,T2,B2,r,"['s', 'r']","['Stratego', 'Risk']","[-0.15, 0.5]","[0.15, 0.5]",1,1,,,,,,,,,,,,,,,,,0,1,1,1,0,5,5,3,,,,,,,,,,,,,,,,,,,,,,,,,,,,,,,,,,,,,,,,,,,,,,,960.5051967229992,None,960.5051967229992,None,960.5051967229992,None,r,1,0.9530338530021254,962.0390764100011,None,962.0390764100011,None,962.0390764100011,None,963.0560428169993,None,963.0560428169993,None,963.0560428169993,None,963.0560428169993,None,,,,,,,,,,,,,,,,,,,,,,,,,,,,,,,,,,,,,,,,,,,,001,22,2020_Jan_28_1551,spring_faces,3.1.5,60.08450091846241,
condition files/Stage2_1.xlsx,,T3,B3,s,"['s', 'r']","['Stratego', 'Risk']","[-0.15, 0.5]","[0.15, 0.5]",1,1,,,,,,,,,,,,,,,,,0,2,2,2,0,0,0,4,,,,,,,,,,,,,,,,,,,,,,,,,,,,,,,,,,,,,,,,,,,,,,,965.0393837180018,None,965.0393837180018,None,965.0393837180018,None,s,1,1.5071109450000222,966.5730456630008,None,966.5730456630008,None,966.5730456630008,None,968.1420463100003,None,968.1420463100003,None,968.1420463100003,None,968.1420463100003,None,,,,,,,,,,,,,,,,,,,,,,,,,,,,,,,,,,,,,,,,,,,,001,22,2020_Jan_28_1551,spring_faces,3.1.5,60.08450091846241,
condition files/Stage2_1.xlsx,,B6,T6,r,"['s', 'r']","['Stratego', 'Risk']","[-0.15, 0.5]","[0.15, 0.5]",1,1,,,,,,,,,,,,,,,,,0,2,2,2,0,1,1,1,,,,,,,,,,,,,,,,,,,,,,,,,,,,,,,,,,,,,,,,,,,,,,,970.1058831789996,None,970.1058831789996,None,970.1058831789996,None,r,1,4.45710418699673,971.6390578259998,None,971.6390578259998,None,971.6390578259998,None,976.1569093180005,None,976.1569093180005,None,976.1569093180005,None,976.1569093180005,None,,,,,,,,,,,,,,,,,,,,,,,,,,,,,,,,,,,,,,,,,,,,001,22,2020_Jan_28_1551,spring_faces,3.1.5,60.08450091846241,
condition files/Stage2_1.xlsx,,B4,T4,r,"['s', 'r']","['Stratego', 'Risk']","[-0.15, 0.5]","[0.15, 0.5]",1,1,,,,,,,,,,,,,,,,,0,2,2,2,0,2,2,5,,,,,,,,,,,,,,,,,,,,,,,,,,,,,,,,,,,,,,,,,,,,,,,978.1220944920024,None,978.1220944920024,None,978.1220944920024,None,r,1,1.1600343460013391,979.6561287330005,None,979.6561287330005,None,979.6561287330005,None,980.8722506070008,None,980.8722506070008,None,980.8722506070008,None,980.8722506070008,None,,,,,,,,,,,,,,,,,,,,,,,,,,,,,,,,,,,,,,,,,,,,001,22,2020_Jan_28_1551,spring_faces,3.1.5,60.08450091846241,
condition files/Stage2_1.xlsx,,B2,T2,r,"['s', 'r']","['Stratego', 'Risk']","[-0.15, 0.5]","[0.15, 0.5]",1,1,,,,,,,,,,,,,,,,,0,2,2,2,0,3,3,3,,,,,,,,,,,,,,,,,,,,,,,,,,,,,,,,,,,,,,,,,,,,,,,982.8392136639995,None,982.8392136639995,None,982.8392136639995,None,r,1,0.907913543000177,984.3722184409999,None,984.3722184409999,None,984.3722184409999,None,985.3391975340019,None,985.3391975340019,None,985.3391975340019,None,985.3391975340019,None,,,,,,,,,,,,,,,,,,,,,,,,,,,,,,,,,,,,,,,,,,,,001,22,2020_Jan_28_1551,spring_faces,3.1.5,60.08450091846241,
condition files/Stage2_1.xlsx,,T5,B5,s,"['s', 'r']","['Stratego', 'Risk']","[-0.15, 0.5]","[0.15, 0.5]",1,1,,,,,,,,,,,,,,,,,0,2,2,2,0,4,4,0,,,,,,,,,,,,,,,,,,,,,,,,,,,,,,,,,,,,,,,,,,,,,,,987.3051502920025,None,987.3051502920025,None,987.3051502920025,None,s,1,0.5186636190010177,988.8414556960015,None,988.8414556960015,None,988.8414556960015,None,989.4237597850006,None,989.4237597850006,None,989.4237597850006,None,989.4237597850006,None,,,,,,,,,,,,,,,,,,,,,,,,,,,,,,,,,,,,,,,,,,,,001,22,2020_Jan_28_1551,spring_faces,3.1.5,60.08450091846241,
condition files/Stage2_1.xlsx,,T1,B1,s,"['s', 'r']","['Stratego', 'Risk']","[-0.15, 0.5]","[0.15, 0.5]",1,1,,,,,,,,,,,,,,,,,0,2,2,2,0,5,5,2,,,,,,,,,,,,,,,,,,,,,,,,,,,,,,,,,,,,,,,,,,,,,,,991.389530495002,None,991.389530495002,None,991.389530495002,None,s,1,1.0936387930014462,992.9225210930017,None,992.9225210930017,None,992.9225210930017,None,994.0729643199993,None,994.0729643199993,None,994.0729643199993,None,994.0729643199993,None,,,,,,,,,,,,,,,,,,,,,,,,,,,,,,,,,,,,,,,,,,,,001,22,2020_Jan_28_1551,spring_faces,3.1.5,60.08450091846241,
condition files/Stage2_2.xlsx,,T4,B4,r,"['s', 'r']","['Stratego', 'Risk']","[-0.15, 0.5]","[0.15, 0.5]",1,1,,,,,,,,,,,,,,,,,0,3,3,3,0,0,0,5,,,,,,,,,,,,,,,,,,,,,,,,,,,,,,,,,,,,,,,,,,,,,,,996.0554834249997,None,996.0554834249997,None,996.0554834249997,None,r,1,0.9219174690006184,997.6062053200003,None,997.6062053200003,None,997.6062053200003,None,998.6062039720018,None,998.6062039720018,None,998.6062039720018,None,998.6062039720018,None,,,,,,,,,,,,,,,,,,,,,,,,,,,,,,,,,,,,,,,,,,,,001,22,2020_Jan_28_1551,spring_faces,3.1.5,60.08450091846241,
condition files/Stage2_2.xlsx,,B3,T3,s,"['s', 'r']","['Stratego', 'Risk']","[-0.15, 0.5]","[0.15, 0.5]",1,1,,,,,,,,,,,,,,,,,0,3,3,3,0,1,1,4,,,,,,,,,,,,,,,,,,,,,,,,,,,,,,,,,,,,,,,,,,,,,,,1000.555909617,None,1000.555909617,None,1000.555909617,None,s,1,0.7405451450031251,1002.091549705001,None,1002.091549705001,None,1002.091549705001,None,1002.8920222769993,None,1002.8920222769993,None,1002.8920222769993,None,1002.8920222769993,None,,,,,,,,,,,,,,,,,,,,,,,,,,,,,,,,,,,,,,,,,,,,001,22,2020_Jan_28_1551,spring_faces,3.1.5,60.08450091846241,
condition files/Stage2_2.xlsx,,T6,B6,r,"['s', 'r']","['Stratego', 'Risk']","[-0.15, 0.5]","[0.15, 0.5]",1,1,,,,,,,,,,,,,,,,,0,3,3,3,0,2,2,1,,,,,,,,,,,,,,,,,,,,,,,,,,,,,,,,,,,,,,,,,,,,,,,1004.8553027310008,None,1004.8553027310008,None,1004.8553027310008,None,r,1,1.242817541002296,1006.3892707849991,None,1006.3892707849991,None,1006.3892707849991,None,1007.6918565070009,None,1007.6918565070009,None,1007.6918565070009,None,1007.6918565070009,None,,,,,,,,,,,,,,,,,,,,,,,,,,,,,,,,,,,,,,,,,,,,001,22,2020_Jan_28_1551,spring_faces,3.1.5,60.08450091846241,
condition files/Stage2_2.xlsx,,B1,T1,s,"['s', 'r']","['Stratego', 'Risk']","[-0.15, 0.5]","[0.15, 0.5]",1,1,,,,,,,,,,,,,,,,,0,3,3,3,0,3,3,2,,,,,,,,,,,,,,,,,,,,,,,,,,,,,,,,,,,,,,,,,,,,,,,1009.6558270060013,None,1009.6558270060013,None,1009.6558270060013,None,s,1,0.5543348870014597,1011.1897665069991,None,1011.1897665069991,None,1011.1897665069991,None,1011.8225830400006,None,1011.8225830400006,None,1011.8225830400006,None,1011.8225830400006,None,,,,,,,,,,,,,,,,,,,,,,,,,,,,,,,,,,,,,,,,,,,,001,22,2020_Jan_28_1551,spring_faces,3.1.5,60.08450091846241,
condition files/Stage2_2.xlsx,,B5,T5,s,"['s', 'r']","['Stratego', 'Risk']","[-0.15, 0.5]","[0.15, 0.5]",1,1,,,,,,,,,,,,,,,,,0,3,3,3,0,4,4,0,,,,,,,,,,,,,,,,,,,,,,,,,,,,,,,,,,,,,,,,,,,,,,,1013.772289976001,None,1013.772289976001,None,1013.772289976001,None,s,1,0.7581912570021814,1015.3059612079996,None,1015.3059612079996,None,1015.3059612079996,None,1016.123188567999,None,1016.123188567999,None,1016.123188567999,None,1016.123188567999,None,,,,,,,,,,,,,,,,,,,,,,,,,,,,,,,,,,,,,,,,,,,,001,22,2020_Jan_28_1551,spring_faces,3.1.5,60.08450091846241,
condition files/Stage2_2.xlsx,,T2,B2,r,"['s', 'r']","['Stratego', 'Risk']","[-0.15, 0.5]","[0.15, 0.5]",1,1,,,,,,,,,,,,,,,,,0,3,3,3,0,5,5,3,,,,,,,,,,,,,,,,,,,,,,,,,,,,,,,,,,,,,,,,,,,,,,,1018.0885665009991,None,1018.0885665009991,None,1018.0885665009991,None,r,1,0.5996524319998571,1019.6243588130019,None,1019.6243588130019,None,1019.6243588130019,None,1020.2909703719997,None,1020.2909703719997,None,1020.2909703719997,None,1020.2909703719997,None,,,,,,,,,,,,,,,,,,,,,,,,,,,,,,,,,,,,,,,,,,,,001,22,2020_Jan_28_1551,spring_faces,3.1.5,60.08450091846241,
condition files/Stage2_1.xlsx,,B6,T6,r,"['s', 'r']","['Stratego', 'Risk']","[-0.15, 0.5]","[0.15, 0.5]",1,1,,,,,,,,,,,,,,,,,0,4,4,4,0,0,0,1,,,,,,,,,,,,,,,,,,,,,,,,,,,,,,,,,,,,,,,,,,,,,,,1022.272440044002,None,1022.272440044002,None,1022.272440044002,None,r,1,1.0097535450004216,1023.8223406630023,None,1023.8223406630023,None,1023.8223406630023,None,1024.8886423850017,None,1024.8886423850017,None,1024.8886423850017,None,1024.8886423850017,None,,,,,,,,,,,,,,,,,,,,,,,,,,,,,,,,,,,,,,,,,,,,001,22,2020_Jan_28_1551,spring_faces,3.1.5,60.08450091846241,
condition files/Stage2_1.xlsx,,B4,T4,r,"['s', 'r']","['Stratego', 'Risk']","[-0.15, 0.5]","[0.15, 0.5]",1,1,,,,,,,,,,,,,,,,,0,4,4,4,0,1,1,5,,,,,,,,,,,,,,,,,,,,,,,,,,,,,,,,,,,,,,,,,,,,,,,1026.8557085970024,None,1026.8557085970024,None,1026.8557085970024,None,r,1,0.8750936709984671,1028.389068419001,None,1028.389068419001,None,1028.389068419001,None,1029.3225243580018,None,1029.3225243580018,None,1029.3225243580018,None,1029.3225243580018,None,,,,,,,,,,,,,,,,,,,,,,,,,,,,,,,,,,,,,,,,,,,,001,22,2020_Jan_28_1551,spring_faces,3.1.5,60.08450091846241,
condition files/Stage2_1.xlsx,,T1,B1,s,"['s', 'r']","['Stratego', 'Risk']","[-0.15, 0.5]","[0.15, 0.5]",1,1,,,,,,,,,,,,,,,,,0,4,4,4,0,2,2,2,,,,,,,,,,,,,,,,,,,,,,,,,,,,,,,,,,,,,,,,,,,,,,,1031.288521966002,None,1031.288521966002,None,1031.288521966002,None,s,1,0.7594003109988989,1032.8246888540016,None,1032.8246888540016,None,1032.8246888540016,None,1033.6396092030009,None,1033.6396092030009,None,1033.6396092030009,None,1033.6396092030009,None,,,,,,,,,,,,,,,,,,,,,,,,,,,,,,,,,,,,,,,,,,,,001,22,2020_Jan_28_1551,spring_faces,3.1.5,60.08450091846241,
