condsFile,subStage,cue1,cue2,correct,responseKeys,responseNames,cue1Position,cue2Position,cue1Opacity,cue2Opacity,stageLoop0.thisRepN,stageLoop0.thisTrialN,stageLoop0.thisN,stageLoop0.thisIndex,blockLoop0.thisRepN,blockLoop0.thisTrialN,blockLoop0.thisN,blockLoop0.thisIndex,stage1Loop.thisRepN,stage1Loop.thisTrialN,stage1Loop.thisN,stage1Loop.thisIndex,blockLoop1.thisRepN,blockLoop1.thisTrialN,blockLoop1.thisN,blockLoop1.thisIndex,stage2Loop.thisRepN,stage2Loop.thisTrialN,stage2Loop.thisN,stage2Loop.thisIndex,blockLoop2.thisRepN,blockLoop2.thisTrialN,blockLoop2.thisN,blockLoop2.thisIndex,testLoop.thisRepN,testLoop.thisTrialN,testLoop.thisN,testLoop.thisIndex,blockLoopTest.thisRepN,blockLoopTest.thisTrialN,blockLoopTest.thisN,blockLoopTest.thisIndex,cuePics,id_instr_text.started,id_instr_text.stopped,space_to_continue_2.started,space_to_continue_2.stopped,end_instructions_resp_3.keys,end_instructions_resp_3.rt,end_instructions_resp_3.started,end_instructions_resp_3.stopped,id_input_instr.started,id_input_instr.stopped,id_input_rect.started,id_input_rect.stopped,id_input_resp.keys,id_input_resp.rt,id_input_resp.started,id_input_resp.stopped,sonaID,id_input_text.started,id_input_text.stopped,final_text.started,final_text.stopped,instructions.started,instructions.stopped,end_instructions_resp.keys,end_instructions_resp.rt,end_instructions_resp.started,end_instructions_resp.stopped,space_to_continue.started,space_to_continue.stopped,instructions_stage0.started,instructions_stage0.stopped,end_instructions_resp_stage0.keys,end_instructions_resp_stage0.rt,end_instructions_resp_stage0.started,end_instructions_resp_stage0.stopped,space_to_continue_stage0.started,space_to_continue_stage0.stopped,text.started,text.stopped,resp_text1.started,resp_text1.stopped,resp_text2.started,resp_text2.stopped,trial_resp.keys,trial_resp.corr,trial_resp.rt,trial_resp.started,trial_resp.stopped,cue1Image.started,cue1Image.stopped,cue2Image.started,cue2Image.stopped,cue1Image_fb.started,cue1Image_fb.stopped,cue2Image_fb.started,cue2Image_fb.stopped,fb_text_answer.started,fb_text_answer.stopped,feedback_image.started,feedback_image.stopped,instructions_stage1.started,instructions_stage1.stopped,end_instructions_resp_stage1.keys,end_instructions_resp_stage1.rt,end_instructions_resp_stage1.started,end_instructions_resp_stage1.stopped,space_to_continue_stage1.started,space_to_continue_stage1.stopped,instructions_2.started,instructions_2.stopped,end_instructions_resp_2.keys,end_instructions_resp_2.rt,end_instructions_resp_2.started,end_instructions_resp_2.stopped,press_space_to_continue_stage2.started,press_space_to_continue_stage2.stopped,instructions_testStage1.started,instructions_testStage1.stopped,end_instructions_resp_test1.keys,end_instructions_resp_test1.rt,end_instructions_resp_test1.started,end_instructions_resp_test1.stopped,press_space_to_continue_test1.started,press_space_to_continue_test1.stopped,cue1Image_testChoice.started,cue1Image_testChoice.stopped,cue2Image_testChoice.started,cue2Image_testChoice.stopped,test_resp.keys,test_resp.corr,test_resp.rt,test_resp.started,test_resp.stopped,cue1Image_testConf.started,cue1Image_testConf.stopped,cue2Image_testConf.started,cue2Image_testConf.stopped,conf_reminder.started,conf_reminder.stopped,conf_rating.response,conf_rating.rt,conf_rating.started,conf_rating.stopped,session,participant,date,expName,psychopyVersion,frameRate,
,,,,,,,,,,,,,,,,,,,,,,,,,,,,,,,,,,,,,,,,,,,"{'none': 'pictures/20M_AN_C.png', 'alpha': 'pictures/SHINEd_melon.png', 'beta': 'pictures/SHINEd_pepper.png', 'theta': 'pictures/SHINEd_apple.png', 'phi': 'pictures/SHINEd_pear.png', 'T1': 'pictures/23M_AN_C.png', 'T2': 'pictures/20M_AN_C.png', 'T3': 'pictures/31M_AN_C.png', 'T4': 'pictures/25M_AN_C.png', 'T5': 'pictures/22M_AN_C.png', 'T6': 'pictures/38M_AN_C.png', 'B1': 'pictures/26M_NE_C.png', 'B2': 'pictures/34M_NE_C.png', 'B3': 'pictures/36M_NE_C.png', 'B4': 'pictures/33M_NE_C.png', 'B5': 'pictures/37M_NE_C.png', 'B6': 'pictures/32M_NE_C.png'}",16.376424085000508,None,21.359751890000553,None,space,37.665172558999984,21.359751890000553,None,,,,,,,,,,,,,,,,,,,,,,,,,,,,,,,,,,,,,,,,,,,,,,,,,,,,,,,,,,,,,,,,,,,,,,,,,,,,,,,,,,,,,,,,,,,,,,,,001,26,2020_Jan_30_0948,spring_faces,3.1.5,59.89458086594181,
,,,,,,,,,,,,,,,,,,,,,,,,,,,,,,,,,,,,,,,,,,,,,,,,,,,,59.47615968300033,None,59.47615968300033,None,"['0', '8', '1', '8', 'k', 'a', 'r', 'o', 'c', 'backspace', '0', '8', '1', '8', 'k', 'a', 'r', 'o', 'c', '0', '8', '1', '8', 'k', 'a', 'r', 'o', 'c']","[5.37279560099978, 5.740768241000296, 7.964773839999907, 8.70074600299995, 19.964770960999886, 20.156785571, 25.612760666000213, 25.80479270500018, 26.0127341590005, 29.676842322000084, 34.82874591400014, 35.08472245499979, 37.00477604600019, 37.27676840700042, 38.732781927999895, 38.924830576000204, 43.11677704500016, 43.48475015300028, 44.428750949999994, 71.18077072000051, 71.3887776520005, 71.67675083500035, 71.7887939809998, 76.95679303399993, 77.03678091300026, 79.06872185199973, 79.22876481700041, 79.38879251599974]",59.47615968300033,None,,,,,,,,,,,,,,,,,,,,,,,,,,,,,,,,,,,,,,,,,,,,,,,,,,,,,,,,,,,,,,,,,,,,,,,,,,,,,,,,,,,,,,,,001,26,2020_Jan_30_0948,spring_faces,3.1.5,59.89458086594181,
,,,,,,,,,,,,,,,,,,,,,,,,,,,,,,,,,,,,,,,,,,,,,,,,,,,,,,,,,,,,0818karoc,59.47615968300033,None,59.47615968300033,None,143.9438431489998,None,space,1.7939210849999654,148.94308701299997,None,,,,,,,,,,,,,,,,,,,,,,,,,,,,,,,,,,,,,,,,,,,,,,,,,,,,,,,,,,,,,,,,,,,,,,,,,,,,,001,26,2020_Jan_30_0948,spring_faces,3.1.5,59.89458086594181,
,,,,,,,,,,,,,,,,,,,,,,,,,,,,,,,,,,,,,,,,,,,,,,,,,,,,,,,,,,,,,,,,,,,,,,,148.94308701299997,None,150.7766645490001,None,space,4.512074356999619,155.77687556599994,None,,,,,,,,,,,,,,,,,,,,,,,,,,,,,,,,,,,,,,,,,,,,,,,,,,,,,,,,,,,,,,,,,,,,,001,26,2020_Jan_30_0948,spring_faces,3.1.5,59.89458086594181,
condition files/Stage0a.xlsx,0a,alpha,none,h,"['h', 'g']","['Chess', 'Go']","[0, 0.5]","[0, 0]",1,0,0,0,0,0,0,0,0,0,,,,,,,,,,,,,,,,,,,,,,,,,,,,,,,,,,,,,,,,,,,,,,,,,,,,,,,,,,,,,155.77687556599994,None,160.39307153699974,None,160.39307153699974,None,160.39307153699974,None,h,1,1.7325493219996133,161.96440243000052,None,161.96440243000052,None,161.96440243000052,None,163.82673652500034,None,163.82673652500034,None,163.82673652500034,None,163.82673652500034,None,,,,,,,,,,,,,,,,,,,,,,,,,,,,,,,,,,,,,,,,,,,,001,26,2020_Jan_30_0948,spring_faces,3.1.5,59.89458086594181,
condition files/Stage0a.xlsx,0a,beta,none,g,"['h', 'g']","['Chess', 'Go']","[0, 0.5]","[0, 0]",1,0,0,0,0,0,0,1,1,1,,,,,,,,,,,,,,,,,,,,,,,,,,,,,,,,,,,,,,,,,,,,,,,,,,,,,,,,,,,,,,,165.72634881500016,None,165.72634881500016,None,165.72634881500016,None,h,0,1.6360731770000712,167.26086562599994,None,167.26086562599994,None,167.26086562599994,None,168.9932338409999,None,168.9932338409999,None,168.9932338409999,None,168.9932338409999,None,,,,,,,,,,,,,,,,,,,,,,,,,,,,,,,,,,,,,,,,,,,,001,26,2020_Jan_30_0948,spring_faces,3.1.5,59.89458086594181,
condition files/Stage0a.xlsx,0a,beta,none,g,"['h', 'g']","['Chess', 'Go']","[0, 0.5]","[0, 0]",1,0,0,1,1,1,0,0,0,1,,,,,,,,,,,,,,,,,,,,,,,,,,,,,,,,,,,,,,,,,,,,,,,,,,,,,,,,,,,,,,,170.942870115,None,170.942870115,None,170.942870115,None,g,1,0.6766931809997914,172.4603142370006,None,172.4603142370006,None,172.4603142370006,None,173.19345937900016,None,173.19345937900016,None,173.19345937900016,None,173.19345937900016,None,,,,,,,,,,,,,,,,,,,,,,,,,,,,,,,,,,,,,,,,,,,,001,26,2020_Jan_30_0948,spring_faces,3.1.5,59.89458086594181,
condition files/Stage0a.xlsx,0a,alpha,none,h,"['h', 'g']","['Chess', 'Go']","[0, 0.5]","[0, 0]",1,0,0,1,1,1,0,1,1,0,,,,,,,,,,,,,,,,,,,,,,,,,,,,,,,,,,,,,,,,,,,,,,,,,,,,,,,,,,,,,,,175.15906522299974,None,175.15906522299974,None,175.15906522299974,None,h,1,0.7313005589994646,176.69363502099986,None,176.69363502099986,None,176.69363502099986,None,177.476627217,None,177.476627217,None,177.476627217,None,177.476627217,None,,,,,,,,,,,,,,,,,,,,,,,,,,,,,,,,,,,,,,,,,,,,001,26,2020_Jan_30_0948,spring_faces,3.1.5,59.89458086594181,
condition files/Stage0a.xlsx,0a,alpha,none,h,"['h', 'g']","['Chess', 'Go']","[0, 0.5]","[0, 0]",1,0,0,2,2,2,0,0,0,0,,,,,,,,,,,,,,,,,,,,,,,,,,,,,,,,,,,,,,,,,,,,,,,,,,,,,,,,,,,,,,,179.46013750600014,None,179.46013750600014,None,179.46013750600014,None,h,1,0.7037807249998878,180.9931650770004,None,180.9931650770004,None,180.9931650770004,None,181.75987159000033,None,181.75987159000033,None,181.75987159000033,None,181.75987159000033,None,,,,,,,,,,,,,,,,,,,,,,,,,,,,,,,,,,,,,,,,,,,,001,26,2020_Jan_30_0948,spring_faces,3.1.5,59.89458086594181,
condition files/Stage0a.xlsx,0a,beta,none,g,"['h', 'g']","['Chess', 'Go']","[0, 0.5]","[0, 0]",1,0,0,2,2,2,0,1,1,1,,,,,,,,,,,,,,,,,,,,,,,,,,,,,,,,,,,,,,,,,,,,,,,,,,,,,,,,,,,,,,,183.72637220399974,None,183.72637220399974,None,183.72637220399974,None,g,1,0.4536498699999356,185.25927705699996,None,185.25927705699996,None,185.25927705699996,None,185.7767449359999,None,185.7767449359999,None,185.7767449359999,None,185.7767449359999,None,,,,,,,,,,,,,,,,,,,,,,,,,,,,,,,,,,,,,,,,,,,,001,26,2020_Jan_30_0948,spring_faces,3.1.5,59.89458086594181,
condition files/Stage0a.xlsx,0a,alpha,none,h,"['h', 'g']","['Chess', 'Go']","[0, 0.5]","[0, 0]",1,0,0,3,3,3,0,0,0,0,,,,,,,,,,,,,,,,,,,,,,,,,,,,,,,,,,,,,,,,,,,,,,,,,,,,,,,,,,,,,,,187.7600377079998,None,187.7600377079998,None,187.7600377079998,None,h,1,0.41979764200004865,189.29314549599985,None,189.29314549599985,None,189.29314549599985,None,189.77635510399978,None,189.77635510399978,None,189.77635510399978,None,189.77635510399978,None,,,,,,,,,,,,,,,,,,,,,,,,,,,,,,,,,,,,,,,,,,,,001,26,2020_Jan_30_0948,spring_faces,3.1.5,59.89458086594181,
condition files/Stage0a.xlsx,0a,beta,none,g,"['h', 'g']","['Chess', 'Go']","[0, 0.5]","[0, 0]",1,0,0,3,3,3,0,1,1,1,,,,,,,,,,,,,,,,,,,,,,,,,,,,,,,,,,,,,,,,,,,,,,,,,,,,,,,,,,,,,,,191.7431460130001,None,191.7431460130001,None,191.7431460130001,None,g,1,0.4846033189996888,193.27629103300023,None,193.27629103300023,None,193.27629103300023,None,193.8262798249998,None,193.8262798249998,None,193.8262798249998,None,193.8262798249998,None,,,,,,,,,,,,,,,,,,,,,,,,,,,,,,,,,,,,,,,,,,,,001,26,2020_Jan_30_0948,spring_faces,3.1.5,59.89458086594181,
condition files/Stage0a.xlsx,0a,alpha,none,h,"['h', 'g']","['Chess', 'Go']","[0, 0.5]","[0, 0]",1,0,0,4,4,4,0,0,0,0,,,,,,,,,,,,,,,,,,,,,,,,,,,,,,,,,,,,,,,,,,,,,,,,,,,,,,,,,,,,,,,195.81029001200022,None,195.81029001200022,None,195.81029001200022,None,h,1,0.9130286330000672,197.34385487800046,None,197.34385487800046,None,197.34385487800046,None,198.31033461400057,None,198.31033461400057,None,198.31033461400057,None,198.31033461400057,None,,,,,,,,,,,,,,,,,,,,,,,,,,,,,,,,,,,,,,,,,,,,001,26,2020_Jan_30_0948,spring_faces,3.1.5,59.89458086594181,
condition files/Stage0a.xlsx,0a,beta,none,g,"['h', 'g']","['Chess', 'Go']","[0, 0.5]","[0, 0]",1,0,0,4,4,4,0,1,1,1,,,,,,,,,,,,,,,,,,,,,,,,,,,,,,,,,,,,,,,,,,,,,,,,,,,,,,,,,,,,,,,200.27636679700026,None,200.27636679700026,None,200.27636679700026,None,g,1,0.7511028419994545,201.80978655000035,None,201.80978655000035,None,201.80978655000035,None,202.62578068899984,None,202.62578068899984,None,202.62578068899984,None,202.62578068899984,None,,,,,,,,,,,,,,,,,,,,,,,,,,,,,,,,,,,,,,,,,,,,001,26,2020_Jan_30_0948,spring_faces,3.1.5,59.89458086594181,
condition files/Stage0a.xlsx,0a,alpha,none,h,"['h', 'g']","['Chess', 'Go']","[0, 0.5]","[0, 0]",1,0,0,5,5,5,0,0,0,0,,,,,,,,,,,,,,,,,,,,,,,,,,,,,,,,,,,,,,,,,,,,,,,,,,,,,,,,,,,,,,,204.61004226499972,None,204.61004226499972,None,204.61004226499972,None,h,1,1.2820932109998466,206.14284175500052,None,206.14284175500052,None,206.14284175500052,None,207.4766006760001,None,207.4766006760001,None,207.4766006760001,None,207.4766006760001,None,,,,,,,,,,,,,,,,,,,,,,,,,,,,,,,,,,,,,,,,,,,,001,26,2020_Jan_30_0948,spring_faces,3.1.5,59.89458086594181,
condition files/Stage0a.xlsx,0a,beta,none,g,"['h', 'g']","['Chess', 'Go']","[0, 0.5]","[0, 0]",1,0,0,5,5,5,0,1,1,1,,,,,,,,,,,,,,,,,,,,,,,,,,,,,,,,,,,,,,,,,,,,,,,,,,,,,,,,,,,,,,,209.44302684800004,None,209.44302684800004,None,209.44302684800004,None,g,1,0.49616315999992366,210.9767541050005,None,210.9767541050005,None,210.9767541050005,None,211.52697362100025,None,211.52697362100025,None,211.52697362100025,None,211.52697362100025,None,,,,,,,,,,,,,,,,,,,,,,,,,,,,,,,,,,,,,,,,,,,,001,26,2020_Jan_30_0948,spring_faces,3.1.5,59.89458086594181,
condition files/Stage0b_1.xlsx,0b,none,beta,g,"['h', 'g']","['Chess', 'Go']","[-0.15, 0.5]","[0.15, 0.5]",0,1,0,6,6,6,0,0,0,1,,,,,,,,,,,,,,,,,,,,,,,,,,,,,,,,,,,,,,,,,,,,,,,,,,,,,,,,,,,,,,,213.5603574530005,None,213.5603574530005,None,213.5603574530005,None,g,1,0.5565441670005384,215.06045014099982,None,215.06045014099982,None,215.06045014099982,None,215.67642564900052,None,215.67642564900052,None,215.67642564900052,None,215.67642564900052,None,,,,,,,,,,,,,,,,,,,,,,,,,,,,,,,,,,,,,,,,,,,,001,26,2020_Jan_30_0948,spring_faces,3.1.5,59.89458086594181,
condition files/Stage0b_1.xlsx,0b,alpha,none,h,"['h', 'g']","['Chess', 'Go']","[-0.15, 0.5]","[0.15, 0.5]",1,0,0,6,6,6,0,1,1,0,,,,,,,,,,,,,,,,,,,,,,,,,,,,,,,,,,,,,,,,,,,,,,,,,,,,,,,,,,,,,,,217.64301479799997,None,217.64301479799997,None,217.64301479799997,None,h,1,0.4347957640002278,219.18218759800038,None,219.18218759800038,None,219.18218759800038,None,219.6789366840003,None,219.6789366840003,None,219.6789366840003,None,219.6789366840003,None,,,,,,,,,,,,,,,,,,,,,,,,,,,,,,,,,,,,,,,,,,,,001,26,2020_Jan_30_0948,spring_faces,3.1.5,59.89458086594181,
condition files/Stage0b_2.xlsx,0b,none,alpha,h,"['h', 'g']","['Chess', 'Go']","[-0.15, 0.5]","[0.15, 0.5]",0,1,0,7,7,7,0,0,0,0,,,,,,,,,,,,,,,,,,,,,,,,,,,,,,,,,,,,,,,,,,,,,,,,,,,,,,,,,,,,,,,221.69389136100017,None,221.69389136100017,None,221.69389136100017,None,h,1,0.5666821980003078,223.1942424050003,None,223.1942424050003,None,223.1942424050003,None,223.82610993900016,None,223.82610993900016,None,223.82610993900016,None,223.82610993900016,None,,,,,,,,,,,,,,,,,,,,,,,,,,,,,,,,,,,,,,,,,,,,001,26,2020_Jan_30_0948,spring_faces,3.1.5,59.89458086594181,
condition files/Stage0b_2.xlsx,0b,beta,none,g,"['h', 'g']","['Chess', 'Go']","[-0.15, 0.5]","[0.15, 0.5]",1,0,0,7,7,7,0,1,1,1,,,,,,,,,,,,,,,,,,,,,,,,,,,,,,,,,,,,,,,,,,,,,,,,,,,,,,,,,,,,,,,225.79239039200002,None,225.79239039200002,None,225.79239039200002,None,g,1,0.4815110010003991,227.34341046100053,None,227.34341046100053,None,227.34341046100053,None,227.8808879520002,None,227.8808879520002,None,227.8808879520002,None,227.8808879520002,None,,,,,,,,,,,,,,,,,,,,,,,,,,,,,,,,,,,,,,,,,,,,001,26,2020_Jan_30_0948,spring_faces,3.1.5,59.89458086594181,
condition files/Stage0b_1.xlsx,0b,none,beta,g,"['h', 'g']","['Chess', 'Go']","[-0.15, 0.5]","[0.15, 0.5]",0,1,0,8,8,8,0,0,0,1,,,,,,,,,,,,,,,,,,,,,,,,,,,,,,,,,,,,,,,,,,,,,,,,,,,,,,,,,,,,,,,229.86024346500017,None,229.86024346500017,None,229.86024346500017,None,g,1,0.9716218990006382,231.39737108400004,None,231.39737108400004,None,231.39737108400004,None,232.42607874999976,None,232.42607874999976,None,232.42607874999976,None,232.42607874999976,None,,,,,,,,,,,,,,,,,,,,,,,,,,,,,,,,,,,,,,,,,,,,001,26,2020_Jan_30_0948,spring_faces,3.1.5,59.89458086594181,
condition files/Stage0b_1.xlsx,0b,alpha,none,h,"['h', 'g']","['Chess', 'Go']","[-0.15, 0.5]","[0.15, 0.5]",1,0,0,8,8,8,0,1,1,0,,,,,,,,,,,,,,,,,,,,,,,,,,,,,,,,,,,,,,,,,,,,,,,,,,,,,,,,,,,,,,,234.39296825900055,None,234.39296825900055,None,234.39296825900055,None,h,1,0.6633336429995325,235.92959303800035,None,235.92959303800035,None,235.92959303800035,None,236.64531517500018,None,236.64531517500018,None,236.64531517500018,None,236.64531517500018,None,,,,,,,,,,,,,,,,,,,,,,,,,,,,,,,,,,,,,,,,,,,,001,26,2020_Jan_30_0948,spring_faces,3.1.5,59.89458086594181,
condition files/Stage0b_2.xlsx,0b,none,alpha,h,"['h', 'g']","['Chess', 'Go']","[-0.15, 0.5]","[0.15, 0.5]",0,1,0,9,9,9,0,0,0,0,,,,,,,,,,,,,,,,,,,,,,,,,,,,,,,,,,,,,,,,,,,,,,,,,,,,,,,,,,,,,,,238.62708959800057,None,238.62708959800057,None,238.62708959800057,None,h,1,0.4965558189996955,240.17639178799982,None,240.17639178799982,None,240.17639178799982,None,240.72615153200059,None,240.72615153200059,None,240.72615153200059,None,240.72615153200059,None,,,,,,,,,,,,,,,,,,,,,,,,,,,,,,,,,,,,,,,,,,,,001,26,2020_Jan_30_0948,spring_faces,3.1.5,59.89458086594181,
condition files/Stage0b_2.xlsx,0b,beta,none,g,"['h', 'g']","['Chess', 'Go']","[-0.15, 0.5]","[0.15, 0.5]",1,0,0,9,9,9,0,1,1,1,,,,,,,,,,,,,,,,,,,,,,,,,,,,,,,,,,,,,,,,,,,,,,,,,,,,,,,,,,,,,,,242.69309035100014,None,242.69309035100014,None,242.69309035100014,None,g,1,0.590148580999994,244.24277655100013,None,244.24277655100013,None,244.24277655100013,None,244.89461639900037,None,244.89461639900037,None,244.89461639900037,None,244.89461639900037,None,,,,,,,,,,,,,,,,,,,,,,,,,,,,,,,,,,,,,,,,,,,,001,26,2020_Jan_30_0948,spring_faces,3.1.5,59.89458086594181,
condition files/Stage0b_1.xlsx,0b,none,beta,g,"['h', 'g']","['Chess', 'Go']","[-0.15, 0.5]","[0.15, 0.5]",0,1,0,10,10,10,0,0,0,1,,,,,,,,,,,,,,,,,,,,,,,,,,,,,,,,,,,,,,,,,,,,,,,,,,,,,,,,,,,,,,,246.87666944100056,None,246.87666944100056,None,246.87666944100056,None,g,1,0.6446746920000805,248.4122906900002,None,248.4122906900002,None,248.4122906900002,None,249.10971191299996,None,249.10971191299996,None,249.10971191299996,None,249.10971191299996,None,,,,,,,,,,,,,,,,,,,,,,,,,,,,,,,,,,,,,,,,,,,,001,26,2020_Jan_30_0948,spring_faces,3.1.5,59.89458086594181,
condition files/Stage0b_1.xlsx,0b,alpha,none,h,"['h', 'g']","['Chess', 'Go']","[-0.15, 0.5]","[0.15, 0.5]",1,0,0,10,10,10,0,1,1,0,,,,,,,,,,,,,,,,,,,,,,,,,,,,,,,,,,,,,,,,,,,,,,,,,,,,,,,,,,,,,,,251.07642039999973,None,251.07642039999973,None,251.07642039999973,None,h,1,0.4781274980005037,252.61082940100005,None,252.61082940100005,None,252.61082940100005,None,253.14943028300058,None,253.14943028300058,None,253.14943028300058,None,253.14943028300058,None,,,,,,,,,,,,,,,,,,,,,,,,,,,,,,,,,,,,,,,,,,,,001,26,2020_Jan_30_0948,spring_faces,3.1.5,59.89458086594181,
condition files/Stage0b_2.xlsx,0b,none,alpha,h,"['h', 'g']","['Chess', 'Go']","[-0.15, 0.5]","[0.15, 0.5]",0,1,0,11,11,11,0,0,0,0,,,,,,,,,,,,,,,,,,,,,,,,,,,,,,,,,,,,,,,,,,,,,,,,,,,,,,,,,,,,,,,255.12664746800056,None,255.12664746800056,None,255.12664746800056,None,h,1,0.46058214399999997,256.6603568569999,None,256.6603568569999,None,256.6603568569999,None,257.17703010900004,None,257.17703010900004,None,257.17703010900004,None,257.17703010900004,None,,,,,,,,,,,,,,,,,,,,,,,,,,,,,,,,,,,,,,,,,,,,001,26,2020_Jan_30_0948,spring_faces,3.1.5,59.89458086594181,
condition files/Stage0b_2.xlsx,0b,beta,none,g,"['h', 'g']","['Chess', 'Go']","[-0.15, 0.5]","[0.15, 0.5]",1,0,0,11,11,11,0,1,1,1,,,,,,,,,,,,,,,,,,,,,,,,,,,,,,,,,,,,,,,,,,,,,,,,,,,,,,,,,,,,,,,259.14247205799984,None,259.14247205799984,None,259.14247205799984,None,g,1,0.5527447899994513,260.6802095820003,None,260.6802095820003,None,260.6802095820003,None,261.2944813889999,None,261.2944813889999,None,261.2944813889999,None,261.2944813889999,None,,,,,,,,,,,,,,,,,,,,,,,,,,,,,,,,,,,,,,,,,,,,001,26,2020_Jan_30_0948,spring_faces,3.1.5,59.89458086594181,
condition files/Stage0c_1.xlsx,0c,theta,alpha,h,"['h', 'g']","['Chess', 'Go']","[-0.15, 0.5]","[0.15, 0.5]",1,1,0,12,12,12,0,0,0,0,,,,,,,,,,,,,,,,,,,,,,,,,,,,,,,,,,,,,,,,,,,,,,,,,,,,,,,,,,,,,,,263.3093060629999,None,263.3093060629999,None,263.3093060629999,None,g,0,2.1341836239998884,264.82667919100004,None,264.82667919100004,None,264.82667919100004,None,267.02653091699995,None,267.02653091699995,None,267.02653091699995,None,267.02653091699995,None,,,,,,,,,,,,,,,,,,,,,,,,,,,,,,,,,,,,,,,,,,,,001,26,2020_Jan_30_0948,spring_faces,3.1.5,59.89458086594181,
condition files/Stage0c_1.xlsx,0c,beta,theta,g,"['h', 'g']","['Chess', 'Go']","[-0.15, 0.5]","[0.15, 0.5]",1,1,0,12,12,12,0,1,1,2,,,,,,,,,,,,,,,,,,,,,,,,,,,,,,,,,,,,,,,,,,,,,,,,,,,,,,,,,,,,,,,268.99309328399977,None,268.99309328399977,None,268.99309328399977,None,g,1,0.7541727099996933,270.52676317500027,None,270.52676317500027,None,270.52676317500027,None,271.34333911500016,None,271.34333911500016,None,271.34333911500016,None,271.34333911500016,None,,,,,,,,,,,,,,,,,,,,,,,,,,,,,,,,,,,,,,,,,,,,001,26,2020_Jan_30_0948,spring_faces,3.1.5,59.89458086594181,
condition files/Stage0c_1.xlsx,0c,alpha,phi,h,"['h', 'g']","['Chess', 'Go']","[-0.15, 0.5]","[0.15, 0.5]",1,1,0,12,12,12,0,2,2,1,,,,,,,,,,,,,,,,,,,,,,,,,,,,,,,,,,,,,,,,,,,,,,,,,,,,,,,,,,,,,,,273.30970243499996,None,273.30970243499996,None,273.30970243499996,None,h,1,0.836313058000087,274.87661713299985,None,274.87661713299985,None,274.87661713299985,None,275.77636041000005,None,275.77636041000005,None,275.77636041000005,None,275.77636041000005,None,,,,,,,,,,,,,,,,,,,,,,,,,,,,,,,,,,,,,,,,,,,,001,26,2020_Jan_30_0948,spring_faces,3.1.5,59.89458086594181,
condition files/Stage0c_1.xlsx,0c,phi,beta,g,"['h', 'g']","['Chess', 'Go']","[-0.15, 0.5]","[0.15, 0.5]",1,1,0,12,12,12,0,3,3,3,,,,,,,,,,,,,,,,,,,,,,,,,,,,,,,,,,,,,,,,,,,,,,,,,,,,,,,,,,,,,,,277.74321767200036,None,277.74321767200036,None,277.74321767200036,None,g,1,0.5483764850005173,279.27654999900005,None,279.27654999900005,None,279.27654999900005,None,279.8763563150005,None,279.8763563150005,None,279.8763563150005,None,279.8763563150005,None,,,,,,,,,,,,,,,,,,,,,,,,,,,,,,,,,,,,,,,,,,,,001,26,2020_Jan_30_0948,spring_faces,3.1.5,59.89458086594181,
condition files/Stage0c_2.xlsx,0c,phi,alpha,h,"['h', 'g']","['Chess', 'Go']","[-0.15, 0.5]","[0.15, 0.5]",1,1,0,13,13,13,0,0,0,1,,,,,,,,,,,,,,,,,,,,,,,,,,,,,,,,,,,,,,,,,,,,,,,,,,,,,,,,,,,,,,,281.8933407700006,None,281.8933407700006,None,281.8933407700006,None,h,1,0.528017818999615,283.39288475800004,None,283.39288475800004,None,283.39288475800004,None,283.9767424870006,None,283.9767424870006,None,283.9767424870006,None,283.9767424870006,None,,,,,,,,,,,,,,,,,,,,,,,,,,,,,,,,,,,,,,,,,,,,001,26,2020_Jan_30_0948,spring_faces,3.1.5,59.89458086594181,
condition files/Stage0c_2.xlsx,0c,beta,phi,g,"['h', 'g']","['Chess', 'Go']","[-0.15, 0.5]","[0.15, 0.5]",1,1,0,13,13,13,0,1,1,3,,,,,,,,,,,,,,,,,,,,,,,,,,,,,,,,,,,,,,,,,,,,,,,,,,,,,,,,,,,,,,,285.94333213400023,None,285.94333213400023,None,285.94333213400023,None,g,1,0.47619050400044216,287.4767228740002,None,287.4767228740002,None,287.4767228740002,None,288.0097172679998,None,288.0097172679998,None,288.0097172679998,None,288.0097172679998,None,,,,,,,,,,,,,,,,,,,,,,,,,,,,,,,,,,,,,,,,,,,,001,26,2020_Jan_30_0948,spring_faces,3.1.5,59.89458086594181,
condition files/Stage0c_2.xlsx,0c,theta,beta,g,"['h', 'g']","['Chess', 'Go']","[-0.15, 0.5]","[0.15, 0.5]",1,1,0,13,13,13,0,2,2,2,,,,,,,,,,,,,,,,,,,,,,,,,,,,,,,,,,,,,,,,,,,,,,,,,,,,,,,,,,,,,,,289.97617021899987,None,289.97617021899987,None,289.97617021899987,None,g,1,1.0989902780002012,291.5099325789997,None,291.5099325789997,None,291.5099325789997,None,292.64436895000017,None,292.64436895000017,None,292.64436895000017,None,292.64436895000017,None,,,,,,,,,,,,,,,,,,,,,,,,,,,,,,,,,,,,,,,,,,,,001,26,2020_Jan_30_0948,spring_faces,3.1.5,59.89458086594181,
condition files/Stage0c_2.xlsx,0c,alpha,theta,h,"['h', 'g']","['Chess', 'Go']","[-0.15, 0.5]","[0.15, 0.5]",1,1,0,13,13,13,0,3,3,0,,,,,,,,,,,,,,,,,,,,,,,,,,,,,,,,,,,,,,,,,,,,,,,,,,,,,,,,,,,,,,,294.6433784689998,None,294.6433784689998,None,294.6433784689998,None,h,1,1.3608092959993883,296.1601034260002,None,296.1601034260002,None,296.1601034260002,None,297.5769056520003,None,297.5769056520003,None,297.5769056520003,None,297.5769056520003,None,,,,,,,,,,,,,,,,,,,,,,,,,,,,,,,,,,,,,,,,,,,,001,26,2020_Jan_30_0948,spring_faces,3.1.5,59.89458086594181,
condition files/Stage0c_1.xlsx,0c,theta,alpha,h,"['h', 'g']","['Chess', 'Go']","[-0.15, 0.5]","[0.15, 0.5]",1,1,0,14,14,14,0,0,0,0,,,,,,,,,,,,,,,,,,,,,,,,,,,,,,,,,,,,,,,,,,,,,,,,,,,,,,,,,,,,,,,299.56001159400057,None,299.56001159400057,None,299.56001159400057,None,h,1,0.9076030249998439,301.09339488299975,None,301.09339488299975,None,301.09339488299975,None,302.04436065400023,None,302.04436065400023,None,302.04436065400023,None,302.04436065400023,None,,,,,,,,,,,,,,,,,,,,,,,,,,,,,,,,,,,,,,,,,,,,001,26,2020_Jan_30_0948,spring_faces,3.1.5,59.89458086594181,
condition files/Stage0c_1.xlsx,0c,beta,theta,g,"['h', 'g']","['Chess', 'Go']","[-0.15, 0.5]","[0.15, 0.5]",1,1,0,14,14,14,0,1,1,2,,,,,,,,,,,,,,,,,,,,,,,,,,,,,,,,,,,,,,,,,,,,,,,,,,,,,,,,,,,,,,,304.02632635900045,None,304.02632635900045,None,304.02632635900045,None,g,1,0.8415929410002718,305.55939836500056,None,305.55939836500056,None,305.55939836500056,None,306.459773132,None,306.459773132,None,306.459773132,None,306.459773132,None,,,,,,,,,,,,,,,,,,,,,,,,,,,,,,,,,,,,,,,,,,,,001,26,2020_Jan_30_0948,spring_faces,3.1.5,59.89458086594181,
condition files/Stage0c_1.xlsx,0c,phi,beta,g,"['h', 'g']","['Chess', 'Go']","[-0.15, 0.5]","[0.15, 0.5]",1,1,0,14,14,14,0,2,2,3,,,,,,,,,,,,,,,,,,,,,,,,,,,,,,,,,,,,,,,,,,,,,,,,,,,,,,,,,,,,,,,308.4264299329998,None,308.4264299329998,None,308.4264299329998,None,g,1,0.9376262060004592,309.9593114420004,None,309.9593114420004,None,309.9593114420004,None,310.9446459190003,None,310.9446459190003,None,310.9446459190003,None,310.9446459190003,None,,,,,,,,,,,,,,,,,,,,,,,,,,,,,,,,,,,,,,,,,,,,001,26,2020_Jan_30_0948,spring_faces,3.1.5,59.89458086594181,
condition files/Stage0c_1.xlsx,0c,alpha,phi,h,"['h', 'g']","['Chess', 'Go']","[-0.15, 0.5]","[0.15, 0.5]",1,1,0,14,14,14,0,3,3,1,,,,,,,,,,,,,,,,,,,,,,,,,,,,,,,,,,,,,,,,,,,,,,,,,,,,,,,,,,,,,,,312.9259542660002,None,312.9259542660002,None,312.9259542660002,None,h,1,1.2373761099997864,314.4595698660005,None,314.4595698660005,None,314.4595698660005,None,315.7594606020002,None,315.7594606020002,None,315.7594606020002,None,315.7594606020002,None,,,,,,,,,,,,,,,,,,,,,,,,,,,,,,,,,,,,,,,,,,,,001,26,2020_Jan_30_0948,spring_faces,3.1.5,59.89458086594181,
condition files/Stage0c_2.xlsx,0c,beta,phi,g,"['h', 'g']","['Chess', 'Go']","[-0.15, 0.5]","[0.15, 0.5]",1,1,0,15,15,15,0,0,0,3,,,,,,,,,,,,,,,,,,,,,,,,,,,,,,,,,,,,,,,,,,,,,,,,,,,,,,,,,,,,,,,317.7426343470006,None,317.7426343470006,None,317.7426343470006,None,g,1,1.124944375999803,319.27606342299987,None,319.27606342299987,None,319.27606342299987,None,320.4600151020004,None,320.4600151020004,None,320.4600151020004,None,320.4600151020004,None,,,,,,,,,,,,,,,,,,,,,,,,,,,,,,,,,,,,,,,,,,,,001,26,2020_Jan_30_0948,spring_faces,3.1.5,59.89458086594181,
condition files/Stage0c_2.xlsx,0c,theta,beta,g,"['h', 'g']","['Chess', 'Go']","[-0.15, 0.5]","[0.15, 0.5]",1,1,0,15,15,15,0,1,1,2,,,,,,,,,,,,,,,,,,,,,,,,,,,,,,,,,,,,,,,,,,,,,,,,,,,,,,,,,,,,,,,322.4261995880006,None,322.4261995880006,None,322.4261995880006,None,g,1,0.8256888810001328,323.9593045620004,None,323.9593045620004,None,323.9593045620004,None,324.82722044799993,None,324.82722044799993,None,324.82722044799993,None,324.82722044799993,None,,,,,,,,,,,,,,,,,,,,,,,,,,,,,,,,,,,,,,,,,,,,001,26,2020_Jan_30_0948,spring_faces,3.1.5,59.89458086594181,
condition files/Stage0c_2.xlsx,0c,alpha,theta,h,"['h', 'g']","['Chess', 'Go']","[-0.15, 0.5]","[0.15, 0.5]",1,1,0,15,15,15,0,2,2,0,,,,,,,,,,,,,,,,,,,,,,,,,,,,,,,,,,,,,,,,,,,,,,,,,,,,,,,,,,,,,,,326.8091817530003,None,326.8091817530003,None,326.8091817530003,None,h,1,0.47415511199960747,328.3428259680004,None,328.3428259680004,None,328.3428259680004,None,328.8766250210001,None,328.8766250210001,None,328.8766250210001,None,328.8766250210001,None,,,,,,,,,,,,,,,,,,,,,,,,,,,,,,,,,,,,,,,,,,,,001,26,2020_Jan_30_0948,spring_faces,3.1.5,59.89458086594181,
condition files/Stage0c_2.xlsx,0c,phi,alpha,h,"['h', 'g']","['Chess', 'Go']","[-0.15, 0.5]","[0.15, 0.5]",1,1,0,15,15,15,0,3,3,1,,,,,,,,,,,,,,,,,,,,,,,,,,,,,,,,,,,,,,,,,,,,,,,,,,,,,,,,,,,,,,,330.8432028420002,None,330.8432028420002,None,330.8432028420002,None,h,1,0.7125588079998124,332.3763770790001,None,332.3763770790001,None,332.3763770790001,None,333.1284369900004,None,333.1284369900004,None,333.1284369900004,None,333.1284369900004,None,,,,,,,,,,,,,,,,,,,,,,,,,,,,,,,,,,,,,,,,,,,,001,26,2020_Jan_30_0948,spring_faces,3.1.5,59.89458086594181,
condition files/Stage0c_1.xlsx,0c,theta,alpha,h,"['h', 'g']","['Chess', 'Go']","[-0.15, 0.5]","[0.15, 0.5]",1,1,0,16,16,16,0,0,0,0,,,,,,,,,,,,,,,,,,,,,,,,,,,,,,,,,,,,,,,,,,,,,,,,,,,,,,,,,,,,,,,335.1265626280001,None,335.1265626280001,None,335.1265626280001,None,h,1,0.5901175039998634,336.64281152700005,None,336.64281152700005,None,336.64281152700005,None,337.2787269420005,None,337.2787269420005,None,337.2787269420005,None,337.2787269420005,None,,,,,,,,,,,,,,,,,,,,,,,,,,,,,,,,,,,,,,,,,,,,001,26,2020_Jan_30_0948,spring_faces,3.1.5,59.89458086594181,
condition files/Stage0c_1.xlsx,0c,beta,theta,g,"['h', 'g']","['Chess', 'Go']","[-0.15, 0.5]","[0.15, 0.5]",1,1,0,16,16,16,0,1,1,2,,,,,,,,,,,,,,,,,,,,,,,,,,,,,,,,,,,,,,,,,,,,,,,,,,,,,,,,,,,,,,,339.25915247100056,None,339.25915247100056,None,339.25915247100056,None,g,1,0.7757334170000831,340.7932799649998,None,340.7932799649998,None,340.7932799649998,None,341.6267693760001,None,341.6267693760001,None,341.6267693760001,None,341.6267693760001,None,,,,,,,,,,,,,,,,,,,,,,,,,,,,,,,,,,,,,,,,,,,,001,26,2020_Jan_30_0948,spring_faces,3.1.5,59.89458086594181,
condition files/Stage0c_1.xlsx,0c,phi,beta,g,"['h', 'g']","['Chess', 'Go']","[-0.15, 0.5]","[0.15, 0.5]",1,1,0,16,16,16,0,2,2,3,,,,,,,,,,,,,,,,,,,,,,,,,,,,,,,,,,,,,,,,,,,,,,,,,,,,,,,,,,,,,,,343.59313047199976,None,343.59313047199976,None,343.59313047199976,None,g,1,0.9059759170004327,345.1269599449997,None,345.1269599449997,None,345.1269599449997,None,346.0782657939999,None,346.0782657939999,None,346.0782657939999,None,346.0782657939999,None,,,,,,,,,,,,,,,,,,,,,,,,,,,,,,,,,,,,,,,,,,,,001,26,2020_Jan_30_0948,spring_faces,3.1.5,59.89458086594181,
condition files/Stage0c_1.xlsx,0c,alpha,phi,h,"['h', 'g']","['Chess', 'Go']","[-0.15, 0.5]","[0.15, 0.5]",1,1,0,16,16,16,0,3,3,1,,,,,,,,,,,,,,,,,,,,,,,,,,,,,,,,,,,,,,,,,,,,,,,,,,,,,,,,,,,,,,,348.05924722500004,None,348.05924722500004,None,348.05924722500004,None,h,1,1.2239542960005565,349.59303592000015,None,349.59303592000015,None,349.59303592000015,None,350.8760697309999,None,350.8760697309999,None,350.8760697309999,None,350.8760697309999,None,,,,,,,,,,,,,,,,,,,,,,,,,,,,,,,,,,,,,,,,,,,,001,26,2020_Jan_30_0948,spring_faces,3.1.5,59.89458086594181,
condition files/Stage0c_2.xlsx,0c,beta,phi,g,"['h', 'g']","['Chess', 'Go']","[-0.15, 0.5]","[0.15, 0.5]",1,1,0,17,17,17,0,0,0,3,,,,,,,,,,,,,,,,,,,,,,,,,,,,,,,,,,,,,,,,,,,,,,,,,,,,,,,,,,,,,,,352.8596348640003,None,352.8596348640003,None,352.8596348640003,None,g,1,0.8082210090005901,354.3927794660003,None,354.3927794660003,None,354.3927794660003,None,355.25966496,None,355.25966496,None,355.25966496,None,355.25966496,None,,,,,,,,,,,,,,,,,,,,,,,,,,,,,,,,,,,,,,,,,,,,001,26,2020_Jan_30_0948,spring_faces,3.1.5,59.89458086594181,
condition files/Stage0c_2.xlsx,0c,theta,beta,g,"['h', 'g']","['Chess', 'Go']","[-0.15, 0.5]","[0.15, 0.5]",1,1,0,17,17,17,0,1,1,2,,,,,,,,,,,,,,,,,,,,,,,,,,,,,,,,,,,,,,,,,,,,,,,,,,,,,,,,,,,,,,,357.22633779700027,None,357.22633779700027,None,357.22633779700027,None,g,1,0.7928623660000085,358.7600399290004,None,358.7600399290004,None,358.7600399290004,None,359.59407866400034,None,359.59407866400034,None,359.59407866400034,None,359.59407866400034,None,,,,,,,,,,,,,,,,,,,,,,,,,,,,,,,,,,,,,,,,,,,,001,26,2020_Jan_30_0948,spring_faces,3.1.5,59.89458086594181,
condition files/Stage0c_2.xlsx,0c,phi,alpha,h,"['h', 'g']","['Chess', 'Go']","[-0.15, 0.5]","[0.15, 0.5]",1,1,0,17,17,17,0,2,2,1,,,,,,,,,,,,,,,,,,,,,,,,,,,,,,,,,,,,,,,,,,,,,,,,,,,,,,,,,,,,,,,361.5758857380006,None,361.5758857380006,None,361.5758857380006,None,h,1,1.323392724999394,363.1095425809999,None,363.1095425809999,None,363.1095425809999,None,364.4933378579999,None,364.4933378579999,None,364.4933378579999,None,364.4933378579999,None,,,,,,,,,,,,,,,,,,,,,,,,,,,,,,,,,,,,,,,,,,,,001,26,2020_Jan_30_0948,spring_faces,3.1.5,59.89458086594181,
condition files/Stage0c_2.xlsx,0c,alpha,theta,h,"['h', 'g']","['Chess', 'Go']","[-0.15, 0.5]","[0.15, 0.5]",1,1,0,17,17,17,0,3,3,0,,,,,,,,,,,,,,,,,,,,,,,,,,,,,,,,,,,,,,,,,,,,,,,,,,,,,,,,,,,,,,,366.461252952,None,366.461252952,None,366.461252952,None,h,1,1.1757148540000344,367.99327873200036,None,367.99327873200036,None,367.99327873200036,None,369.21127309799977,None,369.21127309799977,None,369.21127309799977,None,369.21127309799977,None,,,,,,,,,,,,,,,,,,,,,,,,,,,,,,,,,,,,,,,,,,,,001,26,2020_Jan_30_0948,spring_faces,3.1.5,59.89458086594181,
,,,,,,,,,,,,,,,,,,,,,,,,,,,,,,,,,,,,,,,,,,,,,,,,,,,,,,,,,,,,,,,,,,,,,,,,,,,,,,,,,,,,,,,,,,,,,,,,,,,,,,,,371.2100118979997,None,space,1.4710506840001472,376.20988788199975,None,,,,,,,,,,,,,,,,,,,,,,,,,,,,,,,,,,,,,,001,26,2020_Jan_30_0948,spring_faces,3.1.5,59.89458086594181,
condition files/Stage1_1.xlsx,,T2,B2,m,"['c', 'm']","['Clue', 'Monopoly']","[-0.15, 0.5]","[0.15, 0.5]",1,1,,,,,,,,,0,0,0,0,0,0,0,3,,,,,,,,,,,,,,,,,,,,,,,,,,,,,,,,,,,,,,,,,,,,,,,,,,,,,,,377.79303672900005,None,377.79303672900005,None,377.79303672900005,None,c,0,0.8837090229999376,379.293142689,None,379.293142689,None,379.293142689,None,380.25973634,None,380.25973634,None,380.25973634,None,380.25973634,None,,,,,,,376.20988788199975,None,,,,,,,,,,,,,,,,,,,,,,,,,,,,,,,,,,,,001,26,2020_Jan_30_0948,spring_faces,3.1.5,59.89458086594181,
condition files/Stage1_1.xlsx,,T1,B1,c,"['c', 'm']","['Clue', 'Monopoly']","[-0.15, 0.5]","[0.15, 0.5]",1,1,,,,,,,,,0,0,0,0,0,1,1,0,,,,,,,,,,,,,,,,,,,,,,,,,,,,,,,,,,,,,,,,,,,,,,,,,,,,,,,382.20960798800024,None,382.20960798800024,None,382.20960798800024,None,c,1,0.9432252749993495,383.8097182829997,None,383.8097182829997,None,383.8097182829997,None,384.826792758,None,384.826792758,None,384.826792758,None,384.826792758,None,,,,,,,,,,,,,,,,,,,,,,,,,,,,,,,,,,,,,,,,,,,,001,26,2020_Jan_30_0948,spring_faces,3.1.5,59.89458086594181,
condition files/Stage1_1.xlsx,,T4,B3,m,"['c', 'm']","['Clue', 'Monopoly']","[-0.15, 0.5]","[0.15, 0.5]",1,1,,,,,,,,,0,0,0,0,0,2,2,6,,,,,,,,,,,,,,,,,,,,,,,,,,,,,,,,,,,,,,,,,,,,,,,,,,,,,,,386.7757208439998,None,386.7757208439998,None,386.7757208439998,None,c,0,1.4009146609996606,388.3599916339999,None,388.3599916339999,None,388.3599916339999,None,389.8431997110001,None,389.8431997110001,None,389.8431997110001,None,389.8431997110001,None,,,,,,,,,,,,,,,,,,,,,,,,,,,,,,,,,,,,,,,,,,,,001,26,2020_Jan_30_0948,spring_faces,3.1.5,59.89458086594181,
condition files/Stage1_1.xlsx,,B2,T1,m,"['c', 'm']","['Clue', 'Monopoly']","[-0.15, 0.5]","[0.15, 0.5]",1,1,,,,,,,,,0,0,0,0,0,3,3,2,,,,,,,,,,,,,,,,,,,,,,,,,,,,,,,,,,,,,,,,,,,,,,,,,,,,,,,391.7930298299998,None,391.7930298299998,None,391.7930298299998,None,c,0,0.721186960000523,393.3437614230006,None,393.3437614230006,None,393.3437614230006,None,394.12689265800054,None,394.12689265800054,None,394.12689265800054,None,394.12689265800054,None,,,,,,,,,,,,,,,,,,,,,,,,,,,,,,,,,,,,,,,,,,,,001,26,2020_Jan_30_0948,spring_faces,3.1.5,59.89458086594181,
condition files/Stage1_1.xlsx,,B3,T3,c,"['c', 'm']","['Clue', 'Monopoly']","[-0.15, 0.5]","[0.15, 0.5]",1,1,,,,,,,,,0,0,0,0,0,4,4,4,,,,,,,,,,,,,,,,,,,,,,,,,,,,,,,,,,,,,,,,,,,,,,,,,,,,,,,396.09306368299985,None,396.09306368299985,None,396.09306368299985,None,c,1,1.0298249549996399,397.6431297220006,None,397.6431297220006,None,397.6431297220006,None,398.72730980600045,None,398.72730980600045,None,398.72730980600045,None,398.72730980600045,None,,,,,,,,,,,,,,,,,,,,,,,,,,,,,,,,,,,,,,,,,,,,001,26,2020_Jan_30_0948,spring_faces,3.1.5,59.89458086594181,
condition files/Stage1_1.xlsx,,T3,B4,c,"['c', 'm']","['Clue', 'Monopoly']","[-0.15, 0.5]","[0.15, 0.5]",1,1,,,,,,,,,0,0,0,0,0,5,5,5,,,,,,,,,,,,,,,,,,,,,,,,,,,,,,,,,,,,,,,,,,,,,,,,,,,,,,,400.69304237899996,None,400.69304237899996,None,400.69304237899996,None,c,1,1.2603061600002547,402.27667307499996,None,402.27667307499996,None,402.27667307499996,None,403.5921766090005,None,403.5921766090005,None,403.5921766090005,None,403.5921766090005,None,,,,,,,,,,,,,,,,,,,,,,,,,,,,,,,,,,,,,,,,,,,,001,26,2020_Jan_30_0948,spring_faces,3.1.5,59.89458086594181,
condition files/Stage1_1.xlsx,,B1,T2,c,"['c', 'm']","['Clue', 'Monopoly']","[-0.15, 0.5]","[0.15, 0.5]",1,1,,,,,,,,,0,0,0,0,0,6,6,1,,,,,,,,,,,,,,,,,,,,,,,,,,,,,,,,,,,,,,,,,,,,,,,,,,,,,,,405.5601267490001,None,405.5601267490001,None,405.5601267490001,None,m,0,0.74776407400077,407.09322433299985,None,407.09322433299985,None,407.09322433299985,None,407.8934026349998,None,407.8934026349998,None,407.8934026349998,None,407.8934026349998,None,,,,,,,,,,,,,,,,,,,,,,,,,,,,,,,,,,,,,,,,,,,,001,26,2020_Jan_30_0948,spring_faces,3.1.5,59.89458086594181,
condition files/Stage1_1.xlsx,,B4,T4,m,"['c', 'm']","['Clue', 'Monopoly']","[-0.15, 0.5]","[0.15, 0.5]",1,1,,,,,,,,,0,0,0,0,0,7,7,7,,,,,,,,,,,,,,,,,,,,,,,,,,,,,,,,,,,,,,,,,,,,,,,,,,,,,,,409.8598513200004,None,409.8598513200004,None,409.8598513200004,None,c,0,1.0549369330001355,411.4100012810004,None,411.4100012810004,None,411.4100012810004,None,412.5269889380006,None,412.5269889380006,None,412.5269889380006,None,412.5269889380006,None,,,,,,,,,,,,,,,,,,,,,,,,,,,,,,,,,,,,,,,,,,,,001,26,2020_Jan_30_0948,spring_faces,3.1.5,59.89458086594181,
condition files/Stage1_2.xlsx,,B1,T1,c,"['c', 'm']","['Clue', 'Monopoly']","[-0.15, 0.5]","[0.15, 0.5]",1,1,,,,,,,,,0,1,1,1,0,0,0,0,,,,,,,,,,,,,,,,,,,,,,,,,,,,,,,,,,,,,,,,,,,,,,,,,,,,,,,414.5273353550001,None,414.5273353550001,None,414.5273353550001,None,m,0,1.2049604209996687,416.0439929080003,None,416.0439929080003,None,416.0439929080003,None,417.31199536799977,None,417.31199536799977,None,417.31199536799977,None,417.31199536799977,None,,,,,,,,,,,,,,,,,,,,,,,,,,,,,,,,,,,,,,,,,,,,001,26,2020_Jan_30_0948,spring_faces,3.1.5,59.89458086594181,
condition files/Stage1_2.xlsx,,T3,B3,c,"['c', 'm']","['Clue', 'Monopoly']","[-0.15, 0.5]","[0.15, 0.5]",1,1,,,,,,,,,0,1,1,1,0,1,1,4,,,,,,,,,,,,,,,,,,,,,,,,,,,,,,,,,,,,,,,,,,,,,,,,,,,,,,,419.2762756580005,None,419.2762756580005,None,419.2762756580005,None,m,0,1.7330691379993368,420.8118788390002,None,420.8118788390002,None,420.8118788390002,None,422.61141955400035,None,422.61141955400035,None,422.61141955400035,None,422.61141955400035,None,,,,,,,,,,,,,,,,,,,,,,,,,,,,,,,,,,,,,,,,,,,,001,26,2020_Jan_30_0948,spring_faces,3.1.5,59.89458086594181,
condition files/Stage1_2.xlsx,,B3,T4,m,"['c', 'm']","['Clue', 'Monopoly']","[-0.15, 0.5]","[0.15, 0.5]",1,1,,,,,,,,,0,1,1,1,0,2,2,6,,,,,,,,,,,,,,,,,,,,,,,,,,,,,,,,,,,,,,,,,,,,,,,,,,,,,,,424.5764243900003,None,424.5764243900003,None,424.5764243900003,None,c,0,2.162250401000165,426.126642962,None,426.126642962,None,426.126642962,None,428.3601737560002,None,428.3601737560002,None,428.3601737560002,None,428.3601737560002,None,,,,,,,,,,,,,,,,,,,,,,,,,,,,,,,,,,,,,,,,,,,,001,26,2020_Jan_30_0948,spring_faces,3.1.5,59.89458086594181,
condition files/Stage1_2.xlsx,,B2,T2,m,"['c', 'm']","['Clue', 'Monopoly']","[-0.15, 0.5]","[0.15, 0.5]",1,1,,,,,,,,,0,1,1,1,0,3,3,3,,,,,,,,,,,,,,,,,,,,,,,,,,,,,,,,,,,,,,,,,,,,,,,,,,,,,,,430.309247487,None,430.309247487,None,430.309247487,None,m,1,1.3571955789993808,431.8437881730006,None,431.8437881730006,None,431.8437881730006,None,433.2599973430006,None,433.2599973430006,None,433.2599973430006,None,433.2599973430006,None,,,,,,,,,,,,,,,,,,,,,,,,,,,,,,,,,,,,,,,,,,,,001,26,2020_Jan_30_0948,spring_faces,3.1.5,59.89458086594181,
condition files/Stage1_2.xlsx,,B4,T3,c,"['c', 'm']","['Clue', 'Monopoly']","[-0.15, 0.5]","[0.15, 0.5]",1,1,,,,,,,,,0,1,1,1,0,4,4,5,,,,,,,,,,,,,,,,,,,,,,,,,,,,,,,,,,,,,,,,,,,,,,,,,,,,,,,435.2263895240003,None,435.2263895240003,None,435.2263895240003,None,m,0,1.928761733999636,436.76018772800035,None,436.76018772800035,None,436.76018772800035,None,438.74252333000004,None,438.74252333000004,None,438.74252333000004,None,438.74252333000004,None,,,,,,,,,,,,,,,,,,,,,,,,,,,,,,,,,,,,,,,,,,,,001,26,2020_Jan_30_0948,spring_faces,3.1.5,59.89458086594181,
condition files/Stage1_2.xlsx,,T4,B4,m,"['c', 'm']","['Clue', 'Monopoly']","[-0.15, 0.5]","[0.15, 0.5]",1,1,,,,,,,,,0,1,1,1,0,5,5,7,,,,,,,,,,,,,,,,,,,,,,,,,,,,,,,,,,,,,,,,,,,,,,,,,,,,,,,440.7098060850003,None,440.7098060850003,None,440.7098060850003,None,c,0,1.5958043250002447,442.24514074000035,None,442.24514074000035,None,442.24514074000035,None,443.89316146800047,None,443.89316146800047,None,443.89316146800047,None,443.89316146800047,None,,,,,,,,,,,,,,,,,,,,,,,,,,,,,,,,,,,,,,,,,,,,001,26,2020_Jan_30_0948,spring_faces,3.1.5,59.89458086594181,
condition files/Stage1_2.xlsx,,T1,B2,m,"['c', 'm']","['Clue', 'Monopoly']","[-0.15, 0.5]","[0.15, 0.5]",1,1,,,,,,,,,0,1,1,1,0,6,6,2,,,,,,,,,,,,,,,,,,,,,,,,,,,,,,,,,,,,,,,,,,,,,,,,,,,,,,,445.8594843970004,None,445.8594843970004,None,445.8594843970004,None,m,1,1.5659501789996284,447.3949092210005,None,447.3949092210005,None,447.3949092210005,None,449.02682437800013,None,449.02682437800013,None,449.02682437800013,None,449.02682437800013,None,,,,,,,,,,,,,,,,,,,,,,,,,,,,,,,,,,,,,,,,,,,,001,26,2020_Jan_30_0948,spring_faces,3.1.5,59.89458086594181,
condition files/Stage1_2.xlsx,,T2,B1,c,"['c', 'm']","['Clue', 'Monopoly']","[-0.15, 0.5]","[0.15, 0.5]",1,1,,,,,,,,,0,1,1,1,0,7,7,1,,,,,,,,,,,,,,,,,,,,,,,,,,,,,,,,,,,,,,,,,,,,,,,,,,,,,,,450.99339212799987,None,450.99339212799987,None,450.99339212799987,None,m,0,1.5202776060004908,452.5287331010004,None,452.5287331010004,None,452.5287331010004,None,454.1109780349998,None,454.1109780349998,None,454.1109780349998,None,454.1109780349998,None,,,,,,,,,,,,,,,,,,,,,,,,,,,,,,,,,,,,,,,,,,,,001,26,2020_Jan_30_0948,spring_faces,3.1.5,59.89458086594181,
condition files/Stage1_1.xlsx,,B2,T1,m,"['c', 'm']","['Clue', 'Monopoly']","[-0.15, 0.5]","[0.15, 0.5]",1,1,,,,,,,,,0,2,2,2,0,0,0,2,,,,,,,,,,,,,,,,,,,,,,,,,,,,,,,,,,,,,,,,,,,,,,,,,,,,,,,456.09284000000025,None,456.09284000000025,None,456.09284000000025,None,c,0,1.4131577309999557,457.6277960799998,None,457.6277960799998,None,457.6277960799998,None,459.09290125700045,None,459.09290125700045,None,459.09290125700045,None,459.09290125700045,None,,,,,,,,,,,,,,,,,,,,,,,,,,,,,,,,,,,,,,,,,,,,001,26,2020_Jan_30_0948,spring_faces,3.1.5,59.89458086594181,
condition files/Stage1_1.xlsx,,T4,B3,m,"['c', 'm']","['Clue', 'Monopoly']","[-0.15, 0.5]","[0.15, 0.5]",1,1,,,,,,,,,0,2,2,2,0,1,1,6,,,,,,,,,,,,,,,,,,,,,,,,,,,,,,,,,,,,,,,,,,,,,,,,,,,,,,,461.0599097840004,None,461.0599097840004,None,461.0599097840004,None,c,0,1.5828968069999974,462.6100357330006,None,462.6100357330006,None,462.6100357330006,None,464.2429984979999,None,464.2429984979999,None,464.2429984979999,None,464.2429984979999,None,,,,,,,,,,,,,,,,,,,,,,,,,,,,,,,,,,,,,,,,,,,,001,26,2020_Jan_30_0948,spring_faces,3.1.5,59.89458086594181,
condition files/Stage1_1.xlsx,,T2,B2,m,"['c', 'm']","['Clue', 'Monopoly']","[-0.15, 0.5]","[0.15, 0.5]",1,1,,,,,,,,,0,2,2,2,0,2,2,3,,,,,,,,,,,,,,,,,,,,,,,,,,,,,,,,,,,,,,,,,,,,,,,,,,,,,,,466.2097393140002,None,466.2097393140002,None,466.2097393140002,None,m,1,2.4818380349997824,467.74310666900055,None,467.74310666900055,None,467.74310666900055,None,470.2767759010003,None,470.2767759010003,None,470.2767759010003,None,470.2767759010003,None,,,,,,,,,,,,,,,,,,,,,,,,,,,,,,,,,,,,,,,,,,,,001,26,2020_Jan_30_0948,spring_faces,3.1.5,59.89458086594181,
condition files/Stage1_1.xlsx,,B4,T4,m,"['c', 'm']","['Clue', 'Monopoly']","[-0.15, 0.5]","[0.15, 0.5]",1,1,,,,,,,,,0,2,2,2,0,3,3,7,,,,,,,,,,,,,,,,,,,,,,,,,,,,,,,,,,,,,,,,,,,,,,,,,,,,,,,472.2425270149997,None,472.2425270149997,None,472.2425270149997,None,m,1,1.8713156249996246,473.7936148910003,None,473.7936148910003,None,473.7936148910003,None,475.7261113989998,None,475.7261113989998,None,475.7261113989998,None,475.7261113989998,None,,,,,,,,,,,,,,,,,,,,,,,,,,,,,,,,,,,,,,,,,,,,001,26,2020_Jan_30_0948,spring_faces,3.1.5,59.89458086594181,
condition files/Stage1_1.xlsx,,B3,T3,c,"['c', 'm']","['Clue', 'Monopoly']","[-0.15, 0.5]","[0.15, 0.5]",1,1,,,,,,,,,0,2,2,2,0,4,4,4,,,,,,,,,,,,,,,,,,,,,,,,,,,,,,,,,,,,,,,,,,,,,,,,,,,,,,,477.6931576050001,None,477.6931576050001,None,477.6931576050001,None,c,1,1.3803810380004506,479.22856689699984,None,479.22856689699984,None,479.22856689699984,None,480.6765236020001,None,480.6765236020001,None,480.6765236020001,None,480.6765236020001,None,,,,,,,,,,,,,,,,,,,,,,,,,,,,,,,,,,,,,,,,,,,,001,26,2020_Jan_30_0948,spring_faces,3.1.5,59.89458086594181,
condition files/Stage1_1.xlsx,,T3,B4,c,"['c', 'm']","['Clue', 'Monopoly']","[-0.15, 0.5]","[0.15, 0.5]",1,1,,,,,,,,,0,2,2,2,0,5,5,5,,,,,,,,,,,,,,,,,,,,,,,,,,,,,,,,,,,,,,,,,,,,,,,,,,,,,,,482.62638980300017,None,482.62638980300017,None,482.62638980300017,None,c,1,1.0388981649994093,484.16211538100015,None,484.16211538100015,None,484.16211538100015,None,485.259502934,None,485.259502934,None,485.259502934,None,485.259502934,None,,,,,,,,,,,,,,,,,,,,,,,,,,,,,,,,,,,,,,,,,,,,001,26,2020_Jan_30_0948,spring_faces,3.1.5,59.89458086594181,
condition files/Stage1_1.xlsx,,T1,B1,c,"['c', 'm']","['Clue', 'Monopoly']","[-0.15, 0.5]","[0.15, 0.5]",1,1,,,,,,,,,0,2,2,2,0,6,6,0,,,,,,,,,,,,,,,,,,,,,,,,,,,,,,,,,,,,,,,,,,,,,,,,,,,,,,,487.2264591180001,None,487.2264591180001,None,487.2264591180001,None,m,0,0.7925499050006692,488.7603877110005,None,488.7603877110005,None,488.7603877110005,None,489.60991236300015,None,489.60991236300015,None,489.60991236300015,None,489.60991236300015,None,,,,,,,,,,,,,,,,,,,,,,,,,,,,,,,,,,,,,,,,,,,,001,26,2020_Jan_30_0948,spring_faces,3.1.5,59.89458086594181,
condition files/Stage1_1.xlsx,,B1,T2,c,"['c', 'm']","['Clue', 'Monopoly']","[-0.15, 0.5]","[0.15, 0.5]",1,1,,,,,,,,,0,2,2,2,0,7,7,1,,,,,,,,,,,,,,,,,,,,,,,,,,,,,,,,,,,,,,,,,,,,,,,,,,,,,,,491.576478084,None,491.576478084,None,491.576478084,None,m,0,1.753593109000576,493.11136317399996,None,493.11136317399996,None,493.11136317399996,None,494.926910143,None,494.926910143,None,494.926910143,None,494.926910143,None,,,,,,,,,,,,,,,,,,,,,,,,,,,,,,,,,,,,,,,,,,,,001,26,2020_Jan_30_0948,spring_faces,3.1.5,59.89458086594181,
condition files/Stage1_2.xlsx,,T4,B4,m,"['c', 'm']","['Clue', 'Monopoly']","[-0.15, 0.5]","[0.15, 0.5]",1,1,,,,,,,,,0,3,3,3,0,0,0,7,,,,,,,,,,,,,,,,,,,,,,,,,,,,,,,,,,,,,,,,,,,,,,,,,,,,,,,496.9097478069998,None,496.9097478069998,None,496.9097478069998,None,m,1,1.285646760000418,498.4433028909998,None,498.4433028909998,None,498.4433028909998,None,499.79301866400056,None,499.79301866400056,None,499.79301866400056,None,499.79301866400056,None,,,,,,,,,,,,,,,,,,,,,,,,,,,,,,,,,,,,,,,,,,,,001,26,2020_Jan_30_0948,spring_faces,3.1.5,59.89458086594181,
condition files/Stage1_2.xlsx,,B1,T1,c,"['c', 'm']","['Clue', 'Monopoly']","[-0.15, 0.5]","[0.15, 0.5]",1,1,,,,,,,,,0,3,3,3,0,1,1,0,,,,,,,,,,,,,,,,,,,,,,,,,,,,,,,,,,,,,,,,,,,,,,,,,,,,,,,501.7598725170001,None,501.7598725170001,None,501.7598725170001,None,m,0,0.9934043329994893,503.2955495410006,None,503.2955495410006,None,503.2955495410006,None,504.34291675500026,None,504.34291675500026,None,504.34291675500026,None,504.34291675500026,None,,,,,,,,,,,,,,,,,,,,,,,,,,,,,,,,,,,,,,,,,,,,001,26,2020_Jan_30_0948,spring_faces,3.1.5,59.89458086594181,
condition files/Stage1_2.xlsx,,T2,B1,c,"['c', 'm']","['Clue', 'Monopoly']","[-0.15, 0.5]","[0.15, 0.5]",1,1,,,,,,,,,0,3,3,3,0,2,2,1,,,,,,,,,,,,,,,,,,,,,,,,,,,,,,,,,,,,,,,,,,,,,,,,,,,,,,,506.3092846110003,None,506.3092846110003,None,506.3092846110003,None,c,1,1.0052923069997632,507.8437074450003,None,507.8437074450003,None,507.8437074450003,None,508.90961084300034,None,508.90961084300034,None,508.90961084300034,None,508.90961084300034,None,,,,,,,,,,,,,,,,,,,,,,,,,,,,,,,,,,,,,,,,,,,,001,26,2020_Jan_30_0948,spring_faces,3.1.5,59.89458086594181,
condition files/Stage1_2.xlsx,,B4,T3,c,"['c', 'm']","['Clue', 'Monopoly']","[-0.15, 0.5]","[0.15, 0.5]",1,1,,,,,,,,,0,3,3,3,0,3,3,5,,,,,,,,,,,,,,,,,,,,,,,,,,,,,,,,,,,,,,,,,,,,,,,,,,,,,,,510.87583809700027,None,510.87583809700027,None,510.87583809700027,None,c,1,1.3659522580001067,512.4109354370003,None,512.4109354370003,None,512.4109354370003,None,513.8433489959998,None,513.8433489959998,None,513.8433489959998,None,513.8433489959998,None,,,,,,,,,,,,,,,,,,,,,,,,,,,,,,,,,,,,,,,,,,,,001,26,2020_Jan_30_0948,spring_faces,3.1.5,59.89458086594181,
condition files/Stage1_2.xlsx,,T3,B3,c,"['c', 'm']","['Clue', 'Monopoly']","[-0.15, 0.5]","[0.15, 0.5]",1,1,,,,,,,,,0,3,3,3,0,4,4,4,,,,,,,,,,,,,,,,,,,,,,,,,,,,,,,,,,,,,,,,,,,,,,,,,,,,,,,515.8092160739998,None,515.8092160739998,None,515.8092160739998,None,c,1,1.9689529459992627,517.3599421670006,None,517.3599421670006,None,517.3599421670006,None,519.3927123929998,None,519.3927123929998,None,519.3927123929998,None,519.3927123929998,None,,,,,,,,,,,,,,,,,,,,,,,,,,,,,,,,,,,,,,,,,,,,001,26,2020_Jan_30_0948,spring_faces,3.1.5,59.89458086594181,
condition files/Stage1_2.xlsx,,B3,T4,m,"['c', 'm']","['Clue', 'Monopoly']","[-0.15, 0.5]","[0.15, 0.5]",1,1,,,,,,,,,0,3,3,3,0,5,5,6,,,,,,,,,,,,,,,,,,,,,,,,,,,,,,,,,,,,,,,,,,,,,,,,,,,,,,,521.3602469449997,None,521.3602469449997,None,521.3602469449997,None,m,1,1.219689229999858,522.893271123,None,522.893271123,None,522.893271123,None,524.1764664090006,None,524.1764664090006,None,524.1764664090006,None,524.1764664090006,None,,,,,,,,,,,,,,,,,,,,,,,,,,,,,,,,,,,,,,,,,,,,001,26,2020_Jan_30_0948,spring_faces,3.1.5,59.89458086594181,
condition files/Stage1_2.xlsx,,B2,T2,m,"['c', 'm']","['Clue', 'Monopoly']","[-0.15, 0.5]","[0.15, 0.5]",1,1,,,,,,,,,0,3,3,3,0,6,6,3,,,,,,,,,,,,,,,,,,,,,,,,,,,,,,,,,,,,,,,,,,,,,,,,,,,,,,,526.1430384310006,None,526.1430384310006,None,526.1430384310006,None,m,1,2.691463840999859,527.6935283299999,None,527.6935283299999,None,527.6935283299999,None,530.4436048090001,None,530.4436048090001,None,530.4436048090001,None,530.4436048090001,None,,,,,,,,,,,,,,,,,,,,,,,,,,,,,,,,,,,,,,,,,,,,001,26,2020_Jan_30_0948,spring_faces,3.1.5,59.89458086594181,
condition files/Stage1_2.xlsx,,T1,B2,m,"['c', 'm']","['Clue', 'Monopoly']","[-0.15, 0.5]","[0.15, 0.5]",1,1,,,,,,,,,0,3,3,3,0,7,7,2,,,,,,,,,,,,,,,,,,,,,,,,,,,,,,,,,,,,,,,,,,,,,,,,,,,,,,,532.409488493,None,532.409488493,None,532.409488493,None,m,1,1.0490383099995597,533.943917869,None,533.943917869,None,533.943917869,None,535.0433535130005,None,535.0433535130005,None,535.0433535130005,None,535.0433535130005,None,,,,,,,,,,,,,,,,,,,,,,,,,,,,,,,,,,,,,,,,,,,,001,26,2020_Jan_30_0948,spring_faces,3.1.5,59.89458086594181,
condition files/Stage1_1.xlsx,,B4,T4,m,"['c', 'm']","['Clue', 'Monopoly']","[-0.15, 0.5]","[0.15, 0.5]",1,1,,,,,,,,,0,4,4,4,0,0,0,7,,,,,,,,,,,,,,,,,,,,,,,,,,,,,,,,,,,,,,,,,,,,,,,,,,,,,,,537.0268573359999,None,537.0268573359999,None,537.0268573359999,None,m,1,1.0886569799995414,538.5763072580003,None,538.5763072580003,None,538.5763072580003,None,539.7270110670006,None,539.7270110670006,None,539.7270110670006,None,539.7270110670006,None,,,,,,,,,,,,,,,,,,,,,,,,,,,,,,,,,,,,,,,,,,,,001,26,2020_Jan_30_0948,spring_faces,3.1.5,59.89458086594181,
condition files/Stage1_1.xlsx,,B2,T1,m,"['c', 'm']","['Clue', 'Monopoly']","[-0.15, 0.5]","[0.15, 0.5]",1,1,,,,,,,,,0,4,4,4,0,1,1,2,,,,,,,,,,,,,,,,,,,,,,,,,,,,,,,,,,,,,,,,,,,,,,,,,,,,,,,541.6930072820005,None,541.6930072820005,None,541.6930072820005,None,m,1,0.8068464210000457,543.2261690810001,None,543.2261690810001,None,543.2261690810001,None,544.093484643,None,544.093484643,None,544.093484643,None,544.093484643,None,,,,,,,,,,,,,,,,,,,,,,,,,,,,,,,,,,,,,,,,,,,,001,26,2020_Jan_30_0948,spring_faces,3.1.5,59.89458086594181,
condition files/Stage1_1.xlsx,,T2,B2,m,"['c', 'm']","['Clue', 'Monopoly']","[-0.15, 0.5]","[0.15, 0.5]",1,1,,,,,,,,,0,4,4,4,0,2,2,3,,,,,,,,,,,,,,,,,,,,,,,,,,,,,,,,,,,,,,,,,,,,,,,,,,,,,,,546.0598738979998,None,546.0598738979998,None,546.0598738979998,None,m,1,2.359936234000088,547.5930142779998,None,547.5930142779998,None,547.5930142779998,None,550.0098106920004,None,550.0098106920004,None,550.0098106920004,None,550.0098106920004,None,,,,,,,,,,,,,,,,,,,,,,,,,,,,,,,,,,,,,,,,,,,,001,26,2020_Jan_30_0948,spring_faces,3.1.5,59.89458086594181,
condition files/Stage1_1.xlsx,,T1,B1,c,"['c', 'm']","['Clue', 'Monopoly']","[-0.15, 0.5]","[0.15, 0.5]",1,1,,,,,,,,,0,4,4,4,0,3,3,0,,,,,,,,,,,,,,,,,,,,,,,,,,,,,,,,,,,,,,,,,,,,,,,,,,,,,,,551.976497521,None,551.976497521,None,551.976497521,None,c,1,2.2017493069997727,553.511220372,None,553.511220372,None,553.511220372,None,555.7766015710004,None,555.7766015710004,None,555.7766015710004,None,555.7766015710004,None,,,,,,,,,,,,,,,,,,,,,,,,,,,,,,,,,,,,,,,,,,,,001,26,2020_Jan_30_0948,spring_faces,3.1.5,59.89458086594181,
condition files/Stage1_1.xlsx,,B1,T2,c,"['c', 'm']","['Clue', 'Monopoly']","[-0.15, 0.5]","[0.15, 0.5]",1,1,,,,,,,,,0,4,4,4,0,4,4,1,,,,,,,,,,,,,,,,,,,,,,,,,,,,,,,,,,,,,,,,,,,,,,,,,,,,,,,557.7430954760002,None,557.7430954760002,None,557.7430954760002,None,c,1,0.8522663109997666,559.2926680689998,None,559.2926680689998,None,559.2926680689998,None,560.2092585440005,None,560.2092585440005,None,560.2092585440005,None,560.2092585440005,None,,,,,,,,,,,,,,,,,,,,,,,,,,,,,,,,,,,,,,,,,,,,001,26,2020_Jan_30_0948,spring_faces,3.1.5,59.89458086594181,
condition files/Stage1_1.xlsx,,B3,T3,c,"['c', 'm']","['Clue', 'Monopoly']","[-0.15, 0.5]","[0.15, 0.5]",1,1,,,,,,,,,0,4,4,4,0,5,5,4,,,,,,,,,,,,,,,,,,,,,,,,,,,,,,,,,,,,,,,,,,,,,,,,,,,,,,,562.1763235910003,None,562.1763235910003,None,562.1763235910003,None,c,1,1.0100813199996992,563.7269210570003,None,563.7269210570003,None,563.7269210570003,None,564.792730489,None,564.792730489,None,564.792730489,None,564.792730489,None,,,,,,,,,,,,,,,,,,,,,,,,,,,,,,,,,,,,,,,,,,,,001,26,2020_Jan_30_0948,spring_faces,3.1.5,59.89458086594181,
condition files/Stage1_1.xlsx,,T3,B4,c,"['c', 'm']","['Clue', 'Monopoly']","[-0.15, 0.5]","[0.15, 0.5]",1,1,,,,,,,,,0,4,4,4,0,6,6,5,,,,,,,,,,,,,,,,,,,,,,,,,,,,,,,,,,,,,,,,,,,,,,,,,,,,,,,566.7597337269999,None,566.7597337269999,None,566.7597337269999,None,c,1,0.8096105100003115,568.2952880499997,None,568.2952880499997,None,568.2952880499997,None,569.1601926960002,None,569.1601926960002,None,569.1601926960002,None,569.1601926960002,None,,,,,,,,,,,,,,,,,,,,,,,,,,,,,,,,,,,,,,,,,,,,001,26,2020_Jan_30_0948,spring_faces,3.1.5,59.89458086594181,
condition files/Stage1_1.xlsx,,T4,B3,m,"['c', 'm']","['Clue', 'Monopoly']","[-0.15, 0.5]","[0.15, 0.5]",1,1,,,,,,,,,0,4,4,4,0,7,7,6,,,,,,,,,,,,,,,,,,,,,,,,,,,,,,,,,,,,,,,,,,,,,,,,,,,,,,,571.1265988860005,None,571.1265988860005,None,571.1265988860005,None,m,1,1.1640888259998974,572.6768411700004,None,572.6768411700004,None,572.6768411700004,None,573.8939698780005,None,573.8939698780005,None,573.8939698780005,None,573.8939698780005,None,,,,,,,,,,,,,,,,,,,,,,,,,,,,,,,,,,,,,,,,,,,,001,26,2020_Jan_30_0948,spring_faces,3.1.5,59.89458086594181,
condition files/Stage1_2.xlsx,,B2,T2,m,"['c', 'm']","['Clue', 'Monopoly']","[-0.15, 0.5]","[0.15, 0.5]",1,1,,,,,,,,,0,5,5,5,0,0,0,3,,,,,,,,,,,,,,,,,,,,,,,,,,,,,,,,,,,,,,,,,,,,,,,,,,,,,,,575.8767952640001,None,575.8767952640001,None,575.8767952640001,None,m,1,1.2786768860005395,577.4102491069998,None,577.4102491069998,None,577.4102491069998,None,578.7430575779999,None,578.7430575779999,None,578.7430575779999,None,578.7430575779999,None,,,,,,,,,,,,,,,,,,,,,,,,,,,,,,,,,,,,,,,,,,,,001,26,2020_Jan_30_0948,spring_faces,3.1.5,59.89458086594181,
condition files/Stage1_2.xlsx,,T2,B1,c,"['c', 'm']","['Clue', 'Monopoly']","[-0.15, 0.5]","[0.15, 0.5]",1,1,,,,,,,,,0,5,5,5,0,1,1,1,,,,,,,,,,,,,,,,,,,,,,,,,,,,,,,,,,,,,,,,,,,,,,,,,,,,,,,580.7089149909998,None,580.7089149909998,None,580.7089149909998,None,c,1,0.7804889680000997,582.2604444030003,None,582.2604444030003,None,582.2604444030003,None,583.0931758450006,None,583.0931758450006,None,583.0931758450006,None,583.0931758450006,None,,,,,,,,,,,,,,,,,,,,,,,,,,,,,,,,,,,,,,,,,,,,001,26,2020_Jan_30_0948,spring_faces,3.1.5,59.89458086594181,
condition files/Stage1_2.xlsx,,T3,B3,c,"['c', 'm']","['Clue', 'Monopoly']","[-0.15, 0.5]","[0.15, 0.5]",1,1,,,,,,,,,0,5,5,5,0,2,2,4,,,,,,,,,,,,,,,,,,,,,,,,,,,,,,,,,,,,,,,,,,,,,,,,,,,,,,,585.0594890880002,None,585.0594890880002,None,585.0594890880002,None,c,1,0.8631256019998546,586.6100688080005,None,586.6100688080005,None,586.6100688080005,None,587.5264087900005,None,587.5264087900005,None,587.5264087900005,None,587.5264087900005,None,,,,,,,,,,,,,,,,,,,,,,,,,,,,,,,,,,,,,,,,,,,,001,26,2020_Jan_30_0948,spring_faces,3.1.5,59.89458086594181,
condition files/Stage1_2.xlsx,,B4,T3,c,"['c', 'm']","['Clue', 'Monopoly']","[-0.15, 0.5]","[0.15, 0.5]",1,1,,,,,,,,,0,5,5,5,0,3,3,5,,,,,,,,,,,,,,,,,,,,,,,,,,,,,,,,,,,,,,,,,,,,,,,,,,,,,,,589.4934914570003,None,589.4934914570003,None,589.4934914570003,None,c,1,1.2298043450000478,591.043388262,None,591.043388262,None,591.043388262,None,592.3268709210006,None,592.3268709210006,None,592.3268709210006,None,592.3268709210006,None,,,,,,,,,,,,,,,,,,,,,,,,,,,,,,,,,,,,,,,,,,,,001,26,2020_Jan_30_0948,spring_faces,3.1.5,59.89458086594181,
condition files/Stage1_2.xlsx,,T1,B2,m,"['c', 'm']","['Clue', 'Monopoly']","[-0.15, 0.5]","[0.15, 0.5]",1,1,,,,,,,,,0,5,5,5,0,4,4,2,,,,,,,,,,,,,,,,,,,,,,,,,,,,,,,,,,,,,,,,,,,,,,,,,,,,,,,594.292849728,None,594.292849728,None,594.292849728,None,c,0,2.7323548350004785,595.8285476880001,None,595.8285476880001,None,595.8285476880001,None,598.6263075269999,None,598.6263075269999,None,598.6263075269999,None,598.6263075269999,None,,,,,,,,,,,,,,,,,,,,,,,,,,,,,,,,,,,,,,,,,,,,001,26,2020_Jan_30_0948,spring_faces,3.1.5,59.89458086594181,
condition files/Stage1_2.xlsx,,B1,T1,c,"['c', 'm']","['Clue', 'Monopoly']","[-0.15, 0.5]","[0.15, 0.5]",1,1,,,,,,,,,0,5,5,5,0,5,5,0,,,,,,,,,,,,,,,,,,,,,,,,,,,,,,,,,,,,,,,,,,,,,,,,,,,,,,,600.5930646659999,None,600.5930646659999,None,600.5930646659999,None,c,1,1.1042317279998315,602.1287728080006,None,602.1287728080006,None,602.1287728080006,None,603.2941080660003,None,603.2941080660003,None,603.2941080660003,None,603.2941080660003,None,,,,,,,,,,,,,,,,,,,,,,,,,,,,,,,,,,,,,,,,,,,,001,26,2020_Jan_30_0948,spring_faces,3.1.5,59.89458086594181,
condition files/Stage1_2.xlsx,,T4,B4,m,"['c', 'm']","['Clue', 'Monopoly']","[-0.15, 0.5]","[0.15, 0.5]",1,1,,,,,,,,,0,5,5,5,0,6,6,7,,,,,,,,,,,,,,,,,,,,,,,,,,,,,,,,,,,,,,,,,,,,,,,,,,,,,,,605.2599270430001,None,605.2599270430001,None,605.2599270430001,None,m,1,2.5676668470005097,606.7932354760005,None,606.7932354760005,None,606.7932354760005,None,609.4261025559999,None,609.4261025559999,None,609.4261025559999,None,609.4261025559999,None,,,,,,,,,,,,,,,,,,,,,,,,,,,,,,,,,,,,,,,,,,,,001,26,2020_Jan_30_0948,spring_faces,3.1.5,59.89458086594181,
condition files/Stage1_2.xlsx,,B3,T4,m,"['c', 'm']","['Clue', 'Monopoly']","[-0.15, 0.5]","[0.15, 0.5]",1,1,,,,,,,,,0,5,5,5,0,7,7,6,,,,,,,,,,,,,,,,,,,,,,,,,,,,,,,,,,,,,,,,,,,,,,,,,,,,,,,611.39251186,None,611.39251186,None,611.39251186,None,m,1,0.7696856219999972,612.9432538290002,None,612.9432538290002,None,612.9432538290002,None,613.776584749,None,613.776584749,None,613.776584749,None,613.776584749,None,,,,,,,,,,,,,,,,,,,,,,,,,,,,,,,,,,,,,,,,,,,,001,26,2020_Jan_30_0948,spring_faces,3.1.5,59.89458086594181,
condition files/Stage1_1.xlsx,,B4,T4,m,"['c', 'm']","['Clue', 'Monopoly']","[-0.15, 0.5]","[0.15, 0.5]",1,1,,,,,,,,,0,6,6,6,0,0,0,7,,,,,,,,,,,,,,,,,,,,,,,,,,,,,,,,,,,,,,,,,,,,,,,,,,,,,,,615.7599798179999,None,615.7599798179999,None,615.7599798179999,None,m,1,2.451428278000094,617.2934729859999,None,617.2934729859999,None,617.2934729859999,None,619.80996271,None,619.80996271,None,619.80996271,None,619.80996271,None,,,,,,,,,,,,,,,,,,,,,,,,,,,,,,,,,,,,,,,,,,,,001,26,2020_Jan_30_0948,spring_faces,3.1.5,59.89458086594181,
condition files/Stage1_1.xlsx,,T1,B1,c,"['c', 'm']","['Clue', 'Monopoly']","[-0.15, 0.5]","[0.15, 0.5]",1,1,,,,,,,,,0,6,6,6,0,1,1,0,,,,,,,,,,,,,,,,,,,,,,,,,,,,,,,,,,,,,,,,,,,,,,,,,,,,,,,621.7763771219998,None,621.7763771219998,None,621.7763771219998,None,c,1,0.8655959970001277,623.3112992670003,None,623.3112992670003,None,623.3112992670003,None,624.2460000810006,None,624.2460000810006,None,624.2460000810006,None,624.2460000810006,None,,,,,,,,,,,,,,,,,,,,,,,,,,,,,,,,,,,,,,,,,,,,001,26,2020_Jan_30_0948,spring_faces,3.1.5,59.89458086594181,
condition files/Stage1_1.xlsx,,B2,T1,m,"['c', 'm']","['Clue', 'Monopoly']","[-0.15, 0.5]","[0.15, 0.5]",1,1,,,,,,,,,0,6,6,6,0,2,2,2,,,,,,,,,,,,,,,,,,,,,,,,,,,,,,,,,,,,,,,,,,,,,,,,,,,,,,,626.2100200360001,None,626.2100200360001,None,626.2100200360001,None,m,1,1.473326002000249,627.743689375,None,627.743689375,None,627.743689375,None,629.2761702050002,None,629.2761702050002,None,629.2761702050002,None,629.2761702050002,None,,,,,,,,,,,,,,,,,,,,,,,,,,,,,,,,,,,,,,,,,,,,001,26,2020_Jan_30_0948,spring_faces,3.1.5,59.89458086594181,
condition files/Stage1_1.xlsx,,B1,T2,c,"['c', 'm']","['Clue', 'Monopoly']","[-0.15, 0.5]","[0.15, 0.5]",1,1,,,,,,,,,0,6,6,6,0,3,3,1,,,,,,,,,,,,,,,,,,,,,,,,,,,,,,,,,,,,,,,,,,,,,,,,,,,,,,,631.2426068880004,None,631.2426068880004,None,631.2426068880004,None,c,1,1.240064970000276,632.7769478560003,None,632.7769478560003,None,632.7769478560003,None,634.0928397580001,None,634.0928397580001,None,634.0928397580001,None,634.0928397580001,None,,,,,,,,,,,,,,,,,,,,,,,,,,,,,,,,,,,,,,,,,,,,001,26,2020_Jan_30_0948,spring_faces,3.1.5,59.89458086594181,
condition files/Stage1_1.xlsx,,B3,T3,c,"['c', 'm']","['Clue', 'Monopoly']","[-0.15, 0.5]","[0.15, 0.5]",1,1,,,,,,,,,0,6,6,6,0,4,4,4,,,,,,,,,,,,,,,,,,,,,,,,,,,,,,,,,,,,,,,,,,,,,,,,,,,,,,,636.0428418050005,None,636.0428418050005,None,636.0428418050005,None,c,1,1.8478241989996604,637.5771222370004,None,637.5771222370004,None,637.5771222370004,None,639.4769072280005,None,639.4769072280005,None,639.4769072280005,None,639.4769072280005,None,,,,,,,,,,,,,,,,,,,,,,,,,,,,,,,,,,,,,,,,,,,,001,26,2020_Jan_30_0948,spring_faces,3.1.5,59.89458086594181,
condition files/Stage1_1.xlsx,,T4,B3,m,"['c', 'm']","['Clue', 'Monopoly']","[-0.15, 0.5]","[0.15, 0.5]",1,1,,,,,,,,,0,6,6,6,0,5,5,6,,,,,,,,,,,,,,,,,,,,,,,,,,,,,,,,,,,,,,,,,,,,,,,,,,,,,,,641.4430847980002,None,641.4430847980002,None,641.4430847980002,None,c,0,2.0476430970002184,642.9932921790005,None,642.9932921790005,None,642.9932921790005,None,645.0933735409999,None,645.0933735409999,None,645.0933735409999,None,645.0933735409999,None,,,,,,,,,,,,,,,,,,,,,,,,,,,,,,,,,,,,,,,,,,,,001,26,2020_Jan_30_0948,spring_faces,3.1.5,59.89458086594181,
condition files/Stage1_1.xlsx,,T3,B4,c,"['c', 'm']","['Clue', 'Monopoly']","[-0.15, 0.5]","[0.15, 0.5]",1,1,,,,,,,,,0,6,6,6,0,6,6,5,,,,,,,,,,,,,,,,,,,,,,,,,,,,,,,,,,,,,,,,,,,,,,,,,,,,,,,647.0593453920001,None,647.0593453920001,None,647.0593453920001,None,c,1,1.1814253980001013,648.5954947320006,None,648.5954947320006,None,648.5954947320006,None,649.843014776,None,649.843014776,None,649.843014776,None,649.843014776,None,,,,,,,,,,,,,,,,,,,,,,,,,,,,,,,,,,,,,,,,,,,,001,26,2020_Jan_30_0948,spring_faces,3.1.5,59.89458086594181,
condition files/Stage1_1.xlsx,,T2,B2,m,"['c', 'm']","['Clue', 'Monopoly']","[-0.15, 0.5]","[0.15, 0.5]",1,1,,,,,,,,,0,6,6,6,0,7,7,3,,,,,,,,,,,,,,,,,,,,,,,,,,,,,,,,,,,,,,,,,,,,,,,,,,,,,,,651.8092586680004,None,651.8092586680004,None,651.8092586680004,None,m,1,1.985993500999939,653.3429546899997,None,653.3429546899997,None,653.3429546899997,None,655.3931542990003,None,655.3931542990003,None,655.3931542990003,None,655.3931542990003,None,,,,,,,,,,,,,,,,,,,,,,,,,,,,,,,,,,,,,,,,,,,,001,26,2020_Jan_30_0948,spring_faces,3.1.5,59.89458086594181,
condition files/Stage1_2.xlsx,,B4,T3,c,"['c', 'm']","['Clue', 'Monopoly']","[-0.15, 0.5]","[0.15, 0.5]",1,1,,,,,,,,,0,7,7,7,0,0,0,5,,,,,,,,,,,,,,,,,,,,,,,,,,,,,,,,,,,,,,,,,,,,,,,,,,,,,,,657.3765312690002,None,657.3765312690002,None,657.3765312690002,None,c,1,1.0265943579997838,658.9262948510004,None,658.9262948510004,None,658.9262948510004,None,660.0110120030004,None,660.0110120030004,None,660.0110120030004,None,660.0110120030004,None,,,,,,,,,,,,,,,,,,,,,,,,,,,,,,,,,,,,,,,,,,,,001,26,2020_Jan_30_0948,spring_faces,3.1.5,59.89458086594181,
condition files/Stage1_2.xlsx,,T3,B3,c,"['c', 'm']","['Clue', 'Monopoly']","[-0.15, 0.5]","[0.15, 0.5]",1,1,,,,,,,,,0,7,7,7,0,1,1,4,,,,,,,,,,,,,,,,,,,,,,,,,,,,,,,,,,,,,,,,,,,,,,,,,,,,,,,661.9760592530001,None,661.9760592530001,None,661.9760592530001,None,c,1,1.211242358999698,663.509676791,None,663.509676791,None,663.509676791,None,664.7760122310001,None,664.7760122310001,None,664.7760122310001,None,664.7760122310001,None,,,,,,,,,,,,,,,,,,,,,,,,,,,,,,,,,,,,,,,,,,,,001,26,2020_Jan_30_0948,spring_faces,3.1.5,59.89458086594181,
condition files/Stage1_2.xlsx,,T2,B1,c,"['c', 'm']","['Clue', 'Monopoly']","[-0.15, 0.5]","[0.15, 0.5]",1,1,,,,,,,,,0,7,7,7,0,2,2,1,,,,,,,,,,,,,,,,,,,,,,,,,,,,,,,,,,,,,,,,,,,,,,,,,,,,,,,666.7430143700003,None,666.7430143700003,None,666.7430143700003,None,c,1,1.2433919089999108,668.2936096100002,None,668.2936096100002,None,668.2936096100002,None,669.5933290610001,None,669.5933290610001,None,669.5933290610001,None,669.5933290610001,None,,,,,,,,,,,,,,,,,,,,,,,,,,,,,,,,,,,,,,,,,,,,001,26,2020_Jan_30_0948,spring_faces,3.1.5,59.89458086594181,
condition files/Stage1_2.xlsx,,T1,B2,m,"['c', 'm']","['Clue', 'Monopoly']","[-0.15, 0.5]","[0.15, 0.5]",1,1,,,,,,,,,0,7,7,7,0,3,3,2,,,,,,,,,,,,,,,,,,,,,,,,,,,,,,,,,,,,,,,,,,,,,,,,,,,,,,,671.560084619,None,671.560084619,None,671.560084619,None,m,1,1.595864998000252,673.0930289560001,None,673.0930289560001,None,673.0930289560001,None,674.7602013759997,None,674.7602013759997,None,674.7602013759997,None,674.7602013759997,None,,,,,,,,,,,,,,,,,,,,,,,,,,,,,,,,,,,,,,,,,,,,001,26,2020_Jan_30_0948,spring_faces,3.1.5,59.89458086594181,
condition files/Stage1_2.xlsx,,T4,B4,m,"['c', 'm']","['Clue', 'Monopoly']","[-0.15, 0.5]","[0.15, 0.5]",1,1,,,,,,,,,0,7,7,7,0,4,4,7,,,,,,,,,,,,,,,,,,,,,,,,,,,,,,,,,,,,,,,,,,,,,,,,,,,,,,,676.7094066669997,None,676.7094066669997,None,676.7094066669997,None,m,1,1.6612172640006975,678.2436845769998,None,678.2436845769998,None,678.2436845769998,None,679.9599300380005,None,679.9599300380005,None,679.9599300380005,None,679.9599300380005,None,,,,,,,,,,,,,,,,,,,,,,,,,,,,,,,,,,,,,,,,,,,,001,26,2020_Jan_30_0948,spring_faces,3.1.5,59.89458086594181,
condition files/Stage1_2.xlsx,,B2,T2,m,"['c', 'm']","['Clue', 'Monopoly']","[-0.15, 0.5]","[0.15, 0.5]",1,1,,,,,,,,,0,7,7,7,0,5,5,3,,,,,,,,,,,,,,,,,,,,,,,,,,,,,,,,,,,,,,,,,,,,,,,,,,,,,,,681.9264805110006,None,681.9264805110006,None,681.9264805110006,None,m,1,1.4205985160006094,683.4603669190001,None,683.4603669190001,None,683.4603669190001,None,684.9437559500002,None,684.9437559500002,None,684.9437559500002,None,684.9437559500002,None,,,,,,,,,,,,,,,,,,,,,,,,,,,,,,,,,,,,,,,,,,,,001,26,2020_Jan_30_0948,spring_faces,3.1.5,59.89458086594181,
condition files/Stage1_2.xlsx,,B3,T4,m,"['c', 'm']","['Clue', 'Monopoly']","[-0.15, 0.5]","[0.15, 0.5]",1,1,,,,,,,,,0,7,7,7,0,6,6,6,,,,,,,,,,,,,,,,,,,,,,,,,,,,,,,,,,,,,,,,,,,,,,,,,,,,,,,686.9093458759999,None,686.9093458759999,None,686.9093458759999,None,m,1,1.4129273830003513,688.4440218010004,None,688.4440218010004,None,688.4440218010004,None,689.9100557700003,None,689.9100557700003,None,689.9100557700003,None,689.9100557700003,None,,,,,,,,,,,,,,,,,,,,,,,,,,,,,,,,,,,,,,,,,,,,001,26,2020_Jan_30_0948,spring_faces,3.1.5,59.89458086594181,
condition files/Stage1_2.xlsx,,B1,T1,c,"['c', 'm']","['Clue', 'Monopoly']","[-0.15, 0.5]","[0.15, 0.5]",1,1,,,,,,,,,0,7,7,7,0,7,7,0,,,,,,,,,,,,,,,,,,,,,,,,,,,,,,,,,,,,,,,,,,,,,,,,,,,,,,,691.8761320049998,None,691.8761320049998,None,691.8761320049998,None,c,1,1.3426736119999987,693.4263295669998,None,693.4263295669998,None,693.4263295669998,None,694.8286224760004,None,694.8286224760004,None,694.8286224760004,None,694.8286224760004,None,,,,,,,,,,,,,,,,,,,,,,,,,,,,,,,,,,,,,,,,,,,,001,26,2020_Jan_30_0948,spring_faces,3.1.5,59.89458086594181,
condition files/Stage1_1.xlsx,,B3,T3,c,"['c', 'm']","['Clue', 'Monopoly']","[-0.15, 0.5]","[0.15, 0.5]",1,1,,,,,,,,,0,8,8,8,0,0,0,4,,,,,,,,,,,,,,,,,,,,,,,,,,,,,,,,,,,,,,,,,,,,,,,,,,,,,,,696.8099881890003,None,696.8099881890003,None,696.8099881890003,None,c,1,2.009338559000753,698.3436180449999,None,698.3436180449999,None,698.3436180449999,None,700.4103124620005,None,700.4103124620005,None,700.4103124620005,None,700.4103124620005,None,,,,,,,,,,,,,,,,,,,,,,,,,,,,,,,,,,,,,,,,,,,,001,26,2020_Jan_30_0948,spring_faces,3.1.5,59.89458086594181,
condition files/Stage1_1.xlsx,,T2,B2,m,"['c', 'm']","['Clue', 'Monopoly']","[-0.15, 0.5]","[0.15, 0.5]",1,1,,,,,,,,,0,8,8,8,0,1,1,3,,,,,,,,,,,,,,,,,,,,,,,,,,,,,,,,,,,,,,,,,,,,,,,,,,,,,,,702.3764848319997,None,702.3764848319997,None,702.3764848319997,None,m,1,2.234922304000065,703.9100362050003,None,703.9100362050003,None,703.9100362050003,None,706.2123297790004,None,706.2123297790004,None,706.2123297790004,None,706.2123297790004,None,,,,,,,,,,,,,,,,,,,,,,,,,,,,,,,,,,,,,,,,,,,,001,26,2020_Jan_30_0948,spring_faces,3.1.5,59.89458086594181,
condition files/Stage1_1.xlsx,,T1,B1,c,"['c', 'm']","['Clue', 'Monopoly']","[-0.15, 0.5]","[0.15, 0.5]",1,1,,,,,,,,,0,8,8,8,0,2,2,0,,,,,,,,,,,,,,,,,,,,,,,,,,,,,,,,,,,,,,,,,,,,,,,,,,,,,,,708.17596624,None,708.17596624,None,708.17596624,None,c,1,1.155357083999661,709.7095956490002,None,709.7095956490002,None,709.7095956490002,None,710.9270557059999,None,710.9270557059999,None,710.9270557059999,None,710.9270557059999,None,,,,,,,,,,,,,,,,,,,,,,,,,,,,,,,,,,,,,,,,,,,,001,26,2020_Jan_30_0948,spring_faces,3.1.5,59.89458086594181,
condition files/Stage1_1.xlsx,,B1,T2,c,"['c', 'm']","['Clue', 'Monopoly']","[-0.15, 0.5]","[0.15, 0.5]",1,1,,,,,,,,,0,8,8,8,0,3,3,1,,,,,,,,,,,,,,,,,,,,,,,,,,,,,,,,,,,,,,,,,,,,,,,,,,,,,,,712.8931176309998,None,712.8931176309998,None,712.8931176309998,None,c,1,1.4293483450001077,714.44359214,None,714.44359214,None,714.44359214,None,715.9264981719998,None,715.9264981719998,None,715.9264981719998,None,715.9264981719998,None,,,,,,,,,,,,,,,,,,,,,,,,,,,,,,,,,,,,,,,,,,,,001,26,2020_Jan_30_0948,spring_faces,3.1.5,59.89458086594181,
condition files/Stage1_1.xlsx,,T3,B4,c,"['c', 'm']","['Clue', 'Monopoly']","[-0.15, 0.5]","[0.15, 0.5]",1,1,,,,,,,,,0,8,8,8,0,4,4,5,,,,,,,,,,,,,,,,,,,,,,,,,,,,,,,,,,,,,,,,,,,,,,,,,,,,,,,717.8927520830002,None,717.8927520830002,None,717.8927520830002,None,m,0,1.9821587360002013,719.4267949810001,None,719.4267949810001,None,719.4267949810001,None,721.4600810490001,None,721.4600810490001,None,721.4600810490001,None,721.4600810490001,None,,,,,,,,,,,,,,,,,,,,,,,,,,,,,,,,,,,,,,,,,,,,001,26,2020_Jan_30_0948,spring_faces,3.1.5,59.89458086594181,
condition files/Stage1_1.xlsx,,B2,T1,m,"['c', 'm']","['Clue', 'Monopoly']","[-0.15, 0.5]","[0.15, 0.5]",1,1,,,,,,,,,0,8,8,8,0,5,5,2,,,,,,,,,,,,,,,,,,,,,,,,,,,,,,,,,,,,,,,,,,,,,,,,,,,,,,,723.4260925670005,None,723.4260925670005,None,723.4260925670005,None,m,1,1.4722484880003321,724.9766573200004,None,724.9766573200004,None,724.9766573200004,None,726.5109093310002,None,726.5109093310002,None,726.5109093310002,None,726.5109093310002,None,,,,,,,,,,,,,,,,,,,,,,,,,,,,,,,,,,,,,,,,,,,,001,26,2020_Jan_30_0948,spring_faces,3.1.5,59.89458086594181,
condition files/Stage1_1.xlsx,,T4,B3,m,"['c', 'm']","['Clue', 'Monopoly']","[-0.15, 0.5]","[0.15, 0.5]",1,1,,,,,,,,,0,8,8,8,0,6,6,6,,,,,,,,,,,,,,,,,,,,,,,,,,,,,,,,,,,,,,,,,,,,,,,,,,,,,,,728.4761542189999,None,728.4761542189999,None,728.4761542189999,None,m,1,1.7023253039997144,730.026619538,None,730.026619538,None,730.026619538,None,731.792844732,None,731.792844732,None,731.792844732,None,731.792844732,None,,,,,,,,,,,,,,,,,,,,,,,,,,,,,,,,,,,,,,,,,,,,001,26,2020_Jan_30_0948,spring_faces,3.1.5,59.89458086594181,
condition files/Stage1_1.xlsx,,B4,T4,m,"['c', 'm']","['Clue', 'Monopoly']","[-0.15, 0.5]","[0.15, 0.5]",1,1,,,,,,,,,0,8,8,8,0,7,7,7,,,,,,,,,,,,,,,,,,,,,,,,,,,,,,,,,,,,,,,,,,,,,,,,,,,,,,,733.7597368570005,None,733.7597368570005,None,733.7597368570005,None,m,1,1.0920824430004359,735.29293564,None,735.29293564,None,735.29293564,None,736.4434077590004,None,736.4434077590004,None,736.4434077590004,None,736.4434077590004,None,,,,,,,,,,,,,,,,,,,,,,,,,,,,,,,,,,,,,,,,,,,,001,26,2020_Jan_30_0948,spring_faces,3.1.5,59.89458086594181,
condition files/Stage1_2.xlsx,,T4,B4,m,"['c', 'm']","['Clue', 'Monopoly']","[-0.15, 0.5]","[0.15, 0.5]",1,1,,,,,,,,,0,9,9,9,0,0,0,7,,,,,,,,,,,,,,,,,,,,,,,,,,,,,,,,,,,,,,,,,,,,,,,,,,,,,,,738.4265064760002,None,738.4265064760002,None,738.4265064760002,None,m,1,3.256305801000053,739.9767251900003,None,739.9767251900003,None,739.9767251900003,None,743.2935732920005,None,743.2935732920005,None,743.2935732920005,None,743.2935732920005,None,,,,,,,,,,,,,,,,,,,,,,,,,,,,,,,,,,,,,,,,,,,,001,26,2020_Jan_30_0948,spring_faces,3.1.5,59.89458086594181,
condition files/Stage1_2.xlsx,,B3,T4,m,"['c', 'm']","['Clue', 'Monopoly']","[-0.15, 0.5]","[0.15, 0.5]",1,1,,,,,,,,,0,9,9,9,0,1,1,6,,,,,,,,,,,,,,,,,,,,,,,,,,,,,,,,,,,,,,,,,,,,,,,,,,,,,,,745.2596126150002,None,745.2596126150002,None,745.2596126150002,None,m,1,3.0471783780003534,746.7937733400004,None,746.7937733400004,None,746.7937733400004,None,749.8934165139999,None,749.8934165139999,None,749.8934165139999,None,749.8934165139999,None,,,,,,,,,,,,,,,,,,,,,,,,,,,,,,,,,,,,,,,,,,,,001,26,2020_Jan_30_0948,spring_faces,3.1.5,59.89458086594181,
condition files/Stage1_2.xlsx,,T2,B1,c,"['c', 'm']","['Clue', 'Monopoly']","[-0.15, 0.5]","[0.15, 0.5]",1,1,,,,,,,,,0,9,9,9,0,2,2,1,,,,,,,,,,,,,,,,,,,,,,,,,,,,,,,,,,,,,,,,,,,,,,,,,,,,,,,751.8598321119998,None,751.8598321119998,None,751.8598321119998,None,c,1,1.0697063710003931,753.3952733349997,None,753.3952733349997,None,753.3952733349997,None,754.5287448870004,None,754.5287448870004,None,754.5287448870004,None,754.5287448870004,None,,,,,,,,,,,,,,,,,,,,,,,,,,,,,,,,,,,,,,,,,,,,001,26,2020_Jan_30_0948,spring_faces,3.1.5,59.89458086594181,
condition files/Stage1_2.xlsx,,B2,T2,m,"['c', 'm']","['Clue', 'Monopoly']","[-0.15, 0.5]","[0.15, 0.5]",1,1,,,,,,,,,0,9,9,9,0,3,3,3,,,,,,,,,,,,,,,,,,,,,,,,,,,,,,,,,,,,,,,,,,,,,,,,,,,,,,,756.4933953030004,None,756.4933953030004,None,756.4933953030004,None,m,1,2.102290353999706,758.0266723559998,None,758.0266723559998,None,758.0266723559998,None,760.2100527889997,None,760.2100527889997,None,760.2100527889997,None,760.2100527889997,None,,,,,,,,,,,,,,,,,,,,,,,,,,,,,,,,,,,,,,,,,,,,001,26,2020_Jan_30_0948,spring_faces,3.1.5,59.89458086594181,
condition files/Stage1_2.xlsx,,B1,T1,c,"['c', 'm']","['Clue', 'Monopoly']","[-0.15, 0.5]","[0.15, 0.5]",1,1,,,,,,,,,0,9,9,9,0,4,4,0,,,,,,,,,,,,,,,,,,,,,,,,,,,,,,,,,,,,,,,,,,,,,,,,,,,,,,,762.1592994350003,None,762.1592994350003,None,762.1592994350003,None,m,0,0.8988184079998973,763.694129171,None,763.694129171,None,763.694129171,None,764.6598713809999,None,764.6598713809999,None,764.6598713809999,None,764.6598713809999,None,,,,,,,,,,,,,,,,,,,,,,,,,,,,,,,,,,,,,,,,,,,,001,26,2020_Jan_30_0948,spring_faces,3.1.5,59.89458086594181,
condition files/Stage1_2.xlsx,,B4,T3,c,"['c', 'm']","['Clue', 'Monopoly']","[-0.15, 0.5]","[0.15, 0.5]",1,1,,,,,,,,,0,9,9,9,0,5,5,5,,,,,,,,,,,,,,,,,,,,,,,,,,,,,,,,,,,,,,,,,,,,,,,,,,,,,,,766.6098486420005,None,766.6098486420005,None,766.6098486420005,None,c,1,0.9289971179996428,768.1599415119999,None,768.1599415119999,None,768.1599415119999,None,769.143372814,None,769.143372814,None,769.143372814,None,769.143372814,None,,,,,,,,,,,,,,,,,,,,,,,,,,,,,,,,,,,,,,,,,,,,001,26,2020_Jan_30_0948,spring_faces,3.1.5,59.89458086594181,
condition files/Stage1_2.xlsx,,T3,B3,c,"['c', 'm']","['Clue', 'Monopoly']","[-0.15, 0.5]","[0.15, 0.5]",1,1,,,,,,,,,0,9,9,9,0,6,6,4,,,,,,,,,,,,,,,,,,,,,,,,,,,,,,,,,,,,,,,,,,,,,,,,,,,,,,,771.1091266809999,None,771.1091266809999,None,771.1091266809999,None,c,1,3.9965963609993196,772.66033995,None,772.66033995,None,772.66033995,None,776.709980867,None,776.709980867,None,776.709980867,None,776.709980867,None,,,,,,,,,,,,,,,,,,,,,,,,,,,,,,,,,,,,,,,,,,,,001,26,2020_Jan_30_0948,spring_faces,3.1.5,59.89458086594181,
condition files/Stage1_2.xlsx,,T1,B2,m,"['c', 'm']","['Clue', 'Monopoly']","[-0.15, 0.5]","[0.15, 0.5]",1,1,,,,,,,,,0,9,9,9,0,7,7,2,,,,,,,,,,,,,,,,,,,,,,,,,,,,,,,,,,,,,,,,,,,,,,,,,,,,,,,778.6758461449999,None,778.6758461449999,None,778.6758461449999,None,m,1,2.3811852520002503,780.2117577620002,None,780.2117577620002,None,780.2117577620002,None,782.6599823020006,None,782.6599823020006,None,782.6599823020006,None,782.6599823020006,None,,,,,,,,,,,,,,,,,,,,,,,,,,,,,,,,,,,,,,,,,,,,001,26,2020_Jan_30_0948,spring_faces,3.1.5,59.89458086594181,
condition files/Stage1_1.xlsx,,T4,B3,m,"['c', 'm']","['Clue', 'Monopoly']","[-0.15, 0.5]","[0.15, 0.5]",1,1,,,,,,,,,0,10,10,10,0,0,0,6,,,,,,,,,,,,,,,,,,,,,,,,,,,,,,,,,,,,,,,,,,,,,,,,,,,,,,,784.626733088,None,784.626733088,None,784.626733088,None,m,1,2.3201051879996157,786.1608660890006,None,786.1608660890006,None,786.1608660890006,None,788.5430516920005,None,788.5430516920005,None,788.5430516920005,None,788.5430516920005,None,,,,,,,,,,,,,,,,,,,,,,,,,,,,,,,,,,,,,,,,,,,,001,26,2020_Jan_30_0948,spring_faces,3.1.5,59.89458086594181,
condition files/Stage1_1.xlsx,,B3,T3,c,"['c', 'm']","['Clue', 'Monopoly']","[-0.15, 0.5]","[0.15, 0.5]",1,1,,,,,,,,,0,10,10,10,0,1,1,4,,,,,,,,,,,,,,,,,,,,,,,,,,,,,,,,,,,,,,,,,,,,,,,,,,,,,,,790.5099620030005,None,790.5099620030005,None,790.5099620030005,None,c,1,1.8128121839999949,792.0601465050004,None,792.0601465050004,None,792.0601465050004,None,793.9265598020002,None,793.9265598020002,None,793.9265598020002,None,793.9265598020002,None,,,,,,,,,,,,,,,,,,,,,,,,,,,,,,,,,,,,,,,,,,,,001,26,2020_Jan_30_0948,spring_faces,3.1.5,59.89458086594181,
condition files/Stage1_1.xlsx,,B4,T4,m,"['c', 'm']","['Clue', 'Monopoly']","[-0.15, 0.5]","[0.15, 0.5]",1,1,,,,,,,,,0,10,10,10,0,2,2,7,,,,,,,,,,,,,,,,,,,,,,,,,,,,,,,,,,,,,,,,,,,,,,,,,,,,,,,795.8930746759997,None,795.8930746759997,None,795.8930746759997,None,m,1,1.245304433000456,797.4276528649998,None,797.4276528649998,None,797.4276528649998,None,798.7277334609998,None,798.7277334609998,None,798.7277334609998,None,798.7277334609998,None,,,,,,,,,,,,,,,,,,,,,,,,,,,,,,,,,,,,,,,,,,,,001,26,2020_Jan_30_0948,spring_faces,3.1.5,59.89458086594181,
condition files/Stage1_1.xlsx,,T3,B4,c,"['c', 'm']","['Clue', 'Monopoly']","[-0.15, 0.5]","[0.15, 0.5]",1,1,,,,,,,,,0,10,10,10,0,3,3,5,,,,,,,,,,,,,,,,,,,,,,,,,,,,,,,,,,,,,,,,,,,,,,,,,,,,,,,800.6927406350005,None,800.6927406350005,None,800.6927406350005,None,c,1,1.6307903609995265,802.2261605829999,None,802.2261605829999,None,802.2261605829999,None,803.9108958080005,None,803.9108958080005,None,803.9108958080005,None,803.9108958080005,None,,,,,,,,,,,,,,,,,,,,,,,,,,,,,,,,,,,,,,,,,,,,001,26,2020_Jan_30_0948,spring_faces,3.1.5,59.89458086594181,
condition files/Stage1_1.xlsx,,B2,T1,m,"['c', 'm']","['Clue', 'Monopoly']","[-0.15, 0.5]","[0.15, 0.5]",1,1,,,,,,,,,0,10,10,10,0,4,4,2,,,,,,,,,,,,,,,,,,,,,,,,,,,,,,,,,,,,,,,,,,,,,,,,,,,,,,,805.8761835040004,None,805.8761835040004,None,805.8761835040004,None,m,1,0.7031379519994516,807.4098198339998,None,807.4098198339998,None,807.4098198339998,None,808.1790822680005,None,808.1790822680005,None,808.1790822680005,None,808.1790822680005,None,,,,,,,,,,,,,,,,,,,,,,,,,,,,,,,,,,,,,,,,,,,,001,26,2020_Jan_30_0948,spring_faces,3.1.5,59.89458086594181,
condition files/Stage1_1.xlsx,,T2,B2,m,"['c', 'm']","['Clue', 'Monopoly']","[-0.15, 0.5]","[0.15, 0.5]",1,1,,,,,,,,,0,10,10,10,0,5,5,3,,,,,,,,,,,,,,,,,,,,,,,,,,,,,,,,,,,,,,,,,,,,,,,,,,,,,,,810.1430589800002,None,810.1430589800002,None,810.1430589800002,None,m,1,1.7163151380000272,811.676638246,None,811.676638246,None,811.676638246,None,813.4429202680003,None,813.4429202680003,None,813.4429202680003,None,813.4429202680003,None,,,,,,,,,,,,,,,,,,,,,,,,,,,,,,,,,,,,,,,,,,,,001,26,2020_Jan_30_0948,spring_faces,3.1.5,59.89458086594181,
condition files/Stage1_1.xlsx,,B1,T2,c,"['c', 'm']","['Clue', 'Monopoly']","[-0.15, 0.5]","[0.15, 0.5]",1,1,,,,,,,,,0,10,10,10,0,6,6,1,,,,,,,,,,,,,,,,,,,,,,,,,,,,,,,,,,,,,,,,,,,,,,,,,,,,,,,815.4097871909999,None,815.4097871909999,None,815.4097871909999,None,c,1,0.6413960090003457,816.9595929799998,None,816.9595929799998,None,816.9595929799998,None,817.6625321860001,None,817.6625321860001,None,817.6625321860001,None,817.6625321860001,None,,,,,,,,,,,,,,,,,,,,,,,,,,,,,,,,,,,,,,,,,,,,001,26,2020_Jan_30_0948,spring_faces,3.1.5,59.89458086594181,
condition files/Stage1_1.xlsx,,T1,B1,c,"['c', 'm']","['Clue', 'Monopoly']","[-0.15, 0.5]","[0.15, 0.5]",1,1,,,,,,,,,0,10,10,10,0,7,7,0,,,,,,,,,,,,,,,,,,,,,,,,,,,,,,,,,,,,,,,,,,,,,,,,,,,,,,,819.6263992169997,None,819.6263992169997,None,819.6263992169997,None,c,1,0.45513950700024,821.1618885590005,None,821.1618885590005,None,821.1618885590005,None,821.67690425,None,821.67690425,None,821.67690425,None,821.67690425,None,,,,,,,,,,,,,,,,,,,,,,,,,,,,,,,,,,,,,,,,,,,,001,26,2020_Jan_30_0948,spring_faces,3.1.5,59.89458086594181,
condition files/Stage1_2.xlsx,,B4,T3,c,"['c', 'm']","['Clue', 'Monopoly']","[-0.15, 0.5]","[0.15, 0.5]",1,1,,,,,,,,,0,11,11,11,0,0,0,5,,,,,,,,,,,,,,,,,,,,,,,,,,,,,,,,,,,,,,,,,,,,,,,,,,,,,,,823.6602292039997,None,823.6602292039997,None,823.6602292039997,None,c,1,1.36580389700066,825.195106739,None,825.195106739,None,825.195106739,None,826.6266692139998,None,826.6266692139998,None,826.6266692139998,None,826.6266692139998,None,,,,,,,,,,,,,,,,,,,,,,,,,,,,,,,,,,,,,,,,,,,,001,26,2020_Jan_30_0948,spring_faces,3.1.5,59.89458086594181,
condition files/Stage1_2.xlsx,,B2,T2,m,"['c', 'm']","['Clue', 'Monopoly']","[-0.15, 0.5]","[0.15, 0.5]",1,1,,,,,,,,,0,11,11,11,0,1,1,3,,,,,,,,,,,,,,,,,,,,,,,,,,,,,,,,,,,,,,,,,,,,,,,,,,,,,,,828.5930564,None,828.5930564,None,828.5930564,None,m,1,1.0883332059993336,830.1286828940001,None,830.1286828940001,None,830.1286828940001,None,831.2759160750002,None,831.2759160750002,None,831.2759160750002,None,831.2759160750002,None,,,,,,,,,,,,,,,,,,,,,,,,,,,,,,,,,,,,,,,,,,,,001,26,2020_Jan_30_0948,spring_faces,3.1.5,59.89458086594181,
condition files/Stage1_2.xlsx,,T4,B4,m,"['c', 'm']","['Clue', 'Monopoly']","[-0.15, 0.5]","[0.15, 0.5]",1,1,,,,,,,,,0,11,11,11,0,2,2,7,,,,,,,,,,,,,,,,,,,,,,,,,,,,,,,,,,,,,,,,,,,,,,,,,,,,,,,833.2429176989999,None,833.2429176989999,None,833.2429176989999,None,m,1,1.670762573000502,834.7781832239998,None,834.7781832239998,None,834.7781832239998,None,836.5100092700004,None,836.5100092700004,None,836.5100092700004,None,836.5100092700004,None,,,,,,,,,,,,,,,,,,,,,,,,,,,,,,,,,,,,,,,,,,,,001,26,2020_Jan_30_0948,spring_faces,3.1.5,59.89458086594181,
condition files/Stage1_2.xlsx,,T1,B2,m,"['c', 'm']","['Clue', 'Monopoly']","[-0.15, 0.5]","[0.15, 0.5]",1,1,,,,,,,,,0,11,11,11,0,3,3,2,,,,,,,,,,,,,,,,,,,,,,,,,,,,,,,,,,,,,,,,,,,,,,,,,,,,,,,838.4766022100002,None,838.4766022100002,None,838.4766022100002,None,m,1,0.8544382580003003,840.010517355,None,840.010517355,None,840.010517355,None,840.926377109,None,840.926377109,None,840.926377109,None,840.926377109,None,,,,,,,,,,,,,,,,,,,,,,,,,,,,,,,,,,,,,,,,,,,,001,26,2020_Jan_30_0948,spring_faces,3.1.5,59.89458086594181,
condition files/Stage1_2.xlsx,,T2,B1,c,"['c', 'm']","['Clue', 'Monopoly']","[-0.15, 0.5]","[0.15, 0.5]",1,1,,,,,,,,,0,11,11,11,0,4,4,1,,,,,,,,,,,,,,,,,,,,,,,,,,,,,,,,,,,,,,,,,,,,,,,,,,,,,,,842.8930849890003,None,842.8930849890003,None,842.8930849890003,None,c,1,1.0459027619999688,844.4430421890002,None,844.4430421890002,None,844.4430421890002,None,845.5604068370003,None,845.5604068370003,None,845.5604068370003,None,845.5604068370003,None,,,,,,,,,,,,,,,,,,,,,,,,,,,,,,,,,,,,,,,,,,,,001,26,2020_Jan_30_0948,spring_faces,3.1.5,59.89458086594181,
condition files/Stage1_2.xlsx,,T3,B3,c,"['c', 'm']","['Clue', 'Monopoly']","[-0.15, 0.5]","[0.15, 0.5]",1,1,,,,,,,,,0,11,11,11,0,5,5,4,,,,,,,,,,,,,,,,,,,,,,,,,,,,,,,,,,,,,,,,,,,,,,,,,,,,,,,847.5093042870003,None,847.5093042870003,None,847.5093042870003,None,c,1,1.8994213569994827,849.045532606,None,849.045532606,None,849.045532606,None,851.0098088539999,None,851.0098088539999,None,851.0098088539999,None,851.0098088539999,None,,,,,,,,,,,,,,,,,,,,,,,,,,,,,,,,,,,,,,,,,,,,001,26,2020_Jan_30_0948,spring_faces,3.1.5,59.89458086594181,
condition files/Stage1_2.xlsx,,B3,T4,m,"['c', 'm']","['Clue', 'Monopoly']","[-0.15, 0.5]","[0.15, 0.5]",1,1,,,,,,,,,0,11,11,11,0,6,6,6,,,,,,,,,,,,,,,,,,,,,,,,,,,,,,,,,,,,,,,,,,,,,,,,,,,,,,,852.9758850810003,None,852.9758850810003,None,852.9758850810003,None,m,1,0.9139169640002365,854.5110416560001,None,854.5110416560001,None,854.5110416560001,None,855.4789981849999,None,855.4789981849999,None,855.4789981849999,None,855.4789981849999,None,,,,,,,,,,,,,,,,,,,,,,,,,,,,,,,,,,,,,,,,,,,,001,26,2020_Jan_30_0948,spring_faces,3.1.5,59.89458086594181,
condition files/Stage1_2.xlsx,,B1,T1,c,"['c', 'm']","['Clue', 'Monopoly']","[-0.15, 0.5]","[0.15, 0.5]",1,1,,,,,,,,,0,11,11,11,0,7,7,0,,,,,,,,,,,,,,,,,,,,,,,,,,,,,,,,,,,,,,,,,,,,,,,,,,,,,,,857.442924342,None,857.442924342,None,857.442924342,None,m,0,1.2956183159994907,858.9775650470001,None,858.9775650470001,None,858.9775650470001,None,860.3275082420005,None,860.3275082420005,None,860.3275082420005,None,860.3275082420005,None,,,,,,,,,,,,,,,,,,,,,,,,,,,,,,,,,,,,,,,,,,,,001,26,2020_Jan_30_0948,spring_faces,3.1.5,59.89458086594181,
,,,,,,,,,,,,,,,,,,,,,,,,,,,,,,,,,,,,,,,,,,,,,,,,,,,,,,,,,,,,,,,,,,,,,,,,,,,,,,,,,,,,,,,,,,,,,,,,,,,,,,,,,,,,,,,,862.3099942030003,None,space,3.2510195310005656,867.3099235119998,None,,,,,,,,,,,,,,,,,,,,,,,,,,,,,,001,26,2020_Jan_30_0948,spring_faces,3.1.5,59.89458086594181,
condition files/Stage2_1.xlsx,,T1,B1,s,"['s', 'r']","['Stratego', 'Risk']","[-0.15, 0.5]","[0.15, 0.5]",1,1,,,,,,,,,,,,,,,,,0,0,0,0,0,0,0,2,,,,,,,,,,,,,,,,,,,,,,,,,,,,,,,,,,,,,,,,,,,,,,,870.6600432129999,None,870.6600432129999,None,870.6600432129999,None,s,1,1.6806821489999493,872.1602710030002,None,872.1602710030002,None,872.1602710030002,None,873.9100198309998,None,873.9100198309998,None,873.9100198309998,None,873.9100198309998,None,,,,,,,,,,,,,,,867.3099235119998,None,,,,,,,,,,,,,,,,,,,,,,,,,,,,001,26,2020_Jan_30_0948,spring_faces,3.1.5,59.89458086594181,
condition files/Stage2_1.xlsx,,B6,T6,r,"['s', 'r']","['Stratego', 'Risk']","[-0.15, 0.5]","[0.15, 0.5]",1,1,,,,,,,,,,,,,,,,,0,0,0,0,0,1,1,1,,,,,,,,,,,,,,,,,,,,,,,,,,,,,,,,,,,,,,,,,,,,,,,875.8592677329998,None,875.8592677329998,None,875.8592677329998,None,r,1,2.173168158000408,877.443854872,None,877.443854872,None,877.443854872,None,879.6932755320004,None,879.6932755320004,None,879.6932755320004,None,879.6932755320004,None,,,,,,,,,,,,,,,,,,,,,,,,,,,,,,,,,,,,,,,,,,,,001,26,2020_Jan_30_0948,spring_faces,3.1.5,59.89458086594181,
condition files/Stage2_1.xlsx,,B4,T4,r,"['s', 'r']","['Stratego', 'Risk']","[-0.15, 0.5]","[0.15, 0.5]",1,1,,,,,,,,,,,,,,,,,0,0,0,0,0,2,2,5,,,,,,,,,,,,,,,,,,,,,,,,,,,,,,,,,,,,,,,,,,,,,,,881.6431439859998,None,881.6431439859998,None,881.6431439859998,None,r,1,0.9200949169999149,883.1768747180004,None,883.1768747180004,None,883.1768747180004,None,884.1597520240002,None,884.1597520240002,None,884.1597520240002,None,884.1597520240002,None,,,,,,,,,,,,,,,,,,,,,,,,,,,,,,,,,,,,,,,,,,,,001,26,2020_Jan_30_0948,spring_faces,3.1.5,59.89458086594181,
condition files/Stage2_1.xlsx,,B2,T2,r,"['s', 'r']","['Stratego', 'Risk']","[-0.15, 0.5]","[0.15, 0.5]",1,1,,,,,,,,,,,,,,,,,0,0,0,0,0,3,3,3,,,,,,,,,,,,,,,,,,,,,,,,,,,,,,,,,,,,,,,,,,,,,,,886.1263744220005,None,886.1263744220005,None,886.1263744220005,None,r,1,1.3007393210000373,887.6601778530003,None,887.6601778530003,None,887.6601778530003,None,889.0269942780005,None,889.0269942780005,None,889.0269942780005,None,889.0269942780005,None,,,,,,,,,,,,,,,,,,,,,,,,,,,,,,,,,,,,,,,,,,,,001,26,2020_Jan_30_0948,spring_faces,3.1.5,59.89458086594181,
condition files/Stage2_1.xlsx,,T3,B3,s,"['s', 'r']","['Stratego', 'Risk']","[-0.15, 0.5]","[0.15, 0.5]",1,1,,,,,,,,,,,,,,,,,0,0,0,0,0,4,4,4,,,,,,,,,,,,,,,,,,,,,,,,,,,,,,,,,,,,,,,,,,,,,,,890.9927481450004,None,890.9927481450004,None,890.9927481450004,None,s,1,1.4108513570008654,892.526169455,None,892.526169455,None,892.526169455,None,893.9951285389998,None,893.9951285389998,None,893.9951285389998,None,893.9951285389998,None,,,,,,,,,,,,,,,,,,,,,,,,,,,,,,,,,,,,,,,,,,,,001,26,2020_Jan_30_0948,spring_faces,3.1.5,59.89458086594181,
condition files/Stage2_1.xlsx,,T5,B5,s,"['s', 'r']","['Stratego', 'Risk']","[-0.15, 0.5]","[0.15, 0.5]",1,1,,,,,,,,,,,,,,,,,0,0,0,0,0,5,5,0,,,,,,,,,,,,,,,,,,,,,,,,,,,,,,,,,,,,,,,,,,,,,,,895.9596855139998,None,895.9596855139998,None,895.9596855139998,None,r,0,1.0500291570006084,897.5428929050004,None,897.5428929050004,None,897.5428929050004,None,898.6432735590006,None,898.6432735590006,None,898.6432735590006,None,898.6432735590006,None,,,,,,,,,,,,,,,,,,,,,,,,,,,,,,,,,,,,,,,,,,,,001,26,2020_Jan_30_0948,spring_faces,3.1.5,59.89458086594181,
condition files/Stage2_2.xlsx,,B1,T1,s,"['s', 'r']","['Stratego', 'Risk']","[-0.15, 0.5]","[0.15, 0.5]",1,1,,,,,,,,,,,,,,,,,0,1,1,1,0,0,0,2,,,,,,,,,,,,,,,,,,,,,,,,,,,,,,,,,,,,,,,,,,,,,,,900.6258710829998,None,900.6258710829998,None,900.6258710829998,None,s,1,1.3126916669998536,902.1602750940001,None,902.1602750940001,None,902.1602750940001,None,903.5263550669997,None,903.5263550669997,None,903.5263550669997,None,903.5263550669997,None,,,,,,,,,,,,,,,,,,,,,,,,,,,,,,,,,,,,,,,,,,,,001,26,2020_Jan_30_0948,spring_faces,3.1.5,59.89458086594181,
condition files/Stage2_2.xlsx,,T6,B6,r,"['s', 'r']","['Stratego', 'Risk']","[-0.15, 0.5]","[0.15, 0.5]",1,1,,,,,,,,,,,,,,,,,0,1,1,1,0,1,1,1,,,,,,,,,,,,,,,,,,,,,,,,,,,,,,,,,,,,,,,,,,,,,,,905.4930491510004,None,905.4930491510004,None,905.4930491510004,None,r,1,2.11086590099967,907.0261515540005,None,907.0261515540005,None,907.0261515540005,None,909.1930287260002,None,909.1930287260002,None,909.1930287260002,None,909.1930287260002,None,,,,,,,,,,,,,,,,,,,,,,,,,,,,,,,,,,,,,,,,,,,,001,26,2020_Jan_30_0948,spring_faces,3.1.5,59.89458086594181,
condition files/Stage2_2.xlsx,,B3,T3,s,"['s', 'r']","['Stratego', 'Risk']","[-0.15, 0.5]","[0.15, 0.5]",1,1,,,,,,,,,,,,,,,,,0,1,1,1,0,2,2,4,,,,,,,,,,,,,,,,,,,,,,,,,,,,,,,,,,,,,,,,,,,,,,,911.1600306440005,None,911.1600306440005,None,911.1600306440005,None,s,1,2.394993941999928,912.6939271760002,None,912.6939271760002,None,912.6939271760002,None,915.1454434630004,None,915.1454434630004,None,915.1454434630004,None,915.1454434630004,None,,,,,,,,,,,,,,,,,,,,,,,,,,,,,,,,,,,,,,,,,,,,001,26,2020_Jan_30_0948,spring_faces,3.1.5,59.89458086594181,
condition files/Stage2_2.xlsx,,T2,B2,r,"['s', 'r']","['Stratego', 'Risk']","[-0.15, 0.5]","[0.15, 0.5]",1,1,,,,,,,,,,,,,,,,,0,1,1,1,0,3,3,3,,,,,,,,,,,,,,,,,,,,,,,,,,,,,,,,,,,,,,,,,,,,,,,917.1094520930001,None,917.1094520930001,None,917.1094520930001,None,r,1,1.3894976589999715,918.6435325540006,None,918.6435325540006,None,918.6435325540006,None,920.0950153929998,None,920.0950153929998,None,920.0950153929998,None,920.0950153929998,None,,,,,,,,,,,,,,,,,,,,,,,,,,,,,,,,,,,,,,,,,,,,001,26,2020_Jan_30_0948,spring_faces,3.1.5,59.89458086594181,
condition files/Stage2_2.xlsx,,T4,B4,r,"['s', 'r']","['Stratego', 'Risk']","[-0.15, 0.5]","[0.15, 0.5]",1,1,,,,,,,,,,,,,,,,,0,1,1,1,0,4,4,5,,,,,,,,,,,,,,,,,,,,,,,,,,,,,,,,,,,,,,,,,,,,,,,922.0595560789998,None,922.0595560789998,None,922.0595560789998,None,r,1,1.7029231540000183,923.6100237830005,None,923.6100237830005,None,923.6100237830005,None,925.3769223660001,None,925.3769223660001,None,925.3769223660001,None,925.3769223660001,None,,,,,,,,,,,,,,,,,,,,,,,,,,,,,,,,,,,,,,,,,,,,001,26,2020_Jan_30_0948,spring_faces,3.1.5,59.89458086594181,
condition files/Stage2_2.xlsx,,B5,T5,s,"['s', 'r']","['Stratego', 'Risk']","[-0.15, 0.5]","[0.15, 0.5]",1,1,,,,,,,,,,,,,,,,,0,1,1,1,0,5,5,0,,,,,,,,,,,,,,,,,,,,,,,,,,,,,,,,,,,,,,,,,,,,,,,927.3428983720005,None,927.3428983720005,None,927.3428983720005,None,r,0,1.2355217020003693,928.8774397900006,None,928.8774397900006,None,928.8774397900006,None,930.1774191270006,None,930.1774191270006,None,930.1774191270006,None,930.1774191270006,None,,,,,,,,,,,,,,,,,,,,,,,,,,,,,,,,,,,,,,,,,,,,001,26,2020_Jan_30_0948,spring_faces,3.1.5,59.89458086594181,
condition files/Stage2_1.xlsx,,B2,T2,r,"['s', 'r']","['Stratego', 'Risk']","[-0.15, 0.5]","[0.15, 0.5]",1,1,,,,,,,,,,,,,,,,,0,2,2,2,0,0,0,3,,,,,,,,,,,,,,,,,,,,,,,,,,,,,,,,,,,,,,,,,,,,,,,932.160103966,None,932.160103966,None,932.160103966,None,r,1,0.9620551429998159,933.6949042590004,None,933.6949042590004,None,933.6949042590004,None,934.7117782770001,None,934.7117782770001,None,934.7117782770001,None,934.7117782770001,None,,,,,,,,,,,,,,,,,,,,,,,,,,,,,,,,,,,,,,,,,,,,001,26,2020_Jan_30_0948,spring_faces,3.1.5,59.89458086594181,
condition files/Stage2_1.xlsx,,T1,B1,s,"['s', 'r']","['Stratego', 'Risk']","[-0.15, 0.5]","[0.15, 0.5]",1,1,,,,,,,,,,,,,,,,,0,2,2,2,0,1,1,2,,,,,,,,,,,,,,,,,,,,,,,,,,,,,,,,,,,,,,,,,,,,,,,936.6764497650001,None,936.6764497650001,None,936.6764497650001,None,s,1,1.3258149789999152,938.2112163419997,None,938.2112163419997,None,938.2112163419997,None,939.5948677759998,None,939.5948677759998,None,939.5948677759998,None,939.5948677759998,None,,,,,,,,,,,,,,,,,,,,,,,,,,,,,,,,,,,,,,,,,,,,001,26,2020_Jan_30_0948,spring_faces,3.1.5,59.89458086594181,
condition files/Stage2_1.xlsx,,B6,T6,r,"['s', 'r']","['Stratego', 'Risk']","[-0.15, 0.5]","[0.15, 0.5]",1,1,,,,,,,,,,,,,,,,,0,2,2,2,0,2,2,1,,,,,,,,,,,,,,,,,,,,,,,,,,,,,,,,,,,,,,,,,,,,,,,941.5593210980005,None,941.5593210980005,None,941.5593210980005,None,r,1,1.067642708000676,943.0932899469999,None,943.0932899469999,None,943.0932899469999,None,944.2430547410004,None,944.2430547410004,None,944.2430547410004,None,944.2430547410004,None,,,,,,,,,,,,,,,,,,,,,,,,,,,,,,,,,,,,,,,,,,,,001,26,2020_Jan_30_0948,spring_faces,3.1.5,59.89458086594181,
condition files/Stage2_1.xlsx,,T5,B5,s,"['s', 'r']","['Stratego', 'Risk']","[-0.15, 0.5]","[0.15, 0.5]",1,1,,,,,,,,,,,,,,,,,0,2,2,2,0,3,3,0,,,,,,,,,,,,,,,,,,,,,,,,,,,,,,,,,,,,,,,,,,,,,,,946.1931281340003,None,946.1931281340003,None,946.1931281340003,None,s,1,2.337880829999449,947.7430682080003,None,947.7430682080003,None,947.7430682080003,None,950.1441765979998,None,950.1441765979998,None,950.1441765979998,None,950.1441765979998,None,,,,,,,,,,,,,,,,,,,,,,,,,,,,,,,,,,,,,,,,,,,,001,26,2020_Jan_30_0948,spring_faces,3.1.5,59.89458086594181,
condition files/Stage2_1.xlsx,,T3,B3,s,"['s', 'r']","['Stratego', 'Risk']","[-0.15, 0.5]","[0.15, 0.5]",1,1,,,,,,,,,,,,,,,,,0,2,2,2,0,4,4,4,,,,,,,,,,,,,,,,,,,,,,,,,,,,,,,,,,,,,,,,,,,,,,,952.109919773,None,952.109919773,None,952.109919773,None,s,1,2.324803460000112,953.6442263019999,None,953.6442263019999,None,953.6442263019999,None,956.0265889570001,None,956.0265889570001,None,956.0265889570001,None,956.0265889570001,None,,,,,,,,,,,,,,,,,,,,,,,,,,,,,,,,,,,,,,,,,,,,001,26,2020_Jan_30_0948,spring_faces,3.1.5,59.89458086594181,
condition files/Stage2_1.xlsx,,B4,T4,r,"['s', 'r']","['Stratego', 'Risk']","[-0.15, 0.5]","[0.15, 0.5]",1,1,,,,,,,,,,,,,,,,,0,2,2,2,0,5,5,5,,,,,,,,,,,,,,,,,,,,,,,,,,,,,,,,,,,,,,,,,,,,,,,957.9932627329999,None,957.9932627329999,None,957.9932627329999,None,r,1,1.0328777579998132,959.528047238,None,959.528047238,None,959.528047238,None,960.6276965890002,None,960.6276965890002,None,960.6276965890002,None,960.6276965890002,None,,,,,,,,,,,,,,,,,,,,,,,,,,,,,,,,,,,,,,,,,,,,001,26,2020_Jan_30_0948,spring_faces,3.1.5,59.89458086594181,
condition files/Stage2_2.xlsx,,B1,T1,s,"['s', 'r']","['Stratego', 'Risk']","[-0.15, 0.5]","[0.15, 0.5]",1,1,,,,,,,,,,,,,,,,,0,3,3,3,0,0,0,2,,,,,,,,,,,,,,,,,,,,,,,,,,,,,,,,,,,,,,,,,,,,,,,962.6100643099999,None,962.6100643099999,None,962.6100643099999,None,s,1,1.183968728999389,964.1449909459998,None,964.1449909459998,None,964.1449909459998,None,965.4097179629998,None,965.4097179629998,None,965.4097179629998,None,965.4097179629998,None,,,,,,,,,,,,,,,,,,,,,,,,,,,,,,,,,,,,,,,,,,,,001,26,2020_Jan_30_0948,spring_faces,3.1.5,59.89458086594181,
condition files/Stage2_2.xlsx,,T4,B4,r,"['s', 'r']","['Stratego', 'Risk']","[-0.15, 0.5]","[0.15, 0.5]",1,1,,,,,,,,,,,,,,,,,0,3,3,3,0,1,1,5,,,,,,,,,,,,,,,,,,,,,,,,,,,,,,,,,,,,,,,,,,,,,,,967.3598169739998,None,967.3598169739998,None,967.3598169739998,None,r,1,1.747947990999819,968.8930071519999,None,968.8930071519999,None,968.8930071519999,None,970.6936869370002,None,970.6936869370002,None,970.6936869370002,None,970.6936869370002,None,,,,,,,,,,,,,,,,,,,,,,,,,,,,,,,,,,,,,,,,,,,,001,26,2020_Jan_30_0948,spring_faces,3.1.5,59.89458086594181,
condition files/Stage2_2.xlsx,,B5,T5,s,"['s', 'r']","['Stratego', 'Risk']","[-0.15, 0.5]","[0.15, 0.5]",1,1,,,,,,,,,,,,,,,,,0,3,3,3,0,2,2,0,,,,,,,,,,,,,,,,,,,,,,,,,,,,,,,,,,,,,,,,,,,,,,,972.6597493710005,None,972.6597493710005,None,972.6597493710005,None,s,1,1.7744183029999476,974.1946025590005,None,974.1946025590005,None,974.1946025590005,None,976.028172753,None,976.028172753,None,976.028172753,None,976.028172753,None,,,,,,,,,,,,,,,,,,,,,,,,,,,,,,,,,,,,,,,,,,,,001,26,2020_Jan_30_0948,spring_faces,3.1.5,59.89458086594181,
condition files/Stage2_2.xlsx,,B3,T3,s,"['s', 'r']","['Stratego', 'Risk']","[-0.15, 0.5]","[0.15, 0.5]",1,1,,,,,,,,,,,,,,,,,0,3,3,3,0,3,3,4,,,,,,,,,,,,,,,,,,,,,,,,,,,,,,,,,,,,,,,,,,,,,,,977.992603447,None,977.992603447,None,977.992603447,None,s,1,1.705603538000105,979.5433319920003,None,979.5433319920003,None,979.5433319920003,None,981.3095821050001,None,981.3095821050001,None,981.3095821050001,None,981.3095821050001,None,,,,,,,,,,,,,,,,,,,,,,,,,,,,,,,,,,,,,,,,,,,,001,26,2020_Jan_30_0948,spring_faces,3.1.5,59.89458086594181,
condition files/Stage2_2.xlsx,,T2,B2,r,"['s', 'r']","['Stratego', 'Risk']","[-0.15, 0.5]","[0.15, 0.5]",1,1,,,,,,,,,,,,,,,,,0,3,3,3,0,4,4,3,,,,,,,,,,,,,,,,,,,,,,,,,,,,,,,,,,,,,,,,,,,,,,,983.2767505950005,None,983.2767505950005,None,983.2767505950005,None,r,1,2.006706772999678,984.8263084680002,None,984.8263084680002,None,984.8263084680002,None,986.893622996,None,986.893622996,None,986.893622996,None,986.893622996,None,,,,,,,,,,,,,,,,,,,,,,,,,,,,,,,,,,,,,,,,,,,,001,26,2020_Jan_30_0948,spring_faces,3.1.5,59.89458086594181,
condition files/Stage2_2.xlsx,,T6,B6,r,"['s', 'r']","['Stratego', 'Risk']","[-0.15, 0.5]","[0.15, 0.5]",1,1,,,,,,,,,,,,,,,,,0,3,3,3,0,5,5,1,,,,,,,,,,,,,,,,,,,,,,,,,,,,,,,,,,,,,,,,,,,,,,,988.8591680179998,None,988.8591680179998,None,988.8591680179998,None,r,1,1.4786090139996304,990.4102926989999,None,990.4102926989999,None,990.4102926989999,None,991.9428566140004,None,991.9428566140004,None,991.9428566140004,None,991.9428566140004,None,,,,,,,,,,,,,,,,,,,,,,,,,,,,,,,,,,,,,,,,,,,,001,26,2020_Jan_30_0948,spring_faces,3.1.5,59.89458086594181,
condition files/Stage2_1.xlsx,,T3,B3,s,"['s', 'r']","['Stratego', 'Risk']","[-0.15, 0.5]","[0.15, 0.5]",1,1,,,,,,,,,,,,,,,,,0,4,4,4,0,0,0,4,,,,,,,,,,,,,,,,,,,,,,,,,,,,,,,,,,,,,,,,,,,,,,,993.9262854220005,None,993.9262854220005,None,993.9262854220005,None,s,1,1.083958788000018,995.4769443719997,None,995.4769443719997,None,995.4769443719997,None,996.6433095230004,None,996.6433095230004,None,996.6433095230004,None,996.6433095230004,None,,,,,,,,,,,,,,,,,,,,,,,,,,,,,,,,,,,,,,,,,,,,001,26,2020_Jan_30_0948,spring_faces,3.1.5,59.89458086594181,
condition files/Stage2_1.xlsx,,B6,T6,r,"['s', 'r']","['Stratego', 'Risk']","[-0.15, 0.5]","[0.15, 0.5]",1,1,,,,,,,,,,,,,,,,,0,4,4,4,0,1,1,1,,,,,,,,,,,,,,,,,,,,,,,,,,,,,,,,,,,,,,,,,,,,,,,998.5930471430001,None,998.5930471430001,None,998.5930471430001,None,r,1,0.7846607940000467,1000.1283102799998,None,1000.1283102799998,None,1000.1283102799998,None,1000.9933462999998,None,1000.9933462999998,None,1000.9933462999998,None,1000.9933462999998,None,,,,,,,,,,,,,,,,,,,,,,,,,,,,,,,,,,,,,,,,,,,,001,26,2020_Jan_30_0948,spring_faces,3.1.5,59.89458086594181,
condition files/Stage2_1.xlsx,,B4,T4,r,"['s', 'r']","['Stratego', 'Risk']","[-0.15, 0.5]","[0.15, 0.5]",1,1,,,,,,,,,,,,,,,,,0,4,4,4,0,2,2,5,,,,,,,,,,,,,,,,,,,,,,,,,,,,,,,,,,,,,,,,,,,,,,,1002.9430867990004,None,1002.9430867990004,None,1002.9430867990004,None,r,1,1.332758986999579,1004.4761964600002,None,1004.4761964600002,None,1004.4761964600002,None,1005.8602606410004,None,1005.8602606410004,None,1005.8602606410004,None,1005.8602606410004,None,,,,,,,,,,,,,,,,,,,,,,,,,,,,,,,,,,,,,,,,,,,,001,26,2020_Jan_30_0948,spring_faces,3.1.5,59.89458086594181,
condition files/Stage2_1.xlsx,,T1,B1,s,"['s', 'r']","['Stratego', 'Risk']","[-0.15, 0.5]","[0.15, 0.5]",1,1,,,,,,,,,,,,,,,,,0,4,4,4,0,3,3,2,,,,,,,,,,,,,,,,,,,,,,,,,,,,,,,,,,,,,,,,,,,,,,,1007.8259917060004,None,1007.8259917060004,None,1007.8259917060004,None,s,1,1.4243271989998902,1009.3766878349998,None,1009.3766878349998,None,1009.3766878349998,None,1010.876418975,None,1010.876418975,None,1010.876418975,None,1010.876418975,None,,,,,,,,,,,,,,,,,,,,,,,,,,,,,,,,,,,,,,,,,,,,001,26,2020_Jan_30_0948,spring_faces,3.1.5,59.89458086594181,
