condsFile,subStage,cue1,cue2,correct,responseKeys,responseNames,cue1Position,cue2Position,cue1Opacity,cue2Opacity,stageLoop0.thisRepN,stageLoop0.thisTrialN,stageLoop0.thisN,stageLoop0.thisIndex,blockLoop0.thisRepN,blockLoop0.thisTrialN,blockLoop0.thisN,blockLoop0.thisIndex,stage1Loop.thisRepN,stage1Loop.thisTrialN,stage1Loop.thisN,stage1Loop.thisIndex,blockLoop1.thisRepN,blockLoop1.thisTrialN,blockLoop1.thisN,blockLoop1.thisIndex,stage2Loop.thisRepN,stage2Loop.thisTrialN,stage2Loop.thisN,stage2Loop.thisIndex,blockLoop2.thisRepN,blockLoop2.thisTrialN,blockLoop2.thisN,blockLoop2.thisIndex,testLoop.thisRepN,testLoop.thisTrialN,testLoop.thisN,testLoop.thisIndex,blockLoopTest.thisRepN,blockLoopTest.thisTrialN,blockLoopTest.thisN,blockLoopTest.thisIndex,cuePics,id_instr_text.started,id_instr_text.stopped,space_to_continue_2.started,space_to_continue_2.stopped,end_instructions_resp_3.keys,end_instructions_resp_3.rt,end_instructions_resp_3.started,end_instructions_resp_3.stopped,id_input_instr.started,id_input_instr.stopped,id_input_rect.started,id_input_rect.stopped,id_input_resp.keys,id_input_resp.rt,id_input_resp.started,id_input_resp.stopped,sonaID,id_input_text.started,id_input_text.stopped,final_text.started,final_text.stopped,instructions.started,instructions.stopped,end_instructions_resp.keys,end_instructions_resp.rt,end_instructions_resp.started,end_instructions_resp.stopped,space_to_continue.started,space_to_continue.stopped,instructions_stage0.started,instructions_stage0.stopped,end_instructions_resp_stage0.keys,end_instructions_resp_stage0.rt,end_instructions_resp_stage0.started,end_instructions_resp_stage0.stopped,space_to_continue_stage0.started,space_to_continue_stage0.stopped,text.started,text.stopped,resp_text1.started,resp_text1.stopped,resp_text2.started,resp_text2.stopped,trial_resp.keys,trial_resp.corr,trial_resp.rt,trial_resp.started,trial_resp.stopped,cue1Image.started,cue1Image.stopped,cue2Image.started,cue2Image.stopped,cue1Image_fb.started,cue1Image_fb.stopped,cue2Image_fb.started,cue2Image_fb.stopped,fb_text_answer.started,fb_text_answer.stopped,feedback_image.started,feedback_image.stopped,instructions_stage1.started,instructions_stage1.stopped,end_instructions_resp_stage1.keys,end_instructions_resp_stage1.rt,end_instructions_resp_stage1.started,end_instructions_resp_stage1.stopped,space_to_continue_stage1.started,space_to_continue_stage1.stopped,instructions_2.started,instructions_2.stopped,end_instructions_resp_2.keys,end_instructions_resp_2.rt,end_instructions_resp_2.started,end_instructions_resp_2.stopped,press_space_to_continue_stage2.started,press_space_to_continue_stage2.stopped,instructions_testStage1.started,instructions_testStage1.stopped,end_instructions_resp_test1.keys,end_instructions_resp_test1.rt,end_instructions_resp_test1.started,end_instructions_resp_test1.stopped,press_space_to_continue_test1.started,press_space_to_continue_test1.stopped,cue1Image_testChoice.started,cue1Image_testChoice.stopped,cue2Image_testChoice.started,cue2Image_testChoice.stopped,test_resp.keys,test_resp.corr,test_resp.rt,test_resp.started,test_resp.stopped,cue1Image_testConf.started,cue1Image_testConf.stopped,cue2Image_testConf.started,cue2Image_testConf.stopped,conf_reminder.started,conf_reminder.stopped,conf_rating.response,conf_rating.rt,conf_rating.started,conf_rating.stopped,session,participant,date,expName,psychopyVersion,frameRate,
,,,,,,,,,,,,,,,,,,,,,,,,,,,,,,,,,,,,,,,,,,,"{'none': 'pictures/20M_AN_C.png', 'alpha': 'pictures/SHINEd_melon.png', 'beta': 'pictures/SHINEd_apple.png', 'theta': 'pictures/SHINEd_pepper.png', 'phi': 'pictures/SHINEd_pear.png', 'T1': 'pictures/31M_AN_C.png', 'T2': 'pictures/22M_AN_C.png', 'T3': 'pictures/34M_AN_C.png', 'T4': 'pictures/33M_AN_C.png', 'T5': 'pictures/23M_AN_C.png', 'T6': 'pictures/20M_AN_C.png', 'B1': 'pictures/25M_NE_C.png', 'B2': 'pictures/26M_NE_C.png', 'B3': 'pictures/38M_NE_C.png', 'B4': 'pictures/32M_NE_C.png', 'B5': 'pictures/37M_NE_C.png', 'B6': 'pictures/36M_NE_C.png'}",9.142666138000095,None,14.142075974999898,None,space,16.907213561999924,14.142075974999898,None,,,,,,,,,,,,,,,,,,,,,,,,,,,,,,,,,,,,,,,,,,,,,,,,,,,,,,,,,,,,,,,,,,,,,,,,,,,,,,,,,,,,,,,,,,,,,,,,001,27,2020_Jan_30_0953,spring_faces,3.1.5,59.83559965546601,
,,,,,,,,,,,,,,,,,,,,,,,,,,,,,,,,,,,,,,,,,,,,,,,,,,,,31.54110143900016,None,31.54110143900016,None,"['backspace', 'backspace', 'backspace', 'backspace', 'a', 'backspace', '0', '4', '1', '8', 'a', 'n', 'f', 'a', 'i']","[11.348136466999676, 11.524147314999936, 11.7001292799996, 11.860199251999802, 27.204146437000418, 28.788162630000443, 30.628203885999937, 31.796090423999885, 32.14810457299973, 32.66023639800005, 38.91614914500042, 39.33214191600018, 41.41211962200032, 41.748079879000215, 42.13214033599979]",31.54110143900016,None,,,,,,,,,,,,,,,,,,,,,,,,,,,,,,,,,,,,,,,,,,,,,,,,,,,,,,,,,,,,,,,,,,,,,,,,,,,,,,,,,,,,,,,,001,27,2020_Jan_30_0953,spring_faces,3.1.5,59.83559965546601,
,,,,,,,,,,,,,,,,,,,,,,,,,,,,,,,,,,,,,,,,,,,,,,,,,,,,,,,,,,,,0418anfai,31.54110143900016,None,31.54110143900016,None,78.74205960200015,None,space,3.2913202220006497,83.74197977699987,None,,,,,,,,,,,,,,,,,,,,,,,,,,,,,,,,,,,,,,,,,,,,,,,,,,,,,,,,,,,,,,,,,,,,,,,,,,,,,001,27,2020_Jan_30_0953,spring_faces,3.1.5,59.83559965546601,
,,,,,,,,,,,,,,,,,,,,,,,,,,,,,,,,,,,,,,,,,,,,,,,,,,,,,,,,,,,,,,,,,,,,,,,83.74197977699987,None,87.0755271449998,None,space,4.829825506999441,92.0755708429997,None,,,,,,,,,,,,,,,,,,,,,,,,,,,,,,,,,,,,,,,,,,,,,,,,,,,,,,,,,,,,,,,,,,,,,001,27,2020_Jan_30_0953,spring_faces,3.1.5,59.83559965546601,
condition files/Stage0a.xlsx,0a,alpha,none,h,"['h', 'g']","['Chess', 'Go']","[0, 0.5]","[0, 0]",1,0,0,0,0,0,0,0,0,0,,,,,,,,,,,,,,,,,,,,,,,,,,,,,,,,,,,,,,,,,,,,,,,,,,,,,,,,,,,,,92.0755708429997,None,97.0422571629997,None,97.0422571629997,None,97.0422571629997,None,h,1,1.6092480990000695,98.59205294700041,None,98.59205294700041,None,98.59205294700041,None,100.29258172499976,None,100.29258172499976,None,100.29258172499976,None,100.29258172499976,None,,,,,,,,,,,,,,,,,,,,,,,,,,,,,,,,,,,,,,,,,,,,001,27,2020_Jan_30_0953,spring_faces,3.1.5,59.83559965546601,
condition files/Stage0a.xlsx,0a,beta,none,g,"['h', 'g']","['Chess', 'Go']","[0, 0.5]","[0, 0]",1,0,0,0,0,0,0,1,1,1,,,,,,,,,,,,,,,,,,,,,,,,,,,,,,,,,,,,,,,,,,,,,,,,,,,,,,,,,,,,,,,102.22481120199973,None,102.22481120199973,None,102.22481120199973,None,h,0,1.1777025720002712,103.77550268899995,None,103.77550268899995,None,103.77550268899995,None,105.02582844399967,None,105.02582844399967,None,105.02582844399967,None,105.02582844399967,None,,,,,,,,,,,,,,,,,,,,,,,,,,,,,,,,,,,,,,,,,,,,001,27,2020_Jan_30_0953,spring_faces,3.1.5,59.83559965546601,
condition files/Stage0a.xlsx,0a,beta,none,g,"['h', 'g']","['Chess', 'Go']","[0, 0.5]","[0, 0]",1,0,0,1,1,1,0,0,0,1,,,,,,,,,,,,,,,,,,,,,,,,,,,,,,,,,,,,,,,,,,,,,,,,,,,,,,,,,,,,,,,106.99155891800001,None,106.99155891800001,None,106.99155891800001,None,g,1,1.2759567069997502,108.52534069000012,None,108.52534069000012,None,108.52534069000012,None,109.85890961099994,None,109.85890961099994,None,109.85890961099994,None,109.85890961099994,None,,,,,,,,,,,,,,,,,,,,,,,,,,,,,,,,,,,,,,,,,,,,001,27,2020_Jan_30_0953,spring_faces,3.1.5,59.83559965546601,
condition files/Stage0a.xlsx,0a,alpha,none,h,"['h', 'g']","['Chess', 'Go']","[0, 0.5]","[0, 0]",1,0,0,1,1,1,0,1,1,0,,,,,,,,,,,,,,,,,,,,,,,,,,,,,,,,,,,,,,,,,,,,,,,,,,,,,,,,,,,,,,,111.82462757800022,None,111.82462757800022,None,111.82462757800022,None,h,1,0.522084528999585,113.35913862100006,None,113.35913862100006,None,113.35913862100006,None,113.94181407900032,None,113.94181407900032,None,113.94181407900032,None,113.94181407900032,None,,,,,,,,,,,,,,,,,,,,,,,,,,,,,,,,,,,,,,,,,,,,001,27,2020_Jan_30_0953,spring_faces,3.1.5,59.83559965546601,
condition files/Stage0a.xlsx,0a,alpha,none,h,"['h', 'g']","['Chess', 'Go']","[0, 0.5]","[0, 0]",1,0,0,2,2,2,0,0,0,0,,,,,,,,,,,,,,,,,,,,,,,,,,,,,,,,,,,,,,,,,,,,,,,,,,,,,,,,,,,,,,,115.92561446200034,None,115.92561446200034,None,115.92561446200034,None,h,1,0.534827430000405,117.4423889310001,None,117.4423889310001,None,117.4423889310001,None,118.04213770299975,None,118.04213770299975,None,118.04213770299975,None,118.04213770299975,None,,,,,,,,,,,,,,,,,,,,,,,,,,,,,,,,,,,,,,,,,,,,001,27,2020_Jan_30_0953,spring_faces,3.1.5,59.83559965546601,
condition files/Stage0a.xlsx,0a,beta,none,g,"['h', 'g']","['Chess', 'Go']","[0, 0.5]","[0, 0]",1,0,0,2,2,2,0,1,1,1,,,,,,,,,,,,,,,,,,,,,,,,,,,,,,,,,,,,,,,,,,,,,,,,,,,,,,,,,,,,,,,120.00816621800004,None,120.00816621800004,None,120.00816621800004,None,g,1,0.8028757550000591,121.54234780800016,None,121.54234780800016,None,121.54234780800016,None,122.40838324900051,None,122.40838324900051,None,122.40838324900051,None,122.40838324900051,None,,,,,,,,,,,,,,,,,,,,,,,,,,,,,,,,,,,,,,,,,,,,001,27,2020_Jan_30_0953,spring_faces,3.1.5,59.83559965546601,
condition files/Stage0a.xlsx,0a,beta,none,g,"['h', 'g']","['Chess', 'Go']","[0, 0.5]","[0, 0]",1,0,0,3,3,3,0,0,0,1,,,,,,,,,,,,,,,,,,,,,,,,,,,,,,,,,,,,,,,,,,,,,,,,,,,,,,,,,,,,,,,124.39233626199984,None,124.39233626199984,None,124.39233626199984,None,g,1,1.1239612589997705,125.92538445399987,None,125.92538445399987,None,125.92538445399987,None,127.10858246600037,None,127.10858246600037,None,127.10858246600037,None,127.10858246600037,None,,,,,,,,,,,,,,,,,,,,,,,,,,,,,,,,,,,,,,,,,,,,001,27,2020_Jan_30_0953,spring_faces,3.1.5,59.83559965546601,
condition files/Stage0a.xlsx,0a,alpha,none,h,"['h', 'g']","['Chess', 'Go']","[0, 0.5]","[0, 0]",1,0,0,3,3,3,0,1,1,0,,,,,,,,,,,,,,,,,,,,,,,,,,,,,,,,,,,,,,,,,,,,,,,,,,,,,,,,,,,,,,,129.074916175,None,129.074916175,None,129.074916175,None,g,0,1.0165108979999786,130.60870916099975,None,130.60870916099975,None,130.60870916099975,None,131.67505550399983,None,131.67505550399983,None,131.67505550399983,None,131.67505550399983,None,,,,,,,,,,,,,,,,,,,,,,,,,,,,,,,,,,,,,,,,,,,,001,27,2020_Jan_30_0953,spring_faces,3.1.5,59.83559965546601,
condition files/Stage0a.xlsx,0a,beta,none,g,"['h', 'g']","['Chess', 'Go']","[0, 0.5]","[0, 0]",1,0,0,4,4,4,0,0,0,1,,,,,,,,,,,,,,,,,,,,,,,,,,,,,,,,,,,,,,,,,,,,,,,,,,,,,,,,,,,,,,,133.65878825900018,None,133.65878825900018,None,133.65878825900018,None,g,1,0.4649020509996262,135.19234368900015,None,135.19234368900015,None,135.19234368900015,None,135.70852845100035,None,135.70852845100035,None,135.70852845100035,None,135.70852845100035,None,,,,,,,,,,,,,,,,,,,,,,,,,,,,,,,,,,,,,,,,,,,,001,27,2020_Jan_30_0953,spring_faces,3.1.5,59.83559965546601,
condition files/Stage0a.xlsx,0a,alpha,none,h,"['h', 'g']","['Chess', 'Go']","[0, 0.5]","[0, 0]",1,0,0,4,4,4,0,1,1,0,,,,,,,,,,,,,,,,,,,,,,,,,,,,,,,,,,,,,,,,,,,,,,,,,,,,,,,,,,,,,,,137.6757330850005,None,137.6757330850005,None,137.6757330850005,None,h,1,0.41662423700017825,139.20862033699996,None,139.20862033699996,None,139.20862033699996,None,139.6753005769997,None,139.6753005769997,None,139.6753005769997,None,139.6753005769997,None,,,,,,,,,,,,,,,,,,,,,,,,,,,,,,,,,,,,,,,,,,,,001,27,2020_Jan_30_0953,spring_faces,3.1.5,59.83559965546601,
condition files/Stage0a.xlsx,0a,alpha,none,h,"['h', 'g']","['Chess', 'Go']","[0, 0.5]","[0, 0]",1,0,0,5,5,5,0,0,0,0,,,,,,,,,,,,,,,,,,,,,,,,,,,,,,,,,,,,,,,,,,,,,,,,,,,,,,,,,,,,,,,141.6588586830003,None,141.6588586830003,None,141.6588586830003,None,h,1,1.2815315369998643,143.1916937420001,None,143.1916937420001,None,143.1916937420001,None,144.52566789899993,None,144.52566789899993,None,144.52566789899993,None,144.52566789899993,None,,,,,,,,,,,,,,,,,,,,,,,,,,,,,,,,,,,,,,,,,,,,001,27,2020_Jan_30_0953,spring_faces,3.1.5,59.83559965546601,
condition files/Stage0a.xlsx,0a,beta,none,g,"['h', 'g']","['Chess', 'Go']","[0, 0.5]","[0, 0]",1,0,0,5,5,5,0,1,1,1,,,,,,,,,,,,,,,,,,,,,,,,,,,,,,,,,,,,,,,,,,,,,,,,,,,,,,,,,,,,,,,146.4917968660002,None,146.4917968660002,None,146.4917968660002,None,g,1,0.5440684730001522,148.0252352690004,None,148.0252352690004,None,148.0252352690004,None,148.62522280400026,None,148.62522280400026,None,148.62522280400026,None,148.62522280400026,None,,,,,,,,,,,,,,,,,,,,,,,,,,,,,,,,,,,,,,,,,,,,001,27,2020_Jan_30_0953,spring_faces,3.1.5,59.83559965546601,
condition files/Stage0b_1.xlsx,0b,none,beta,g,"['h', 'g']","['Chess', 'Go']","[-0.15, 0.5]","[0.15, 0.5]",0,1,0,6,6,6,0,0,0,1,,,,,,,,,,,,,,,,,,,,,,,,,,,,,,,,,,,,,,,,,,,,,,,,,,,,,,,,,,,,,,,150.64180424900042,None,150.64180424900042,None,150.64180424900042,None,g,1,0.8870106699996541,152.14627548099998,None,152.14627548099998,None,152.14627548099998,None,153.09193564900033,None,153.09193564900033,None,153.09193564900033,None,153.09193564900033,None,,,,,,,,,,,,,,,,,,,,,,,,,,,,,,,,,,,,,,,,,,,,001,27,2020_Jan_30_0953,spring_faces,3.1.5,59.83559965546601,
condition files/Stage0b_1.xlsx,0b,alpha,none,h,"['h', 'g']","['Chess', 'Go']","[-0.15, 0.5]","[0.15, 0.5]",1,0,0,6,6,6,0,1,1,0,,,,,,,,,,,,,,,,,,,,,,,,,,,,,,,,,,,,,,,,,,,,,,,,,,,,,,,,,,,,,,,155.05789854999966,None,155.05789854999966,None,155.05789854999966,None,h,1,0.6271198849999564,156.59811017399988,None,156.59811017399988,None,156.59811017399988,None,157.27736638900024,None,157.27736638900024,None,157.27736638900024,None,157.27736638900024,None,,,,,,,,,,,,,,,,,,,,,,,,,,,,,,,,,,,,,,,,,,,,001,27,2020_Jan_30_0953,spring_faces,3.1.5,59.83559965546601,
condition files/Stage0b_2.xlsx,0b,beta,none,g,"['h', 'g']","['Chess', 'Go']","[-0.15, 0.5]","[0.15, 0.5]",1,0,0,7,7,7,0,0,0,1,,,,,,,,,,,,,,,,,,,,,,,,,,,,,,,,,,,,,,,,,,,,,,,,,,,,,,,,,,,,,,,159.30882874800045,None,159.30882874800045,None,159.30882874800045,None,g,1,0.721334281000054,160.79194830400047,None,160.79194830400047,None,160.79194830400047,None,161.57535535599982,None,161.57535535599982,None,161.57535535599982,None,161.57535535599982,None,,,,,,,,,,,,,,,,,,,,,,,,,,,,,,,,,,,,,,,,,,,,001,27,2020_Jan_30_0953,spring_faces,3.1.5,59.83559965546601,
condition files/Stage0b_2.xlsx,0b,none,alpha,h,"['h', 'g']","['Chess', 'Go']","[-0.15, 0.5]","[0.15, 0.5]",0,1,0,7,7,7,0,1,1,0,,,,,,,,,,,,,,,,,,,,,,,,,,,,,,,,,,,,,,,,,,,,,,,,,,,,,,,,,,,,,,,163.54249520600024,None,163.54249520600024,None,163.54249520600024,None,h,1,0.43452351999985694,165.07874231999995,None,165.07874231999995,None,165.07874231999995,None,165.580365109,None,165.580365109,None,165.580365109,None,165.580365109,None,,,,,,,,,,,,,,,,,,,,,,,,,,,,,,,,,,,,,,,,,,,,001,27,2020_Jan_30_0953,spring_faces,3.1.5,59.83559965546601,
condition files/Stage0b_1.xlsx,0b,none,beta,g,"['h', 'g']","['Chess', 'Go']","[-0.15, 0.5]","[0.15, 0.5]",0,1,0,8,8,8,0,0,0,1,,,,,,,,,,,,,,,,,,,,,,,,,,,,,,,,,,,,,,,,,,,,,,,,,,,,,,,,,,,,,,,167.55897246299992,None,167.55897246299992,None,167.55897246299992,None,g,1,0.7572607259999131,169.09204571099963,None,169.09204571099963,None,169.09204571099963,None,169.90846312299982,None,169.90846312299982,None,169.90846312299982,None,169.90846312299982,None,,,,,,,,,,,,,,,,,,,,,,,,,,,,,,,,,,,,,,,,,,,,001,27,2020_Jan_30_0953,spring_faces,3.1.5,59.83559965546601,
condition files/Stage0b_1.xlsx,0b,alpha,none,h,"['h', 'g']","['Chess', 'Go']","[-0.15, 0.5]","[0.15, 0.5]",1,0,0,8,8,8,0,1,1,0,,,,,,,,,,,,,,,,,,,,,,,,,,,,,,,,,,,,,,,,,,,,,,,,,,,,,,,,,,,,,,,171.87501752000026,None,171.87501752000026,None,171.87501752000026,None,h,1,0.6111821660006171,173.41405925300023,None,173.41405925300023,None,173.41405925300023,None,174.0793488090003,None,174.0793488090003,None,174.0793488090003,None,174.0793488090003,None,,,,,,,,,,,,,,,,,,,,,,,,,,,,,,,,,,,,,,,,,,,,001,27,2020_Jan_30_0953,spring_faces,3.1.5,59.83559965546601,
condition files/Stage0b_2.xlsx,0b,beta,none,g,"['h', 'g']","['Chess', 'Go']","[-0.15, 0.5]","[0.15, 0.5]",1,0,0,9,9,9,0,0,0,1,,,,,,,,,,,,,,,,,,,,,,,,,,,,,,,,,,,,,,,,,,,,,,,,,,,,,,,,,,,,,,,176.05871649500023,None,176.05871649500023,None,176.05871649500023,None,g,1,0.5450477750000573,177.59219984999982,None,177.59219984999982,None,177.59219984999982,None,178.19198323599994,None,178.19198323599994,None,178.19198323599994,None,178.19198323599994,None,,,,,,,,,,,,,,,,,,,,,,,,,,,,,,,,,,,,,,,,,,,,001,27,2020_Jan_30_0953,spring_faces,3.1.5,59.83559965546601,
condition files/Stage0b_2.xlsx,0b,none,alpha,h,"['h', 'g']","['Chess', 'Go']","[-0.15, 0.5]","[0.15, 0.5]",0,1,0,9,9,9,0,1,1,0,,,,,,,,,,,,,,,,,,,,,,,,,,,,,,,,,,,,,,,,,,,,,,,,,,,,,,,,,,,,,,,180.15787908099992,None,180.15787908099992,None,180.15787908099992,None,h,1,0.7919503859993711,181.69724722400042,None,181.69724722400042,None,181.69724722400042,None,182.55887387300027,None,182.55887387300027,None,182.55887387300027,None,182.55887387300027,None,,,,,,,,,,,,,,,,,,,,,,,,,,,,,,,,,,,,,,,,,,,,001,27,2020_Jan_30_0953,spring_faces,3.1.5,59.83559965546601,
condition files/Stage0b_1.xlsx,0b,none,beta,g,"['h', 'g']","['Chess', 'Go']","[-0.15, 0.5]","[0.15, 0.5]",0,1,0,10,10,10,0,0,0,1,,,,,,,,,,,,,,,,,,,,,,,,,,,,,,,,,,,,,,,,,,,,,,,,,,,,,,,,,,,,,,,184.52551894800035,None,184.52551894800035,None,184.52551894800035,None,g,1,0.6702605949994904,186.05899516499994,None,186.05899516499994,None,186.05899516499994,None,186.79182827000022,None,186.79182827000022,None,186.79182827000022,None,186.79182827000022,None,,,,,,,,,,,,,,,,,,,,,,,,,,,,,,,,,,,,,,,,,,,,001,27,2020_Jan_30_0953,spring_faces,3.1.5,59.83559965546601,
condition files/Stage0b_1.xlsx,0b,alpha,none,h,"['h', 'g']","['Chess', 'Go']","[-0.15, 0.5]","[0.15, 0.5]",1,0,0,10,10,10,0,1,1,0,,,,,,,,,,,,,,,,,,,,,,,,,,,,,,,,,,,,,,,,,,,,,,,,,,,,,,,,,,,,,,,188.75809301200024,None,188.75809301200024,None,188.75809301200024,None,g,0,0.6924604590003582,190.30873321499985,None,190.30873321499985,None,190.30873321499985,None,191.06137684999976,None,191.06137684999976,None,191.06137684999976,None,191.06137684999976,None,,,,,,,,,,,,,,,,,,,,,,,,,,,,,,,,,,,,,,,,,,,,001,27,2020_Jan_30_0953,spring_faces,3.1.5,59.83559965546601,
condition files/Stage0b_2.xlsx,0b,beta,none,g,"['h', 'g']","['Chess', 'Go']","[-0.15, 0.5]","[0.15, 0.5]",1,0,0,11,11,11,0,0,0,1,,,,,,,,,,,,,,,,,,,,,,,,,,,,,,,,,,,,,,,,,,,,,,,,,,,,,,,,,,,,,,,193.04227082200032,None,193.04227082200032,None,193.04227082200032,None,g,1,0.4419155850000607,194.57537809299993,None,194.57537809299993,None,194.57537809299993,None,195.07527008800025,None,195.07527008800025,None,195.07527008800025,None,195.07527008800025,None,,,,,,,,,,,,,,,,,,,,,,,,,,,,,,,,,,,,,,,,,,,,001,27,2020_Jan_30_0953,spring_faces,3.1.5,59.83559965546601,
condition files/Stage0b_2.xlsx,0b,none,alpha,h,"['h', 'g']","['Chess', 'Go']","[-0.15, 0.5]","[0.15, 0.5]",0,1,0,11,11,11,0,1,1,0,,,,,,,,,,,,,,,,,,,,,,,,,,,,,,,,,,,,,,,,,,,,,,,,,,,,,,,,,,,,,,,197.04224815999987,None,197.04224815999987,None,197.04224815999987,None,h,1,0.48720718100048543,198.57804746700003,None,198.57804746700003,None,198.57804746700003,None,199.14214982900012,None,199.14214982900012,None,199.14214982900012,None,199.14214982900012,None,,,,,,,,,,,,,,,,,,,,,,,,,,,,,,,,,,,,,,,,,,,,001,27,2020_Jan_30_0953,spring_faces,3.1.5,59.83559965546601,
condition files/Stage0c_1.xlsx,0c,theta,alpha,h,"['h', 'g']","['Chess', 'Go']","[-0.15, 0.5]","[0.15, 0.5]",1,1,0,12,12,12,0,0,0,0,,,,,,,,,,,,,,,,,,,,,,,,,,,,,,,,,,,,,,,,,,,,,,,,,,,,,,,,,,,,,,,201.1589333640004,None,201.1589333640004,None,201.1589333640004,None,h,1,2.420330398999795,202.66091818600034,None,202.66091818600034,None,202.66091818600034,None,205.14244682400022,None,205.14244682400022,None,205.14244682400022,None,205.14244682400022,None,,,,,,,,,,,,,,,,,,,,,,,,,,,,,,,,,,,,,,,,,,,,001,27,2020_Jan_30_0953,spring_faces,3.1.5,59.83559965546601,
condition files/Stage0c_1.xlsx,0c,beta,theta,g,"['h', 'g']","['Chess', 'Go']","[-0.15, 0.5]","[0.15, 0.5]",1,1,0,12,12,12,0,1,1,2,,,,,,,,,,,,,,,,,,,,,,,,,,,,,,,,,,,,,,,,,,,,,,,,,,,,,,,,,,,,,,,207.10857306199978,None,207.10857306199978,None,207.10857306199978,None,g,1,0.5830894869995973,208.64215946500008,None,208.64215946500008,None,208.64215946500008,None,209.27533898399997,None,209.27533898399997,None,209.27533898399997,None,209.27533898399997,None,,,,,,,,,,,,,,,,,,,,,,,,,,,,,,,,,,,,,,,,,,,,001,27,2020_Jan_30_0953,spring_faces,3.1.5,59.83559965546601,
condition files/Stage0c_1.xlsx,0c,alpha,phi,h,"['h', 'g']","['Chess', 'Go']","[-0.15, 0.5]","[0.15, 0.5]",1,1,0,12,12,12,0,2,2,1,,,,,,,,,,,,,,,,,,,,,,,,,,,,,,,,,,,,,,,,,,,,,,,,,,,,,,,,,,,,,,,211.2419830910003,None,211.2419830910003,None,211.2419830910003,None,h,1,1.1037893439997788,212.82545295,None,212.82545295,None,212.82545295,None,213.99157648399978,None,213.99157648399978,None,213.99157648399978,None,213.99157648399978,None,,,,,,,,,,,,,,,,,,,,,,,,,,,,,,,,,,,,,,,,,,,,001,27,2020_Jan_30_0953,spring_faces,3.1.5,59.83559965546601,
condition files/Stage0c_1.xlsx,0c,phi,beta,g,"['h', 'g']","['Chess', 'Go']","[-0.15, 0.5]","[0.15, 0.5]",1,1,0,12,12,12,0,3,3,3,,,,,,,,,,,,,,,,,,,,,,,,,,,,,,,,,,,,,,,,,,,,,,,,,,,,,,,,,,,,,,,215.95832724899992,None,215.95832724899992,None,215.95832724899992,None,g,1,0.7247506230005456,217.49252749199968,None,217.49252749199968,None,217.49252749199968,None,218.27552736400048,None,218.27552736400048,None,218.27552736400048,None,218.27552736400048,None,,,,,,,,,,,,,,,,,,,,,,,,,,,,,,,,,,,,,,,,,,,,001,27,2020_Jan_30_0953,spring_faces,3.1.5,59.83559965546601,
condition files/Stage0c_2.xlsx,0c,beta,phi,g,"['h', 'g']","['Chess', 'Go']","[-0.15, 0.5]","[0.15, 0.5]",1,1,0,13,13,13,0,0,0,3,,,,,,,,,,,,,,,,,,,,,,,,,,,,,,,,,,,,,,,,,,,,,,,,,,,,,,,,,,,,,,,220.2922338819999,None,220.2922338819999,None,220.2922338819999,None,g,1,0.5378042590000405,221.79143142799967,None,221.79143142799967,None,221.79143142799967,None,222.3754072540005,None,222.3754072540005,None,222.3754072540005,None,222.3754072540005,None,,,,,,,,,,,,,,,,,,,,,,,,,,,,,,,,,,,,,,,,,,,,001,27,2020_Jan_30_0953,spring_faces,3.1.5,59.83559965546601,
condition files/Stage0c_2.xlsx,0c,phi,alpha,h,"['h', 'g']","['Chess', 'Go']","[-0.15, 0.5]","[0.15, 0.5]",1,1,0,13,13,13,0,1,1,1,,,,,,,,,,,,,,,,,,,,,,,,,,,,,,,,,,,,,,,,,,,,,,,,,,,,,,,,,,,,,,,224.3586831700004,None,224.3586831700004,None,224.3586831700004,None,h,1,0.45306434400026774,225.8921863559999,None,225.8921863559999,None,225.8921863559999,None,226.4085251810002,None,226.4085251810002,None,226.4085251810002,None,226.4085251810002,None,,,,,,,,,,,,,,,,,,,,,,,,,,,,,,,,,,,,,,,,,,,,001,27,2020_Jan_30_0953,spring_faces,3.1.5,59.83559965546601,
condition files/Stage0c_2.xlsx,0c,alpha,theta,h,"['h', 'g']","['Chess', 'Go']","[-0.15, 0.5]","[0.15, 0.5]",1,1,0,13,13,13,0,2,2,0,,,,,,,,,,,,,,,,,,,,,,,,,,,,,,,,,,,,,,,,,,,,,,,,,,,,,,,,,,,,,,,228.3752443809999,None,228.3752443809999,None,228.3752443809999,None,h,1,0.8206544419999773,229.90856751499996,None,229.90856751499996,None,229.90856751499996,None,230.77519630200004,None,230.77519630200004,None,230.77519630200004,None,230.77519630200004,None,,,,,,,,,,,,,,,,,,,,,,,,,,,,,,,,,,,,,,,,,,,,001,27,2020_Jan_30_0953,spring_faces,3.1.5,59.83559965546601,
condition files/Stage0c_2.xlsx,0c,theta,beta,g,"['h', 'g']","['Chess', 'Go']","[-0.15, 0.5]","[0.15, 0.5]",1,1,0,13,13,13,0,3,3,2,,,,,,,,,,,,,,,,,,,,,,,,,,,,,,,,,,,,,,,,,,,,,,,,,,,,,,,,,,,,,,,232.7586322520001,None,232.7586322520001,None,232.7586322520001,None,g,1,0.6611228159999882,234.2920822770002,None,234.2920822770002,None,234.2920822770002,None,235.00867315899995,None,235.00867315899995,None,235.00867315899995,None,235.00867315899995,None,,,,,,,,,,,,,,,,,,,,,,,,,,,,,,,,,,,,,,,,,,,,001,27,2020_Jan_30_0953,spring_faces,3.1.5,59.83559965546601,
condition files/Stage0c_1.xlsx,0c,beta,theta,g,"['h', 'g']","['Chess', 'Go']","[-0.15, 0.5]","[0.15, 0.5]",1,1,0,14,14,14,0,0,0,2,,,,,,,,,,,,,,,,,,,,,,,,,,,,,,,,,,,,,,,,,,,,,,,,,,,,,,,,,,,,,,,236.99222606500007,None,236.99222606500007,None,236.99222606500007,None,g,1,0.6355685569997149,238.5256567639999,None,238.5256567639999,None,238.5256567639999,None,239.21036802100025,None,239.21036802100025,None,239.21036802100025,None,239.21036802100025,None,,,,,,,,,,,,,,,,,,,,,,,,,,,,,,,,,,,,,,,,,,,,001,27,2020_Jan_30_0953,spring_faces,3.1.5,59.83559965546601,
condition files/Stage0c_1.xlsx,0c,theta,alpha,h,"['h', 'g']","['Chess', 'Go']","[-0.15, 0.5]","[0.15, 0.5]",1,1,0,14,14,14,0,1,1,0,,,,,,,,,,,,,,,,,,,,,,,,,,,,,,,,,,,,,,,,,,,,,,,,,,,,,,,,,,,,,,,241.19192923500032,None,241.19192923500032,None,241.19192923500032,None,h,1,0.7556743779996395,242.72556344199984,None,242.72556344199984,None,242.72556344199984,None,243.54223933600042,None,243.54223933600042,None,243.54223933600042,None,243.54223933600042,None,,,,,,,,,,,,,,,,,,,,,,,,,,,,,,,,,,,,,,,,,,,,001,27,2020_Jan_30_0953,spring_faces,3.1.5,59.83559965546601,
condition files/Stage0c_1.xlsx,0c,alpha,phi,h,"['h', 'g']","['Chess', 'Go']","[-0.15, 0.5]","[0.15, 0.5]",1,1,0,14,14,14,0,2,2,1,,,,,,,,,,,,,,,,,,,,,,,,,,,,,,,,,,,,,,,,,,,,,,,,,,,,,,,,,,,,,,,245.5084159449998,None,245.5084159449998,None,245.5084159449998,None,h,1,1.0954776220005442,247.04173110299962,None,247.04173110299962,None,247.04173110299962,None,248.17570973199963,None,248.17570973199963,None,248.17570973199963,None,248.17570973199963,None,,,,,,,,,,,,,,,,,,,,,,,,,,,,,,,,,,,,,,,,,,,,001,27,2020_Jan_30_0953,spring_faces,3.1.5,59.83559965546601,
condition files/Stage0c_1.xlsx,0c,phi,beta,g,"['h', 'g']","['Chess', 'Go']","[-0.15, 0.5]","[0.15, 0.5]",1,1,0,14,14,14,0,3,3,3,,,,,,,,,,,,,,,,,,,,,,,,,,,,,,,,,,,,,,,,,,,,,,,,,,,,,,,,,,,,,,,250.15853472300023,None,250.15853472300023,None,250.15853472300023,None,g,1,0.6847741229994426,251.69240232300035,None,251.69240232300035,None,251.69240232300035,None,252.44205348499963,None,252.44205348499963,None,252.44205348499963,None,252.44205348499963,None,,,,,,,,,,,,,,,,,,,,,,,,,,,,,,,,,,,,,,,,,,,,001,27,2020_Jan_30_0953,spring_faces,3.1.5,59.83559965546601,
condition files/Stage0c_2.xlsx,0c,theta,beta,g,"['h', 'g']","['Chess', 'Go']","[-0.15, 0.5]","[0.15, 0.5]",1,1,0,15,15,15,0,0,0,2,,,,,,,,,,,,,,,,,,,,,,,,,,,,,,,,,,,,,,,,,,,,,,,,,,,,,,,,,,,,,,,254.4253599929998,None,254.4253599929998,None,254.4253599929998,None,g,1,0.6905684429993926,255.95869511399997,None,255.95869511399997,None,255.95869511399997,None,256.693189826,None,256.693189826,None,256.693189826,None,256.693189826,None,,,,,,,,,,,,,,,,,,,,,,,,,,,,,,,,,,,,,,,,,,,,001,27,2020_Jan_30_0953,spring_faces,3.1.5,59.83559965546601,
condition files/Stage0c_2.xlsx,0c,phi,alpha,h,"['h', 'g']","['Chess', 'Go']","[-0.15, 0.5]","[0.15, 0.5]",1,1,0,15,15,15,0,1,1,1,,,,,,,,,,,,,,,,,,,,,,,,,,,,,,,,,,,,,,,,,,,,,,,,,,,,,,,,,,,,,,,258.67538522700033,None,258.67538522700033,None,258.67538522700033,None,h,1,0.7282642050004142,260.2089449639998,None,260.2089449639998,None,260.2089449639998,None,260.99161711099987,None,260.99161711099987,None,260.99161711099987,None,260.99161711099987,None,,,,,,,,,,,,,,,,,,,,,,,,,,,,,,,,,,,,,,,,,,,,001,27,2020_Jan_30_0953,spring_faces,3.1.5,59.83559965546601,
condition files/Stage0c_2.xlsx,0c,alpha,theta,h,"['h', 'g']","['Chess', 'Go']","[-0.15, 0.5]","[0.15, 0.5]",1,1,0,15,15,15,0,2,2,0,,,,,,,,,,,,,,,,,,,,,,,,,,,,,,,,,,,,,,,,,,,,,,,,,,,,,,,,,,,,,,,262.95838420899963,None,262.95838420899963,None,262.95838420899963,None,h,1,1.1974902579995614,264.4917181990004,None,264.4917181990004,None,264.4917181990004,None,265.7261044140005,None,265.7261044140005,None,265.7261044140005,None,265.7261044140005,None,,,,,,,,,,,,,,,,,,,,,,,,,,,,,,,,,,,,,,,,,,,,001,27,2020_Jan_30_0953,spring_faces,3.1.5,59.83559965546601,
condition files/Stage0c_2.xlsx,0c,beta,phi,g,"['h', 'g']","['Chess', 'Go']","[-0.15, 0.5]","[0.15, 0.5]",1,1,0,15,15,15,0,3,3,3,,,,,,,,,,,,,,,,,,,,,,,,,,,,,,,,,,,,,,,,,,,,,,,,,,,,,,,,,,,,,,,267.70860255200023,None,267.70860255200023,None,267.70860255200023,None,g,1,0.4309994380000717,269.24222248499973,None,269.24222248499973,None,269.24222248499973,None,269.7254806150004,None,269.7254806150004,None,269.7254806150004,None,269.7254806150004,None,,,,,,,,,,,,,,,,,,,,,,,,,,,,,,,,,,,,,,,,,,,,001,27,2020_Jan_30_0953,spring_faces,3.1.5,59.83559965546601,
condition files/Stage0c_1.xlsx,0c,beta,theta,g,"['h', 'g']","['Chess', 'Go']","[-0.15, 0.5]","[0.15, 0.5]",1,1,0,16,16,16,0,0,0,2,,,,,,,,,,,,,,,,,,,,,,,,,,,,,,,,,,,,,,,,,,,,,,,,,,,,,,,,,,,,,,,271.7088028150001,None,271.7088028150001,None,271.7088028150001,None,g,1,0.8151459560003786,273.242066924,None,273.242066924,None,273.242066924,None,274.0927598240005,None,274.0927598240005,None,274.0927598240005,None,274.0927598240005,None,,,,,,,,,,,,,,,,,,,,,,,,,,,,,,,,,,,,,,,,,,,,001,27,2020_Jan_30_0953,spring_faces,3.1.5,59.83559965546601,
condition files/Stage0c_1.xlsx,0c,theta,alpha,h,"['h', 'g']","['Chess', 'Go']","[-0.15, 0.5]","[0.15, 0.5]",1,1,0,16,16,16,0,1,1,0,,,,,,,,,,,,,,,,,,,,,,,,,,,,,,,,,,,,,,,,,,,,,,,,,,,,,,,,,,,,,,,276.0753928209997,None,276.0753928209997,None,276.0753928209997,None,h,1,0.9766966389997833,277.6085119320005,None,277.6085119320005,None,277.6085119320005,None,278.6415559570005,None,278.6415559570005,None,278.6415559570005,None,278.6415559570005,None,,,,,,,,,,,,,,,,,,,,,,,,,,,,,,,,,,,,,,,,,,,,001,27,2020_Jan_30_0953,spring_faces,3.1.5,59.83559965546601,
condition files/Stage0c_1.xlsx,0c,alpha,phi,h,"['h', 'g']","['Chess', 'Go']","[-0.15, 0.5]","[0.15, 0.5]",1,1,0,16,16,16,0,2,2,1,,,,,,,,,,,,,,,,,,,,,,,,,,,,,,,,,,,,,,,,,,,,,,,,,,,,,,,,,,,,,,,280.6082170999998,None,280.6082170999998,None,280.6082170999998,None,h,1,0.8916971740000008,282.1415843630002,None,282.1415843630002,None,282.1415843630002,None,283.07576148800035,None,283.07576148800035,None,283.07576148800035,None,283.07576148800035,None,,,,,,,,,,,,,,,,,,,,,,,,,,,,,,,,,,,,,,,,,,,,001,27,2020_Jan_30_0953,spring_faces,3.1.5,59.83559965546601,
condition files/Stage0c_1.xlsx,0c,phi,beta,g,"['h', 'g']","['Chess', 'Go']","[-0.15, 0.5]","[0.15, 0.5]",1,1,0,16,16,16,0,3,3,3,,,,,,,,,,,,,,,,,,,,,,,,,,,,,,,,,,,,,,,,,,,,,,,,,,,,,,,,,,,,,,,285.05863336699986,None,285.05863336699986,None,285.05863336699986,None,g,1,0.4737385329999597,286.59149959299975,None,286.59149959299975,None,286.59149959299975,None,287.125329556,None,287.125329556,None,287.125329556,None,287.125329556,None,,,,,,,,,,,,,,,,,,,,,,,,,,,,,,,,,,,,,,,,,,,,001,27,2020_Jan_30_0953,spring_faces,3.1.5,59.83559965546601,
condition files/Stage0c_2.xlsx,0c,alpha,theta,h,"['h', 'g']","['Chess', 'Go']","[-0.15, 0.5]","[0.15, 0.5]",1,1,0,17,17,17,0,0,0,0,,,,,,,,,,,,,,,,,,,,,,,,,,,,,,,,,,,,,,,,,,,,,,,,,,,,,,,,,,,,,,,289.1084290159997,None,289.1084290159997,None,289.1084290159997,None,h,1,0.4555284269999902,290.6256755840004,None,290.6256755840004,None,290.6256755840004,None,291.14227065999967,None,291.14227065999967,None,291.14227065999967,None,291.14227065999967,None,,,,,,,,,,,,,,,,,,,,,,,,,,,,,,,,,,,,,,,,,,,,001,27,2020_Jan_30_0953,spring_faces,3.1.5,59.83559965546601,
condition files/Stage0c_2.xlsx,0c,theta,beta,g,"['h', 'g']","['Chess', 'Go']","[-0.15, 0.5]","[0.15, 0.5]",1,1,0,17,17,17,0,1,1,2,,,,,,,,,,,,,,,,,,,,,,,,,,,,,,,,,,,,,,,,,,,,,,,,,,,,,,,,,,,,,,,293.108443307,None,293.108443307,None,293.108443307,None,g,1,0.43965681999998196,294.64156822400037,None,294.64156822400037,None,294.64156822400037,None,295.1422165160002,None,295.1422165160002,None,295.1422165160002,None,295.1422165160002,None,,,,,,,,,,,,,,,,,,,,,,,,,,,,,,,,,,,,,,,,,,,,001,27,2020_Jan_30_0953,spring_faces,3.1.5,59.83559965546601,
condition files/Stage0c_2.xlsx,0c,beta,phi,g,"['h', 'g']","['Chess', 'Go']","[-0.15, 0.5]","[0.15, 0.5]",1,1,0,17,17,17,0,2,2,3,,,,,,,,,,,,,,,,,,,,,,,,,,,,,,,,,,,,,,,,,,,,,,,,,,,,,,,,,,,,,,,297.1081875210002,None,297.1081875210002,None,297.1081875210002,None,g,1,0.6313259210000979,298.64188788000047,None,298.64188788000047,None,298.64188788000047,None,299.30887024300046,None,299.30887024300046,None,299.30887024300046,None,299.30887024300046,None,,,,,,,,,,,,,,,,,,,,,,,,,,,,,,,,,,,,,,,,,,,,001,27,2020_Jan_30_0953,spring_faces,3.1.5,59.83559965546601,
condition files/Stage0c_2.xlsx,0c,phi,alpha,h,"['h', 'g']","['Chess', 'Go']","[-0.15, 0.5]","[0.15, 0.5]",1,1,0,17,17,17,0,3,3,1,,,,,,,,,,,,,,,,,,,,,,,,,,,,,,,,,,,,,,,,,,,,,,,,,,,,,,,,,,,,,,,301.2921401040003,None,301.2921401040003,None,301.2921401040003,None,h,1,0.6562383749997025,302.82498674,None,302.82498674,None,302.82498674,None,303.54192470700036,None,303.54192470700036,None,303.54192470700036,None,303.54192470700036,None,,,,,,,,,,,,,,,,,,,,,,,,,,,,,,,,,,,,,,,,,,,,001,27,2020_Jan_30_0953,spring_faces,3.1.5,59.83559965546601,
,,,,,,,,,,,,,,,,,,,,,,,,,,,,,,,,,,,,,,,,,,,,,,,,,,,,,,,,,,,,,,,,,,,,,,,,,,,,,,,,,,,,,,,,,,,,,,,,,,,,,,,,305.52553553600046,None,space,3.867712850999851,310.52548519300035,None,,,,,,,,,,,,,,,,,,,,,,,,,,,,,,,,,,,,,,001,27,2020_Jan_30_0953,spring_faces,3.1.5,59.83559965546601,
condition files/Stage1_1.xlsx,,B2,T1,m,"['c', 'm']","['Clue', 'Monopoly']","[-0.15, 0.5]","[0.15, 0.5]",1,1,,,,,,,,,0,0,0,0,0,0,0,2,,,,,,,,,,,,,,,,,,,,,,,,,,,,,,,,,,,,,,,,,,,,,,,,,,,,,,,314.4921279600003,None,314.4921279600003,None,314.4921279600003,None,c,0,1.5682866800007105,316.02489373499975,None,316.02489373499975,None,316.02489373499975,None,317.6759572390001,None,317.6759572390001,None,317.6759572390001,None,317.6759572390001,None,,,,,,,310.52548519300035,None,,,,,,,,,,,,,,,,,,,,,,,,,,,,,,,,,,,,001,27,2020_Jan_30_0953,spring_faces,3.1.5,59.83559965546601,
condition files/Stage1_1.xlsx,,T2,B2,m,"['c', 'm']","['Clue', 'Monopoly']","[-0.15, 0.5]","[0.15, 0.5]",1,1,,,,,,,,,0,0,0,0,0,1,1,3,,,,,,,,,,,,,,,,,,,,,,,,,,,,,,,,,,,,,,,,,,,,,,,,,,,,,,,319.6246895289996,None,319.6246895289996,None,319.6246895289996,None,m,1,0.9759498450002866,321.2253204409999,None,321.2253204409999,None,321.2253204409999,None,322.2587325450004,None,322.2587325450004,None,322.2587325450004,None,322.2587325450004,None,,,,,,,,,,,,,,,,,,,,,,,,,,,,,,,,,,,,,,,,,,,,001,27,2020_Jan_30_0953,spring_faces,3.1.5,59.83559965546601,
condition files/Stage1_1.xlsx,,T1,B1,c,"['c', 'm']","['Clue', 'Monopoly']","[-0.15, 0.5]","[0.15, 0.5]",1,1,,,,,,,,,0,0,0,0,0,2,2,0,,,,,,,,,,,,,,,,,,,,,,,,,,,,,,,,,,,,,,,,,,,,,,,,,,,,,,,324.2249104729999,None,324.2249104729999,None,324.2249104729999,None,c,1,1.0966510179996476,325.7606007410004,None,325.7606007410004,None,325.7606007410004,None,326.9107027359996,None,326.9107027359996,None,326.9107027359996,None,326.9107027359996,None,,,,,,,,,,,,,,,,,,,,,,,,,,,,,,,,,,,,,,,,,,,,001,27,2020_Jan_30_0953,spring_faces,3.1.5,59.83559965546601,
condition files/Stage1_1.xlsx,,B3,T3,c,"['c', 'm']","['Clue', 'Monopoly']","[-0.15, 0.5]","[0.15, 0.5]",1,1,,,,,,,,,0,0,0,0,0,3,3,4,,,,,,,,,,,,,,,,,,,,,,,,,,,,,,,,,,,,,,,,,,,,,,,,,,,,,,,328.8753072219997,None,328.8753072219997,None,328.8753072219997,None,m,0,0.7339695560003747,330.4752020249998,None,330.4752020249998,None,330.4752020249998,None,331.2754962480003,None,331.2754962480003,None,331.2754962480003,None,331.2754962480003,None,,,,,,,,,,,,,,,,,,,,,,,,,,,,,,,,,,,,,,,,,,,,001,27,2020_Jan_30_0953,spring_faces,3.1.5,59.83559965546601,
condition files/Stage1_1.xlsx,,B1,T2,c,"['c', 'm']","['Clue', 'Monopoly']","[-0.15, 0.5]","[0.15, 0.5]",1,1,,,,,,,,,0,0,0,0,0,4,4,1,,,,,,,,,,,,,,,,,,,,,,,,,,,,,,,,,,,,,,,,,,,,,,,,,,,,,,,333.24193203600043,None,333.24193203600043,None,333.24193203600043,None,c,1,1.921352012999705,334.791900315,None,334.791900315,None,334.791900315,None,336.77482354600033,None,336.77482354600033,None,336.77482354600033,None,336.77482354600033,None,,,,,,,,,,,,,,,,,,,,,,,,,,,,,,,,,,,,,,,,,,,,001,27,2020_Jan_30_0953,spring_faces,3.1.5,59.83559965546601,
condition files/Stage1_1.xlsx,,T4,B3,m,"['c', 'm']","['Clue', 'Monopoly']","[-0.15, 0.5]","[0.15, 0.5]",1,1,,,,,,,,,0,0,0,0,0,5,5,6,,,,,,,,,,,,,,,,,,,,,,,,,,,,,,,,,,,,,,,,,,,,,,,,,,,,,,,338.7419313729997,None,338.7419313729997,None,338.7419313729997,None,m,1,1.0760856249999051,340.30912541,None,340.30912541,None,340.30912541,None,341.4426580219997,None,341.4426580219997,None,341.4426580219997,None,341.4426580219997,None,,,,,,,,,,,,,,,,,,,,,,,,,,,,,,,,,,,,,,,,,,,,001,27,2020_Jan_30_0953,spring_faces,3.1.5,59.83559965546601,
condition files/Stage1_1.xlsx,,B4,T4,m,"['c', 'm']","['Clue', 'Monopoly']","[-0.15, 0.5]","[0.15, 0.5]",1,1,,,,,,,,,0,0,0,0,0,6,6,7,,,,,,,,,,,,,,,,,,,,,,,,,,,,,,,,,,,,,,,,,,,,,,,,,,,,,,,343.40822383900013,None,343.40822383900013,None,343.40822383900013,None,m,1,1.8974339480000708,344.9757857280001,None,344.9757857280001,None,344.9757857280001,None,346.925202161,None,346.925202161,None,346.925202161,None,346.925202161,None,,,,,,,,,,,,,,,,,,,,,,,,,,,,,,,,,,,,,,,,,,,,001,27,2020_Jan_30_0953,spring_faces,3.1.5,59.83559965546601,
condition files/Stage1_1.xlsx,,T3,B4,c,"['c', 'm']","['Clue', 'Monopoly']","[-0.15, 0.5]","[0.15, 0.5]",1,1,,,,,,,,,0,0,0,0,0,7,7,5,,,,,,,,,,,,,,,,,,,,,,,,,,,,,,,,,,,,,,,,,,,,,,,,,,,,,,,348.892050339,None,348.892050339,None,348.892050339,None,c,1,1.4407043450000856,350.4245485780002,None,350.4245485780002,None,350.4245485780002,None,351.92808996500025,None,351.92808996500025,None,351.92808996500025,None,351.92808996500025,None,,,,,,,,,,,,,,,,,,,,,,,,,,,,,,,,,,,,,,,,,,,,001,27,2020_Jan_30_0953,spring_faces,3.1.5,59.83559965546601,
condition files/Stage1_2.xlsx,,T3,B3,c,"['c', 'm']","['Clue', 'Monopoly']","[-0.15, 0.5]","[0.15, 0.5]",1,1,,,,,,,,,0,1,1,1,0,0,0,4,,,,,,,,,,,,,,,,,,,,,,,,,,,,,,,,,,,,,,,,,,,,,,,,,,,,,,,353.9588748739998,None,353.9588748739998,None,353.9588748739998,None,c,1,1.5110117779995562,355.4422453919997,None,355.4422453919997,None,355.4422453919997,None,357.0086923460003,None,357.0086923460003,None,357.0086923460003,None,357.0086923460003,None,,,,,,,,,,,,,,,,,,,,,,,,,,,,,,,,,,,,,,,,,,,,001,27,2020_Jan_30_0953,spring_faces,3.1.5,59.83559965546601,
condition files/Stage1_2.xlsx,,T2,B1,c,"['c', 'm']","['Clue', 'Monopoly']","[-0.15, 0.5]","[0.15, 0.5]",1,1,,,,,,,,,0,1,1,1,0,1,1,1,,,,,,,,,,,,,,,,,,,,,,,,,,,,,,,,,,,,,,,,,,,,,,,,,,,,,,,358.97524755700033,None,358.97524755700033,None,358.97524755700033,None,c,1,1.2282844359997398,360.50888273500004,None,360.50888273500004,None,360.50888273500004,None,361.7922038349998,None,361.7922038349998,None,361.7922038349998,None,361.7922038349998,None,,,,,,,,,,,,,,,,,,,,,,,,,,,,,,,,,,,,,,,,,,,,001,27,2020_Jan_30_0953,spring_faces,3.1.5,59.83559965546601,
condition files/Stage1_2.xlsx,,T4,B4,m,"['c', 'm']","['Clue', 'Monopoly']","[-0.15, 0.5]","[0.15, 0.5]",1,1,,,,,,,,,0,1,1,1,0,2,2,7,,,,,,,,,,,,,,,,,,,,,,,,,,,,,,,,,,,,,,,,,,,,,,,,,,,,,,,363.7586332150004,None,363.7586332150004,None,363.7586332150004,None,m,1,0.8763954169999124,365.2929081499997,None,365.2929081499997,None,365.2929081499997,None,366.2273175999999,None,366.2273175999999,None,366.2273175999999,None,366.2273175999999,None,,,,,,,,,,,,,,,,,,,,,,,,,,,,,,,,,,,,,,,,,,,,001,27,2020_Jan_30_0953,spring_faces,3.1.5,59.83559965546601,
condition files/Stage1_2.xlsx,,B1,T1,c,"['c', 'm']","['Clue', 'Monopoly']","[-0.15, 0.5]","[0.15, 0.5]",1,1,,,,,,,,,0,1,1,1,0,3,3,0,,,,,,,,,,,,,,,,,,,,,,,,,,,,,,,,,,,,,,,,,,,,,,,,,,,,,,,368.1920435669999,None,368.1920435669999,None,368.1920435669999,None,m,0,1.0999676090004868,369.7252930579998,None,369.7252930579998,None,369.7252930579998,None,370.8920758659997,None,370.8920758659997,None,370.8920758659997,None,370.8920758659997,None,,,,,,,,,,,,,,,,,,,,,,,,,,,,,,,,,,,,,,,,,,,,001,27,2020_Jan_30_0953,spring_faces,3.1.5,59.83559965546601,
condition files/Stage1_2.xlsx,,B3,T4,m,"['c', 'm']","['Clue', 'Monopoly']","[-0.15, 0.5]","[0.15, 0.5]",1,1,,,,,,,,,0,1,1,1,0,4,4,6,,,,,,,,,,,,,,,,,,,,,,,,,,,,,,,,,,,,,,,,,,,,,,,,,,,,,,,372.8419871980004,None,372.8419871980004,None,372.8419871980004,None,m,1,1.9220665309994729,374.3751908129998,None,374.3751908129998,None,374.3751908129998,None,376.37490067,None,376.37490067,None,376.37490067,None,376.37490067,None,,,,,,,,,,,,,,,,,,,,,,,,,,,,,,,,,,,,,,,,,,,,001,27,2020_Jan_30_0953,spring_faces,3.1.5,59.83559965546601,
condition files/Stage1_2.xlsx,,B2,T2,m,"['c', 'm']","['Clue', 'Monopoly']","[-0.15, 0.5]","[0.15, 0.5]",1,1,,,,,,,,,0,1,1,1,0,5,5,3,,,,,,,,,,,,,,,,,,,,,,,,,,,,,,,,,,,,,,,,,,,,,,,,,,,,,,,378.3253316500004,None,378.3253316500004,None,378.3253316500004,None,c,0,2.3256937240003026,379.85950715499985,None,379.85950715499985,None,379.85950715499985,None,382.2426383869997,None,382.2426383869997,None,382.2426383869997,None,382.2426383869997,None,,,,,,,,,,,,,,,,,,,,,,,,,,,,,,,,,,,,,,,,,,,,001,27,2020_Jan_30_0953,spring_faces,3.1.5,59.83559965546601,
condition files/Stage1_2.xlsx,,T1,B2,m,"['c', 'm']","['Clue', 'Monopoly']","[-0.15, 0.5]","[0.15, 0.5]",1,1,,,,,,,,,0,1,1,1,0,6,6,2,,,,,,,,,,,,,,,,,,,,,,,,,,,,,,,,,,,,,,,,,,,,,,,,,,,,,,,384.20865741000034,None,384.20865741000034,None,384.20865741000034,None,m,1,1.7231260059998021,385.7421659649999,None,385.7421659649999,None,385.7421659649999,None,387.52593162300036,None,387.52593162300036,None,387.52593162300036,None,387.52593162300036,None,,,,,,,,,,,,,,,,,,,,,,,,,,,,,,,,,,,,,,,,,,,,001,27,2020_Jan_30_0953,spring_faces,3.1.5,59.83559965546601,
condition files/Stage1_2.xlsx,,B4,T3,c,"['c', 'm']","['Clue', 'Monopoly']","[-0.15, 0.5]","[0.15, 0.5]",1,1,,,,,,,,,0,1,1,1,0,7,7,5,,,,,,,,,,,,,,,,,,,,,,,,,,,,,,,,,,,,,,,,,,,,,,,,,,,,,,,389.49204287199973,None,389.49204287199973,None,389.49204287199973,None,c,1,0.9840396669997062,391.02515808499993,None,391.02515808499993,None,391.02515808499993,None,392.092198501,None,392.092198501,None,392.092198501,None,392.092198501,None,,,,,,,,,,,,,,,,,,,,,,,,,,,,,,,,,,,,,,,,,,,,001,27,2020_Jan_30_0953,spring_faces,3.1.5,59.83559965546601,
condition files/Stage1_1.xlsx,,T3,B4,c,"['c', 'm']","['Clue', 'Monopoly']","[-0.15, 0.5]","[0.15, 0.5]",1,1,,,,,,,,,0,2,2,2,0,0,0,5,,,,,,,,,,,,,,,,,,,,,,,,,,,,,,,,,,,,,,,,,,,,,,,,,,,,,,,394.0591906210002,None,394.0591906210002,None,394.0591906210002,None,c,1,1.2013411550005912,395.59186450499965,None,395.59186450499965,None,395.59186450499965,None,396.8587614630005,None,396.8587614630005,None,396.8587614630005,None,396.8587614630005,None,,,,,,,,,,,,,,,,,,,,,,,,,,,,,,,,,,,,,,,,,,,,001,27,2020_Jan_30_0953,spring_faces,3.1.5,59.83559965546601,
condition files/Stage1_1.xlsx,,B2,T1,m,"['c', 'm']","['Clue', 'Monopoly']","[-0.15, 0.5]","[0.15, 0.5]",1,1,,,,,,,,,0,2,2,2,0,1,1,2,,,,,,,,,,,,,,,,,,,,,,,,,,,,,,,,,,,,,,,,,,,,,,,,,,,,,,,398.825066204,None,398.825066204,None,398.825066204,None,m,1,0.8348323279997203,400.358367199,None,400.358367199,None,400.358367199,None,401.27536771199993,None,401.27536771199993,None,401.27536771199993,None,401.27536771199993,None,,,,,,,,,,,,,,,,,,,,,,,,,,,,,,,,,,,,,,,,,,,,001,27,2020_Jan_30_0953,spring_faces,3.1.5,59.83559965546601,
condition files/Stage1_1.xlsx,,T1,B1,c,"['c', 'm']","['Clue', 'Monopoly']","[-0.15, 0.5]","[0.15, 0.5]",1,1,,,,,,,,,0,2,2,2,0,2,2,0,,,,,,,,,,,,,,,,,,,,,,,,,,,,,,,,,,,,,,,,,,,,,,,,,,,,,,,403.2253222239997,None,403.2253222239997,None,403.2253222239997,None,m,0,1.4901122119999854,404.7751172770004,None,404.7751172770004,None,404.7751172770004,None,406.3421781770003,None,406.3421781770003,None,406.3421781770003,None,406.3421781770003,None,,,,,,,,,,,,,,,,,,,,,,,,,,,,,,,,,,,,,,,,,,,,001,27,2020_Jan_30_0953,spring_faces,3.1.5,59.83559965546601,
condition files/Stage1_1.xlsx,,B1,T2,c,"['c', 'm']","['Clue', 'Monopoly']","[-0.15, 0.5]","[0.15, 0.5]",1,1,,,,,,,,,0,2,2,2,0,3,3,1,,,,,,,,,,,,,,,,,,,,,,,,,,,,,,,,,,,,,,,,,,,,,,,,,,,,,,,408.2921507890005,None,408.2921507890005,None,408.2921507890005,None,c,1,1.304146476000824,409.82510769300006,None,409.82510769300006,None,409.82510769300006,None,411.1914861570003,None,411.1914861570003,None,411.1914861570003,None,411.1914861570003,None,,,,,,,,,,,,,,,,,,,,,,,,,,,,,,,,,,,,,,,,,,,,001,27,2020_Jan_30_0953,spring_faces,3.1.5,59.83559965546601,
condition files/Stage1_1.xlsx,,T2,B2,m,"['c', 'm']","['Clue', 'Monopoly']","[-0.15, 0.5]","[0.15, 0.5]",1,1,,,,,,,,,0,2,2,2,0,4,4,3,,,,,,,,,,,,,,,,,,,,,,,,,,,,,,,,,,,,,,,,,,,,,,,,,,,,,,,413.15858374399977,None,413.15858374399977,None,413.15858374399977,None,c,0,0.8834979829998701,414.6937453589999,None,414.6937453589999,None,414.6937453589999,None,415.6421528760002,None,415.6421528760002,None,415.6421528760002,None,415.6421528760002,None,,,,,,,,,,,,,,,,,,,,,,,,,,,,,,,,,,,,,,,,,,,,001,27,2020_Jan_30_0953,spring_faces,3.1.5,59.83559965546601,
condition files/Stage1_1.xlsx,,T4,B3,m,"['c', 'm']","['Clue', 'Monopoly']","[-0.15, 0.5]","[0.15, 0.5]",1,1,,,,,,,,,0,2,2,2,0,5,5,6,,,,,,,,,,,,,,,,,,,,,,,,,,,,,,,,,,,,,,,,,,,,,,,,,,,,,,,417.6086093089998,None,417.6086093089998,None,417.6086093089998,None,m,1,1.2994347339999877,419.1418369740004,None,419.1418369740004,None,419.1418369740004,None,420.49166898400017,None,420.49166898400017,None,420.49166898400017,None,420.49166898400017,None,,,,,,,,,,,,,,,,,,,,,,,,,,,,,,,,,,,,,,,,,,,,001,27,2020_Jan_30_0953,spring_faces,3.1.5,59.83559965546601,
condition files/Stage1_1.xlsx,,B4,T4,m,"['c', 'm']","['Clue', 'Monopoly']","[-0.15, 0.5]","[0.15, 0.5]",1,1,,,,,,,,,0,2,2,2,0,6,6,7,,,,,,,,,,,,,,,,,,,,,,,,,,,,,,,,,,,,,,,,,,,,,,,,,,,,,,,422.4584561640004,None,422.4584561640004,None,422.4584561640004,None,m,1,1.4090972980002334,423.9922009390002,None,423.9922009390002,None,423.9922009390002,None,425.45854707200033,None,425.45854707200033,None,425.45854707200033,None,425.45854707200033,None,,,,,,,,,,,,,,,,,,,,,,,,,,,,,,,,,,,,,,,,,,,,001,27,2020_Jan_30_0953,spring_faces,3.1.5,59.83559965546601,
condition files/Stage1_1.xlsx,,B3,T3,c,"['c', 'm']","['Clue', 'Monopoly']","[-0.15, 0.5]","[0.15, 0.5]",1,1,,,,,,,,,0,2,2,2,0,7,7,4,,,,,,,,,,,,,,,,,,,,,,,,,,,,,,,,,,,,,,,,,,,,,,,,,,,,,,,427.4254298220003,None,427.4254298220003,None,427.4254298220003,None,m,0,1.288089530000434,428.96121703100016,None,428.96121703100016,None,428.96121703100016,None,430.32577774699985,None,430.32577774699985,None,430.32577774699985,None,430.32577774699985,None,,,,,,,,,,,,,,,,,,,,,,,,,,,,,,,,,,,,,,,,,,,,001,27,2020_Jan_30_0953,spring_faces,3.1.5,59.83559965546601,
condition files/Stage1_2.xlsx,,B1,T1,c,"['c', 'm']","['Clue', 'Monopoly']","[-0.15, 0.5]","[0.15, 0.5]",1,1,,,,,,,,,0,3,3,3,0,0,0,0,,,,,,,,,,,,,,,,,,,,,,,,,,,,,,,,,,,,,,,,,,,,,,,,,,,,,,,432.2918059470003,None,432.2918059470003,None,432.2918059470003,None,c,1,1.3838099710001188,433.8254022709998,None,433.8254022709998,None,433.8254022709998,None,435.2755324740001,None,435.2755324740001,None,435.2755324740001,None,435.2755324740001,None,,,,,,,,,,,,,,,,,,,,,,,,,,,,,,,,,,,,,,,,,,,,001,27,2020_Jan_30_0953,spring_faces,3.1.5,59.83559965546601,
condition files/Stage1_2.xlsx,,B3,T4,m,"['c', 'm']","['Clue', 'Monopoly']","[-0.15, 0.5]","[0.15, 0.5]",1,1,,,,,,,,,0,3,3,3,0,1,1,6,,,,,,,,,,,,,,,,,,,,,,,,,,,,,,,,,,,,,,,,,,,,,,,,,,,,,,,437.2421363029998,None,437.2421363029998,None,437.2421363029998,None,c,0,2.049788128999353,438.77546822899967,None,438.77546822899967,None,438.77546822899967,None,440.8924510650004,None,440.8924510650004,None,440.8924510650004,None,440.8924510650004,None,,,,,,,,,,,,,,,,,,,,,,,,,,,,,,,,,,,,,,,,,,,,001,27,2020_Jan_30_0953,spring_faces,3.1.5,59.83559965546601,
condition files/Stage1_2.xlsx,,T2,B1,c,"['c', 'm']","['Clue', 'Monopoly']","[-0.15, 0.5]","[0.15, 0.5]",1,1,,,,,,,,,0,3,3,3,0,2,2,1,,,,,,,,,,,,,,,,,,,,,,,,,,,,,,,,,,,,,,,,,,,,,,,,,,,,,,,442.84212284299974,None,442.84212284299974,None,442.84212284299974,None,c,1,0.8340415180000491,444.37515850900036,None,444.37515850900036,None,444.37515850900036,None,445.27516689999993,None,445.27516689999993,None,445.27516689999993,None,445.27516689999993,None,,,,,,,,,,,,,,,,,,,,,,,,,,,,,,,,,,,,,,,,,,,,001,27,2020_Jan_30_0953,spring_faces,3.1.5,59.83559965546601,
condition files/Stage1_2.xlsx,,T4,B4,m,"['c', 'm']","['Clue', 'Monopoly']","[-0.15, 0.5]","[0.15, 0.5]",1,1,,,,,,,,,0,3,3,3,0,3,3,7,,,,,,,,,,,,,,,,,,,,,,,,,,,,,,,,,,,,,,,,,,,,,,,,,,,,,,,447.24134926399984,None,447.24134926399984,None,447.24134926399984,None,c,0,1.5220502919992214,448.77516268399995,None,448.77516268399995,None,448.77516268399995,None,450.35959980999996,None,450.35959980999996,None,450.35959980999996,None,450.35959980999996,None,,,,,,,,,,,,,,,,,,,,,,,,,,,,,,,,,,,,,,,,,,,,001,27,2020_Jan_30_0953,spring_faces,3.1.5,59.83559965546601,
condition files/Stage1_2.xlsx,,T3,B3,c,"['c', 'm']","['Clue', 'Monopoly']","[-0.15, 0.5]","[0.15, 0.5]",1,1,,,,,,,,,0,3,3,3,0,4,4,4,,,,,,,,,,,,,,,,,,,,,,,,,,,,,,,,,,,,,,,,,,,,,,,,,,,,,,,452.3255017669999,None,452.3255017669999,None,452.3255017669999,None,c,1,1.0946773639998355,453.8585606710003,None,453.8585606710003,None,453.8585606710003,None,455.0109588490004,None,455.0109588490004,None,455.0109588490004,None,455.0109588490004,None,,,,,,,,,,,,,,,,,,,,,,,,,,,,,,,,,,,,,,,,,,,,001,27,2020_Jan_30_0953,spring_faces,3.1.5,59.83559965546601,
condition files/Stage1_2.xlsx,,B4,T3,c,"['c', 'm']","['Clue', 'Monopoly']","[-0.15, 0.5]","[0.15, 0.5]",1,1,,,,,,,,,0,3,3,3,0,5,5,5,,,,,,,,,,,,,,,,,,,,,,,,,,,,,,,,,,,,,,,,,,,,,,,,,,,,,,,456.974675167,None,456.974675167,None,456.974675167,None,c,1,2.3306749329995,458.5105960820001,None,458.5105960820001,None,458.5105960820001,None,460.8921611470005,None,460.8921611470005,None,460.8921611470005,None,460.8921611470005,None,,,,,,,,,,,,,,,,,,,,,,,,,,,,,,,,,,,,,,,,,,,,001,27,2020_Jan_30_0953,spring_faces,3.1.5,59.83559965546601,
condition files/Stage1_2.xlsx,,T1,B2,m,"['c', 'm']","['Clue', 'Monopoly']","[-0.15, 0.5]","[0.15, 0.5]",1,1,,,,,,,,,0,3,3,3,0,6,6,2,,,,,,,,,,,,,,,,,,,,,,,,,,,,,,,,,,,,,,,,,,,,,,,,,,,,,,,462.85820956600037,None,462.85820956600037,None,462.85820956600037,None,m,1,0.9293740200000684,464.391867673,None,464.391867673,None,464.391867673,None,465.39152567200017,None,465.39152567200017,None,465.39152567200017,None,465.39152567200017,None,,,,,,,,,,,,,,,,,,,,,,,,,,,,,,,,,,,,,,,,,,,,001,27,2020_Jan_30_0953,spring_faces,3.1.5,59.83559965546601,
condition files/Stage1_2.xlsx,,B2,T2,m,"['c', 'm']","['Clue', 'Monopoly']","[-0.15, 0.5]","[0.15, 0.5]",1,1,,,,,,,,,0,3,3,3,0,7,7,3,,,,,,,,,,,,,,,,,,,,,,,,,,,,,,,,,,,,,,,,,,,,,,,,,,,,,,,467.342013122,None,467.342013122,None,467.342013122,None,m,1,0.7021509090000109,468.8750810520005,None,468.8750810520005,None,468.8750810520005,None,469.6419889580002,None,469.6419889580002,None,469.6419889580002,None,469.6419889580002,None,,,,,,,,,,,,,,,,,,,,,,,,,,,,,,,,,,,,,,,,,,,,001,27,2020_Jan_30_0953,spring_faces,3.1.5,59.83559965546601,
condition files/Stage1_1.xlsx,,B3,T3,c,"['c', 'm']","['Clue', 'Monopoly']","[-0.15, 0.5]","[0.15, 0.5]",1,1,,,,,,,,,0,4,4,4,0,0,0,4,,,,,,,,,,,,,,,,,,,,,,,,,,,,,,,,,,,,,,,,,,,,,,,,,,,,,,,471.6254570359997,None,471.6254570359997,None,471.6254570359997,None,c,1,1.4087871460005772,473.1605193389996,None,473.1605193389996,None,473.1605193389996,None,474.6276983580001,None,474.6276983580001,None,474.6276983580001,None,474.6276983580001,None,,,,,,,,,,,,,,,,,,,,,,,,,,,,,,,,,,,,,,,,,,,,001,27,2020_Jan_30_0953,spring_faces,3.1.5,59.83559965546601,
condition files/Stage1_1.xlsx,,T3,B4,c,"['c', 'm']","['Clue', 'Monopoly']","[-0.15, 0.5]","[0.15, 0.5]",1,1,,,,,,,,,0,4,4,4,0,1,1,5,,,,,,,,,,,,,,,,,,,,,,,,,,,,,,,,,,,,,,,,,,,,,,,,,,,,,,,476.5919471010002,None,476.5919471010002,None,476.5919471010002,None,c,1,1.0523202399999718,478.1249051949999,None,478.1249051949999,None,478.1249051949999,None,479.2422410520003,None,479.2422410520003,None,479.2422410520003,None,479.2422410520003,None,,,,,,,,,,,,,,,,,,,,,,,,,,,,,,,,,,,,,,,,,,,,001,27,2020_Jan_30_0953,spring_faces,3.1.5,59.83559965546601,
condition files/Stage1_1.xlsx,,B2,T1,m,"['c', 'm']","['Clue', 'Monopoly']","[-0.15, 0.5]","[0.15, 0.5]",1,1,,,,,,,,,0,4,4,4,0,2,2,2,,,,,,,,,,,,,,,,,,,,,,,,,,,,,,,,,,,,,,,,,,,,,,,,,,,,,,,481.20861934500044,None,481.20861934500044,None,481.20861934500044,None,m,1,0.6913856949995534,482.74191045000043,None,482.74191045000043,None,482.74191045000043,None,483.5085221620002,None,483.5085221620002,None,483.5085221620002,None,483.5085221620002,None,,,,,,,,,,,,,,,,,,,,,,,,,,,,,,,,,,,,,,,,,,,,001,27,2020_Jan_30_0953,spring_faces,3.1.5,59.83559965546601,
condition files/Stage1_1.xlsx,,T2,B2,m,"['c', 'm']","['Clue', 'Monopoly']","[-0.15, 0.5]","[0.15, 0.5]",1,1,,,,,,,,,0,4,4,4,0,3,3,3,,,,,,,,,,,,,,,,,,,,,,,,,,,,,,,,,,,,,,,,,,,,,,,,,,,,,,,485.45867214700047,None,485.45867214700047,None,485.45867214700047,None,m,1,0.7293796869998914,486.9918199089998,None,486.9918199089998,None,486.9918199089998,None,487.7767144540003,None,487.7767144540003,None,487.7767144540003,None,487.7767144540003,None,,,,,,,,,,,,,,,,,,,,,,,,,,,,,,,,,,,,,,,,,,,,001,27,2020_Jan_30_0953,spring_faces,3.1.5,59.83559965546601,
condition files/Stage1_1.xlsx,,T1,B1,c,"['c', 'm']","['Clue', 'Monopoly']","[-0.15, 0.5]","[0.15, 0.5]",1,1,,,,,,,,,0,4,4,4,0,4,4,0,,,,,,,,,,,,,,,,,,,,,,,,,,,,,,,,,,,,,,,,,,,,,,,,,,,,,,,489.74200437499985,None,489.74200437499985,None,489.74200437499985,None,c,1,1.1820091019999381,491.2752471120002,None,491.2752471120002,None,491.2752471120002,None,492.52556667499994,None,492.52556667499994,None,492.52556667499994,None,492.52556667499994,None,,,,,,,,,,,,,,,,,,,,,,,,,,,,,,,,,,,,,,,,,,,,001,27,2020_Jan_30_0953,spring_faces,3.1.5,59.83559965546601,
condition files/Stage1_1.xlsx,,B1,T2,c,"['c', 'm']","['Clue', 'Monopoly']","[-0.15, 0.5]","[0.15, 0.5]",1,1,,,,,,,,,0,4,4,4,0,5,5,1,,,,,,,,,,,,,,,,,,,,,,,,,,,,,,,,,,,,,,,,,,,,,,,,,,,,,,,494.4753393310002,None,494.4753393310002,None,494.4753393310002,None,c,1,0.7046469110000544,496.0086191999999,None,496.0086191999999,None,496.0086191999999,None,496.7752782790003,None,496.7752782790003,None,496.7752782790003,None,496.7752782790003,None,,,,,,,,,,,,,,,,,,,,,,,,,,,,,,,,,,,,,,,,,,,,001,27,2020_Jan_30_0953,spring_faces,3.1.5,59.83559965546601,
condition files/Stage1_1.xlsx,,B4,T4,m,"['c', 'm']","['Clue', 'Monopoly']","[-0.15, 0.5]","[0.15, 0.5]",1,1,,,,,,,,,0,4,4,4,0,6,6,7,,,,,,,,,,,,,,,,,,,,,,,,,,,,,,,,,,,,,,,,,,,,,,,,,,,,,,,498.74189966999984,None,498.74189966999984,None,498.74189966999984,None,m,1,1.6702236540004378,500.2750212460005,None,500.2750212460005,None,500.2750212460005,None,502.0251951850005,None,502.0251951850005,None,502.0251951850005,None,502.0251951850005,None,,,,,,,,,,,,,,,,,,,,,,,,,,,,,,,,,,,,,,,,,,,,001,27,2020_Jan_30_0953,spring_faces,3.1.5,59.83559965546601,
condition files/Stage1_1.xlsx,,T4,B3,m,"['c', 'm']","['Clue', 'Monopoly']","[-0.15, 0.5]","[0.15, 0.5]",1,1,,,,,,,,,0,4,4,4,0,7,7,6,,,,,,,,,,,,,,,,,,,,,,,,,,,,,,,,,,,,,,,,,,,,,,,,,,,,,,,503.97529545700036,None,503.97529545700036,None,503.97529545700036,None,c,0,1.8120707710004353,505.50918267700035,None,505.50918267700035,None,505.50918267700035,None,507.3755521390003,None,507.3755521390003,None,507.3755521390003,None,507.3755521390003,None,,,,,,,,,,,,,,,,,,,,,,,,,,,,,,,,,,,,,,,,,,,,001,27,2020_Jan_30_0953,spring_faces,3.1.5,59.83559965546601,
condition files/Stage1_2.xlsx,,T4,B4,m,"['c', 'm']","['Clue', 'Monopoly']","[-0.15, 0.5]","[0.15, 0.5]",1,1,,,,,,,,,0,5,5,5,0,0,0,7,,,,,,,,,,,,,,,,,,,,,,,,,,,,,,,,,,,,,,,,,,,,,,,,,,,,,,,509.35872848800045,None,509.35872848800045,None,509.35872848800045,None,c,0,1.2935082069998316,510.89171549799994,None,510.89171549799994,None,510.89171549799994,None,512.2420312499999,None,512.2420312499999,None,512.2420312499999,None,512.2420312499999,None,,,,,,,,,,,,,,,,,,,,,,,,,,,,,,,,,,,,,,,,,,,,001,27,2020_Jan_30_0953,spring_faces,3.1.5,59.83559965546601,
condition files/Stage1_2.xlsx,,B4,T3,c,"['c', 'm']","['Clue', 'Monopoly']","[-0.15, 0.5]","[0.15, 0.5]",1,1,,,,,,,,,0,5,5,5,0,1,1,5,,,,,,,,,,,,,,,,,,,,,,,,,,,,,,,,,,,,,,,,,,,,,,,,,,,,,,,514.2079925240005,None,514.2079925240005,None,514.2079925240005,None,m,0,2.1394599850000304,515.7417433609999,None,515.7417433609999,None,515.7417433609999,None,517.9585087100004,None,517.9585087100004,None,517.9585087100004,None,517.9585087100004,None,,,,,,,,,,,,,,,,,,,,,,,,,,,,,,,,,,,,,,,,,,,,001,27,2020_Jan_30_0953,spring_faces,3.1.5,59.83559965546601,
condition files/Stage1_2.xlsx,,B3,T4,m,"['c', 'm']","['Clue', 'Monopoly']","[-0.15, 0.5]","[0.15, 0.5]",1,1,,,,,,,,,0,5,5,5,0,2,2,6,,,,,,,,,,,,,,,,,,,,,,,,,,,,,,,,,,,,,,,,,,,,,,,,,,,,,,,519.9088525590005,None,519.9088525590005,None,519.9088525590005,None,c,0,1.6223837710003863,521.4428727940003,None,521.4428727940003,None,521.4428727940003,None,523.1416557550001,None,523.1416557550001,None,523.1416557550001,None,523.1416557550001,None,,,,,,,,,,,,,,,,,,,,,,,,,,,,,,,,,,,,,,,,,,,,001,27,2020_Jan_30_0953,spring_faces,3.1.5,59.83559965546601,
condition files/Stage1_2.xlsx,,B1,T1,c,"['c', 'm']","['Clue', 'Monopoly']","[-0.15, 0.5]","[0.15, 0.5]",1,1,,,,,,,,,0,5,5,5,0,3,3,0,,,,,,,,,,,,,,,,,,,,,,,,,,,,,,,,,,,,,,,,,,,,,,,,,,,,,,,525.0920598129997,None,525.0920598129997,None,525.0920598129997,None,m,0,1.3991865460002373,526.6260858349997,None,526.6260858349997,None,526.6260858349997,None,528.078350664,None,528.078350664,None,528.078350664,None,528.078350664,None,,,,,,,,,,,,,,,,,,,,,,,,,,,,,,,,,,,,,,,,,,,,001,27,2020_Jan_30_0953,spring_faces,3.1.5,59.83559965546601,
condition files/Stage1_2.xlsx,,T2,B1,c,"['c', 'm']","['Clue', 'Monopoly']","[-0.15, 0.5]","[0.15, 0.5]",1,1,,,,,,,,,0,5,5,5,0,4,4,1,,,,,,,,,,,,,,,,,,,,,,,,,,,,,,,,,,,,,,,,,,,,,,,,,,,,,,,530.0415832460003,None,530.0415832460003,None,530.0415832460003,None,c,1,2.09868569199989,531.5745525000002,None,531.5745525000002,None,531.5745525000002,None,533.7255723210001,None,533.7255723210001,None,533.7255723210001,None,533.7255723210001,None,,,,,,,,,,,,,,,,,,,,,,,,,,,,,,,,,,,,,,,,,,,,001,27,2020_Jan_30_0953,spring_faces,3.1.5,59.83559965546601,
condition files/Stage1_2.xlsx,,T1,B2,m,"['c', 'm']","['Clue', 'Monopoly']","[-0.15, 0.5]","[0.15, 0.5]",1,1,,,,,,,,,0,5,5,5,0,5,5,2,,,,,,,,,,,,,,,,,,,,,,,,,,,,,,,,,,,,,,,,,,,,,,,,,,,,,,,535.6918009050005,None,535.6918009050005,None,535.6918009050005,None,m,1,0.9914806220003811,537.2418081140004,None,537.2418081140004,None,537.2418081140004,None,538.3091441870001,None,538.3091441870001,None,538.3091441870001,None,538.3091441870001,None,,,,,,,,,,,,,,,,,,,,,,,,,,,,,,,,,,,,,,,,,,,,001,27,2020_Jan_30_0953,spring_faces,3.1.5,59.83559965546601,
condition files/Stage1_2.xlsx,,T3,B3,c,"['c', 'm']","['Clue', 'Monopoly']","[-0.15, 0.5]","[0.15, 0.5]",1,1,,,,,,,,,0,5,5,5,0,6,6,4,,,,,,,,,,,,,,,,,,,,,,,,,,,,,,,,,,,,,,,,,,,,,,,,,,,,,,,540.2587446059997,None,540.2587446059997,None,540.2587446059997,None,c,1,2.1050773179995304,541.7921930580005,None,541.7921930580005,None,541.7921930580005,None,543.9585906259999,None,543.9585906259999,None,543.9585906259999,None,543.9585906259999,None,,,,,,,,,,,,,,,,,,,,,,,,,,,,,,,,,,,,,,,,,,,,001,27,2020_Jan_30_0953,spring_faces,3.1.5,59.83559965546601,
condition files/Stage1_2.xlsx,,B2,T2,m,"['c', 'm']","['Clue', 'Monopoly']","[-0.15, 0.5]","[0.15, 0.5]",1,1,,,,,,,,,0,5,5,5,0,7,7,3,,,,,,,,,,,,,,,,,,,,,,,,,,,,,,,,,,,,,,,,,,,,,,,,,,,,,,,545.9251840759998,None,545.9251840759998,None,545.9251840759998,None,m,1,0.6763419299995803,547.4609022579998,None,547.4609022579998,None,547.4609022579998,None,548.2088780909999,None,548.2088780909999,None,548.2088780909999,None,548.2088780909999,None,,,,,,,,,,,,,,,,,,,,,,,,,,,,,,,,,,,,,,,,,,,,001,27,2020_Jan_30_0953,spring_faces,3.1.5,59.83559965546601,
condition files/Stage1_1.xlsx,,T1,B1,c,"['c', 'm']","['Clue', 'Monopoly']","[-0.15, 0.5]","[0.15, 0.5]",1,1,,,,,,,,,0,6,6,6,0,0,0,0,,,,,,,,,,,,,,,,,,,,,,,,,,,,,,,,,,,,,,,,,,,,,,,,,,,,,,,550.1757604800005,None,550.1757604800005,None,550.1757604800005,None,c,1,1.6764561770005457,551.7087795019997,None,551.7087795019997,None,551.7087795019997,None,553.4582204260005,None,553.4582204260005,None,553.4582204260005,None,553.4582204260005,None,,,,,,,,,,,,,,,,,,,,,,,,,,,,,,,,,,,,,,,,,,,,001,27,2020_Jan_30_0953,spring_faces,3.1.5,59.83559965546601,
condition files/Stage1_1.xlsx,,T3,B4,c,"['c', 'm']","['Clue', 'Monopoly']","[-0.15, 0.5]","[0.15, 0.5]",1,1,,,,,,,,,0,6,6,6,0,1,1,5,,,,,,,,,,,,,,,,,,,,,,,,,,,,,,,,,,,,,,,,,,,,,,,,,,,,,,,555.4085298950004,None,555.4085298950004,None,555.4085298950004,None,c,1,2.411085562000153,556.9421306650001,None,556.9421306650001,None,556.9421306650001,None,559.4085631810003,None,559.4085631810003,None,559.4085631810003,None,559.4085631810003,None,,,,,,,,,,,,,,,,,,,,,,,,,,,,,,,,,,,,,,,,,,,,001,27,2020_Jan_30_0953,spring_faces,3.1.5,59.83559965546601,
condition files/Stage1_1.xlsx,,B2,T1,m,"['c', 'm']","['Clue', 'Monopoly']","[-0.15, 0.5]","[0.15, 0.5]",1,1,,,,,,,,,0,6,6,6,0,2,2,2,,,,,,,,,,,,,,,,,,,,,,,,,,,,,,,,,,,,,,,,,,,,,,,,,,,,,,,561.3752234650001,None,561.3752234650001,None,561.3752234650001,None,m,1,0.5238496839992877,562.9254308319996,None,562.9254308319996,None,562.9254308319996,None,563.525558716,None,563.525558716,None,563.525558716,None,563.525558716,None,,,,,,,,,,,,,,,,,,,,,,,,,,,,,,,,,,,,,,,,,,,,001,27,2020_Jan_30_0953,spring_faces,3.1.5,59.83559965546601,
condition files/Stage1_1.xlsx,,T2,B2,m,"['c', 'm']","['Clue', 'Monopoly']","[-0.15, 0.5]","[0.15, 0.5]",1,1,,,,,,,,,0,6,6,6,0,3,3,3,,,,,,,,,,,,,,,,,,,,,,,,,,,,,,,,,,,,,,,,,,,,,,,,,,,,,,,565.4748149779998,None,565.4748149779998,None,565.4748149779998,None,m,1,0.6010154759997022,567.0081879139998,None,567.0081879139998,None,567.0081879139998,None,567.675570677,None,567.675570677,None,567.675570677,None,567.675570677,None,,,,,,,,,,,,,,,,,,,,,,,,,,,,,,,,,,,,,,,,,,,,001,27,2020_Jan_30_0953,spring_faces,3.1.5,59.83559965546601,
condition files/Stage1_1.xlsx,,B3,T3,c,"['c', 'm']","['Clue', 'Monopoly']","[-0.15, 0.5]","[0.15, 0.5]",1,1,,,,,,,,,0,6,6,6,0,4,4,4,,,,,,,,,,,,,,,,,,,,,,,,,,,,,,,,,,,,,,,,,,,,,,,,,,,,,,,569.6420834130004,None,569.6420834130004,None,569.6420834130004,None,c,1,1.3138157140001567,571.1915380420005,None,571.1915380420005,None,571.1915380420005,None,572.560077952,None,572.560077952,None,572.560077952,None,572.560077952,None,,,,,,,,,,,,,,,,,,,,,,,,,,,,,,,,,,,,,,,,,,,,001,27,2020_Jan_30_0953,spring_faces,3.1.5,59.83559965546601,
condition files/Stage1_1.xlsx,,T4,B3,m,"['c', 'm']","['Clue', 'Monopoly']","[-0.15, 0.5]","[0.15, 0.5]",1,1,,,,,,,,,0,6,6,6,0,5,5,6,,,,,,,,,,,,,,,,,,,,,,,,,,,,,,,,,,,,,,,,,,,,,,,,,,,,,,,574.5250448440001,None,574.5250448440001,None,574.5250448440001,None,m,1,0.5427204289999281,576.0585615110003,None,576.0585615110003,None,576.0585615110003,None,576.660506444,None,576.660506444,None,576.660506444,None,576.660506444,None,,,,,,,,,,,,,,,,,,,,,,,,,,,,,,,,,,,,,,,,,,,,001,27,2020_Jan_30_0953,spring_faces,3.1.5,59.83559965546601,
condition files/Stage1_1.xlsx,,B4,T4,m,"['c', 'm']","['Clue', 'Monopoly']","[-0.15, 0.5]","[0.15, 0.5]",1,1,,,,,,,,,0,6,6,6,0,6,6,7,,,,,,,,,,,,,,,,,,,,,,,,,,,,,,,,,,,,,,,,,,,,,,,,,,,,,,,578.625336006,None,578.625336006,None,578.625336006,None,c,0,1.3223791889995482,580.1588734590005,None,580.1588734590005,None,580.1588734590005,None,581.5419254690005,None,581.5419254690005,None,581.5419254690005,None,581.5419254690005,None,,,,,,,,,,,,,,,,,,,,,,,,,,,,,,,,,,,,,,,,,,,,001,27,2020_Jan_30_0953,spring_faces,3.1.5,59.83559965546601,
condition files/Stage1_1.xlsx,,B1,T2,c,"['c', 'm']","['Clue', 'Monopoly']","[-0.15, 0.5]","[0.15, 0.5]",1,1,,,,,,,,,0,6,6,6,0,7,7,1,,,,,,,,,,,,,,,,,,,,,,,,,,,,,,,,,,,,,,,,,,,,,,,,,,,,,,,583.5085285100004,None,583.5085285100004,None,583.5085285100004,None,c,1,1.975449433999529,585.0418592630003,None,585.0418592630003,None,585.0418592630003,None,587.0774050179998,None,587.0774050179998,None,587.0774050179998,None,587.0774050179998,None,,,,,,,,,,,,,,,,,,,,,,,,,,,,,,,,,,,,,,,,,,,,001,27,2020_Jan_30_0953,spring_faces,3.1.5,59.83559965546601,
condition files/Stage1_2.xlsx,,B1,T1,c,"['c', 'm']","['Clue', 'Monopoly']","[-0.15, 0.5]","[0.15, 0.5]",1,1,,,,,,,,,0,7,7,7,0,0,0,0,,,,,,,,,,,,,,,,,,,,,,,,,,,,,,,,,,,,,,,,,,,,,,,,,,,,,,,589.0586085710001,None,589.0586085710001,None,589.0586085710001,None,c,1,0.680389159000697,590.608843989,None,590.608843989,None,590.608843989,None,591.3421715800005,None,591.3421715800005,None,591.3421715800005,None,591.3421715800005,None,,,,,,,,,,,,,,,,,,,,,,,,,,,,,,,,,,,,,,,,,,,,001,27,2020_Jan_30_0953,spring_faces,3.1.5,59.83559965546601,
condition files/Stage1_2.xlsx,,T4,B4,m,"['c', 'm']","['Clue', 'Monopoly']","[-0.15, 0.5]","[0.15, 0.5]",1,1,,,,,,,,,0,7,7,7,0,1,1,7,,,,,,,,,,,,,,,,,,,,,,,,,,,,,,,,,,,,,,,,,,,,,,,,,,,,,,,593.3086227390004,None,593.3086227390004,None,593.3086227390004,None,c,0,1.53502726699935,594.842204994,None,594.842204994,None,594.842204994,None,596.442446428,None,596.442446428,None,596.442446428,None,596.442446428,None,,,,,,,,,,,,,,,,,,,,,,,,,,,,,,,,,,,,,,,,,,,,001,27,2020_Jan_30_0953,spring_faces,3.1.5,59.83559965546601,
condition files/Stage1_2.xlsx,,T2,B1,c,"['c', 'm']","['Clue', 'Monopoly']","[-0.15, 0.5]","[0.15, 0.5]",1,1,,,,,,,,,0,7,7,7,0,2,2,1,,,,,,,,,,,,,,,,,,,,,,,,,,,,,,,,,,,,,,,,,,,,,,,,,,,,,,,598.4087314910003,None,598.4087314910003,None,598.4087314910003,None,c,1,1.058791575000214,599.9425122410003,None,599.9425122410003,None,599.9425122410003,None,601.0609915960003,None,601.0609915960003,None,601.0609915960003,None,601.0609915960003,None,,,,,,,,,,,,,,,,,,,,,,,,,,,,,,,,,,,,,,,,,,,,001,27,2020_Jan_30_0953,spring_faces,3.1.5,59.83559965546601,
condition files/Stage1_2.xlsx,,B3,T4,m,"['c', 'm']","['Clue', 'Monopoly']","[-0.15, 0.5]","[0.15, 0.5]",1,1,,,,,,,,,0,7,7,7,0,3,3,6,,,,,,,,,,,,,,,,,,,,,,,,,,,,,,,,,,,,,,,,,,,,,,,,,,,,,,,603.0252790909999,None,603.0252790909999,None,603.0252790909999,None,c,0,2.554511010999704,604.5587549519996,None,604.5587549519996,None,604.5587549519996,None,607.1771267639997,None,607.1771267639997,None,607.1771267639997,None,607.1771267639997,None,,,,,,,,,,,,,,,,,,,,,,,,,,,,,,,,,,,,,,,,,,,,001,27,2020_Jan_30_0953,spring_faces,3.1.5,59.83559965546601,
condition files/Stage1_2.xlsx,,B4,T3,c,"['c', 'm']","['Clue', 'Monopoly']","[-0.15, 0.5]","[0.15, 0.5]",1,1,,,,,,,,,0,7,7,7,0,4,4,5,,,,,,,,,,,,,,,,,,,,,,,,,,,,,,,,,,,,,,,,,,,,,,,,,,,,,,,609.1419406160003,None,609.1419406160003,None,609.1419406160003,None,c,1,2.8047967969996535,610.6924666510004,None,610.6924666510004,None,610.6924666510004,None,613.5595002959999,None,613.5595002959999,None,613.5595002959999,None,613.5595002959999,None,,,,,,,,,,,,,,,,,,,,,,,,,,,,,,,,,,,,,,,,,,,,001,27,2020_Jan_30_0953,spring_faces,3.1.5,59.83559965546601,
condition files/Stage1_2.xlsx,,T1,B2,m,"['c', 'm']","['Clue', 'Monopoly']","[-0.15, 0.5]","[0.15, 0.5]",1,1,,,,,,,,,0,7,7,7,0,5,5,2,,,,,,,,,,,,,,,,,,,,,,,,,,,,,,,,,,,,,,,,,,,,,,,,,,,,,,,615.5252903130004,None,615.5252903130004,None,615.5252903130004,None,m,1,0.6945097550005812,617.058724296,None,617.058724296,None,617.058724296,None,617.8249489440004,None,617.8249489440004,None,617.8249489440004,None,617.8249489440004,None,,,,,,,,,,,,,,,,,,,,,,,,,,,,,,,,,,,,,,,,,,,,001,27,2020_Jan_30_0953,spring_faces,3.1.5,59.83559965546601,
condition files/Stage1_2.xlsx,,B2,T2,m,"['c', 'm']","['Clue', 'Monopoly']","[-0.15, 0.5]","[0.15, 0.5]",1,1,,,,,,,,,0,7,7,7,0,6,6,3,,,,,,,,,,,,,,,,,,,,,,,,,,,,,,,,,,,,,,,,,,,,,,,,,,,,,,,619.77557247,None,619.77557247,None,619.77557247,None,m,1,0.7148569629998747,621.3104170890001,None,621.3104170890001,None,621.3104170890001,None,622.0757079229998,None,622.0757079229998,None,622.0757079229998,None,622.0757079229998,None,,,,,,,,,,,,,,,,,,,,,,,,,,,,,,,,,,,,,,,,,,,,001,27,2020_Jan_30_0953,spring_faces,3.1.5,59.83559965546601,
condition files/Stage1_2.xlsx,,T3,B3,c,"['c', 'm']","['Clue', 'Monopoly']","[-0.15, 0.5]","[0.15, 0.5]",1,1,,,,,,,,,0,7,7,7,0,7,7,4,,,,,,,,,,,,,,,,,,,,,,,,,,,,,,,,,,,,,,,,,,,,,,,,,,,,,,,624.0413731790004,None,624.0413731790004,None,624.0413731790004,None,m,0,1.3617448089999016,625.5754624749998,None,625.5754624749998,None,625.5754624749998,None,626.9950396519998,None,626.9950396519998,None,626.9950396519998,None,626.9950396519998,None,,,,,,,,,,,,,,,,,,,,,,,,,,,,,,,,,,,,,,,,,,,,001,27,2020_Jan_30_0953,spring_faces,3.1.5,59.83559965546601,
condition files/Stage1_1.xlsx,,B4,T4,m,"['c', 'm']","['Clue', 'Monopoly']","[-0.15, 0.5]","[0.15, 0.5]",1,1,,,,,,,,,0,8,8,8,0,0,0,7,,,,,,,,,,,,,,,,,,,,,,,,,,,,,,,,,,,,,,,,,,,,,,,,,,,,,,,628.9754693390005,None,628.9754693390005,None,628.9754693390005,None,c,0,1.8989480549998916,630.5102780520001,None,630.5102780520001,None,630.5102780520001,None,632.475075935,None,632.475075935,None,632.475075935,None,632.475075935,None,,,,,,,,,,,,,,,,,,,,,,,,,,,,,,,,,,,,,,,,,,,,001,27,2020_Jan_30_0953,spring_faces,3.1.5,59.83559965546601,
condition files/Stage1_1.xlsx,,T4,B3,m,"['c', 'm']","['Clue', 'Monopoly']","[-0.15, 0.5]","[0.15, 0.5]",1,1,,,,,,,,,0,8,8,8,0,1,1,6,,,,,,,,,,,,,,,,,,,,,,,,,,,,,,,,,,,,,,,,,,,,,,,,,,,,,,,634.4419450630003,None,634.4419450630003,None,634.4419450630003,None,m,1,1.2980174710000938,635.9752307260005,None,635.9752307260005,None,635.9752307260005,None,637.3259280060001,None,637.3259280060001,None,637.3259280060001,None,637.3259280060001,None,,,,,,,,,,,,,,,,,,,,,,,,,,,,,,,,,,,,,,,,,,,,001,27,2020_Jan_30_0953,spring_faces,3.1.5,59.83559965546601,
condition files/Stage1_1.xlsx,,B2,T1,m,"['c', 'm']","['Clue', 'Monopoly']","[-0.15, 0.5]","[0.15, 0.5]",1,1,,,,,,,,,0,8,8,8,0,2,2,2,,,,,,,,,,,,,,,,,,,,,,,,,,,,,,,,,,,,,,,,,,,,,,,,,,,,,,,639.2915171730001,None,639.2915171730001,None,639.2915171730001,None,m,1,1.422383443000399,640.8269391860003,None,640.8269391860003,None,640.8269391860003,None,642.3090495280003,None,642.3090495280003,None,642.3090495280003,None,642.3090495280003,None,,,,,,,,,,,,,,,,,,,,,,,,,,,,,,,,,,,,,,,,,,,,001,27,2020_Jan_30_0953,spring_faces,3.1.5,59.83559965546601,
condition files/Stage1_1.xlsx,,B3,T3,c,"['c', 'm']","['Clue', 'Monopoly']","[-0.15, 0.5]","[0.15, 0.5]",1,1,,,,,,,,,0,8,8,8,0,3,3,4,,,,,,,,,,,,,,,,,,,,,,,,,,,,,,,,,,,,,,,,,,,,,,,,,,,,,,,644.2750258340002,None,644.2750258340002,None,644.2750258340002,None,c,1,1.4798317519998818,645.8094077900005,None,645.8094077900005,None,645.8094077900005,None,647.3445233700004,None,647.3445233700004,None,647.3445233700004,None,647.3445233700004,None,,,,,,,,,,,,,,,,,,,,,,,,,,,,,,,,,,,,,,,,,,,,001,27,2020_Jan_30_0953,spring_faces,3.1.5,59.83559965546601,
condition files/Stage1_1.xlsx,,T2,B2,m,"['c', 'm']","['Clue', 'Monopoly']","[-0.15, 0.5]","[0.15, 0.5]",1,1,,,,,,,,,0,8,8,8,0,4,4,3,,,,,,,,,,,,,,,,,,,,,,,,,,,,,,,,,,,,,,,,,,,,,,,,,,,,,,,649.3083120470001,None,649.3083120470001,None,649.3083120470001,None,m,1,0.5115135149999332,650.8417107630003,None,650.8417107630003,None,650.8417107630003,None,651.4253064920003,None,651.4253064920003,None,651.4253064920003,None,651.4253064920003,None,,,,,,,,,,,,,,,,,,,,,,,,,,,,,,,,,,,,,,,,,,,,001,27,2020_Jan_30_0953,spring_faces,3.1.5,59.83559965546601,
condition files/Stage1_1.xlsx,,T3,B4,c,"['c', 'm']","['Clue', 'Monopoly']","[-0.15, 0.5]","[0.15, 0.5]",1,1,,,,,,,,,0,8,8,8,0,5,5,5,,,,,,,,,,,,,,,,,,,,,,,,,,,,,,,,,,,,,,,,,,,,,,,,,,,,,,,653.375134033,None,653.375134033,None,653.375134033,None,c,1,1.0041511409999657,654.9091120100002,None,654.9091120100002,None,654.9091120100002,None,655.9923408909999,None,655.9923408909999,None,655.9923408909999,None,655.9923408909999,None,,,,,,,,,,,,,,,,,,,,,,,,,,,,,,,,,,,,,,,,,,,,001,27,2020_Jan_30_0953,spring_faces,3.1.5,59.83559965546601,
condition files/Stage1_1.xlsx,,T1,B1,c,"['c', 'm']","['Clue', 'Monopoly']","[-0.15, 0.5]","[0.15, 0.5]",1,1,,,,,,,,,0,8,8,8,0,6,6,0,,,,,,,,,,,,,,,,,,,,,,,,,,,,,,,,,,,,,,,,,,,,,,,,,,,,,,,657.9419877440005,None,657.9419877440005,None,657.9419877440005,None,c,1,1.062088650000078,659.4751713400001,None,659.4751713400001,None,659.4751713400001,None,660.5915121500002,None,660.5915121500002,None,660.5915121500002,None,660.5915121500002,None,,,,,,,,,,,,,,,,,,,,,,,,,,,,,,,,,,,,,,,,,,,,001,27,2020_Jan_30_0953,spring_faces,3.1.5,59.83559965546601,
condition files/Stage1_1.xlsx,,B1,T2,c,"['c', 'm']","['Clue', 'Monopoly']","[-0.15, 0.5]","[0.15, 0.5]",1,1,,,,,,,,,0,8,8,8,0,7,7,1,,,,,,,,,,,,,,,,,,,,,,,,,,,,,,,,,,,,,,,,,,,,,,,,,,,,,,,662.5585109539998,None,662.5585109539998,None,662.5585109539998,None,c,1,0.6214039430005869,664.0918692410005,None,664.0918692410005,None,664.0918692410005,None,664.7748708899999,None,664.7748708899999,None,664.7748708899999,None,664.7748708899999,None,,,,,,,,,,,,,,,,,,,,,,,,,,,,,,,,,,,,,,,,,,,,001,27,2020_Jan_30_0953,spring_faces,3.1.5,59.83559965546601,
condition files/Stage1_2.xlsx,,T4,B4,m,"['c', 'm']","['Clue', 'Monopoly']","[-0.15, 0.5]","[0.15, 0.5]",1,1,,,,,,,,,0,9,9,9,0,0,0,7,,,,,,,,,,,,,,,,,,,,,,,,,,,,,,,,,,,,,,,,,,,,,,,,,,,,,,,666.7589286960001,None,666.7589286960001,None,666.7589286960001,None,m,1,1.3474073060006049,668.2938781789999,None,668.2938781789999,None,668.2938781789999,None,669.7089029260005,None,669.7089029260005,None,669.7089029260005,None,669.7089029260005,None,,,,,,,,,,,,,,,,,,,,,,,,,,,,,,,,,,,,,,,,,,,,001,27,2020_Jan_30_0953,spring_faces,3.1.5,59.83559965546601,
condition files/Stage1_2.xlsx,,T3,B3,c,"['c', 'm']","['Clue', 'Monopoly']","[-0.15, 0.5]","[0.15, 0.5]",1,1,,,,,,,,,0,9,9,9,0,1,1,4,,,,,,,,,,,,,,,,,,,,,,,,,,,,,,,,,,,,,,,,,,,,,,,,,,,,,,,671.6583396779997,None,671.6583396779997,None,671.6583396779997,None,m,0,1.2806783320002069,673.1925582450003,None,673.1925582450003,None,673.1925582450003,None,674.5420522089998,None,674.5420522089998,None,674.5420522089998,None,674.5420522089998,None,,,,,,,,,,,,,,,,,,,,,,,,,,,,,,,,,,,,,,,,,,,,001,27,2020_Jan_30_0953,spring_faces,3.1.5,59.83559965546601,
condition files/Stage1_2.xlsx,,T1,B2,m,"['c', 'm']","['Clue', 'Monopoly']","[-0.15, 0.5]","[0.15, 0.5]",1,1,,,,,,,,,0,9,9,9,0,2,2,2,,,,,,,,,,,,,,,,,,,,,,,,,,,,,,,,,,,,,,,,,,,,,,,,,,,,,,,676.4919815379999,None,676.4919815379999,None,676.4919815379999,None,m,1,0.7992304109993711,678.0260406529997,None,678.0260406529997,None,678.0260406529997,None,678.8781065559997,None,678.8781065559997,None,678.8781065559997,None,678.8781065559997,None,,,,,,,,,,,,,,,,,,,,,,,,,,,,,,,,,,,,,,,,,,,,001,27,2020_Jan_30_0953,spring_faces,3.1.5,59.83559965546601,
condition files/Stage1_2.xlsx,,B1,T1,c,"['c', 'm']","['Clue', 'Monopoly']","[-0.15, 0.5]","[0.15, 0.5]",1,1,,,,,,,,,0,9,9,9,0,3,3,0,,,,,,,,,,,,,,,,,,,,,,,,,,,,,,,,,,,,,,,,,,,,,,,,,,,,,,,680.8419125050004,None,680.8419125050004,None,680.8419125050004,None,c,1,0.831551118999414,682.3776777900002,None,682.3776777900002,None,682.3776777900002,None,683.2756172179998,None,683.2756172179998,None,683.2756172179998,None,683.2756172179998,None,,,,,,,,,,,,,,,,,,,,,,,,,,,,,,,,,,,,,,,,,,,,001,27,2020_Jan_30_0953,spring_faces,3.1.5,59.83559965546601,
condition files/Stage1_2.xlsx,,B3,T4,m,"['c', 'm']","['Clue', 'Monopoly']","[-0.15, 0.5]","[0.15, 0.5]",1,1,,,,,,,,,0,9,9,9,0,4,4,6,,,,,,,,,,,,,,,,,,,,,,,,,,,,,,,,,,,,,,,,,,,,,,,,,,,,,,,685.2417930860001,None,685.2417930860001,None,685.2417930860001,None,c,0,1.2020714020000014,686.7751781679999,None,686.7751781679999,None,686.7751781679999,None,688.0434331550005,None,688.0434331550005,None,688.0434331550005,None,688.0434331550005,None,,,,,,,,,,,,,,,,,,,,,,,,,,,,,,,,,,,,,,,,,,,,001,27,2020_Jan_30_0953,spring_faces,3.1.5,59.83559965546601,
condition files/Stage1_2.xlsx,,T2,B1,c,"['c', 'm']","['Clue', 'Monopoly']","[-0.15, 0.5]","[0.15, 0.5]",1,1,,,,,,,,,0,9,9,9,0,5,5,1,,,,,,,,,,,,,,,,,,,,,,,,,,,,,,,,,,,,,,,,,,,,,,,,,,,,,,,690.0084505479999,None,690.0084505479999,None,690.0084505479999,None,c,1,1.2018032160003713,691.5434696100001,None,691.5434696100001,None,691.5434696100001,None,692.8104929809997,None,692.8104929809997,None,692.8104929809997,None,692.8104929809997,None,,,,,,,,,,,,,,,,,,,,,,,,,,,,,,,,,,,,,,,,,,,,001,27,2020_Jan_30_0953,spring_faces,3.1.5,59.83559965546601,
condition files/Stage1_2.xlsx,,B4,T3,c,"['c', 'm']","['Clue', 'Monopoly']","[-0.15, 0.5]","[0.15, 0.5]",1,1,,,,,,,,,0,9,9,9,0,6,6,5,,,,,,,,,,,,,,,,,,,,,,,,,,,,,,,,,,,,,,,,,,,,,,,,,,,,,,,694.7754938959997,None,694.7754938959997,None,694.7754938959997,None,m,0,1.892581364999387,696.3087151620002,None,696.3087151620002,None,696.3087151620002,None,698.259003442,None,698.259003442,None,698.259003442,None,698.259003442,None,,,,,,,,,,,,,,,,,,,,,,,,,,,,,,,,,,,,,,,,,,,,001,27,2020_Jan_30_0953,spring_faces,3.1.5,59.83559965546601,
condition files/Stage1_2.xlsx,,B2,T2,m,"['c', 'm']","['Clue', 'Monopoly']","[-0.15, 0.5]","[0.15, 0.5]",1,1,,,,,,,,,0,9,9,9,0,7,7,3,,,,,,,,,,,,,,,,,,,,,,,,,,,,,,,,,,,,,,,,,,,,,,,,,,,,,,,700.2253780580004,None,700.2253780580004,None,700.2253780580004,None,m,1,0.7790954030006105,701.7580983480002,None,701.7580983480002,None,701.7580983480002,None,702.5936467390002,None,702.5936467390002,None,702.5936467390002,None,702.5936467390002,None,,,,,,,,,,,,,,,,,,,,,,,,,,,,,,,,,,,,,,,,,,,,001,27,2020_Jan_30_0953,spring_faces,3.1.5,59.83559965546601,
condition files/Stage1_1.xlsx,,B1,T2,c,"['c', 'm']","['Clue', 'Monopoly']","[-0.15, 0.5]","[0.15, 0.5]",1,1,,,,,,,,,0,10,10,10,0,0,0,1,,,,,,,,,,,,,,,,,,,,,,,,,,,,,,,,,,,,,,,,,,,,,,,,,,,,,,,704.57549982,None,704.57549982,None,704.57549982,None,c,1,0.6523877889994765,706.1088899839997,None,706.1088899839997,None,706.1088899839997,None,706.8261615700003,None,706.8261615700003,None,706.8261615700003,None,706.8261615700003,None,,,,,,,,,,,,,,,,,,,,,,,,,,,,,,,,,,,,,,,,,,,,001,27,2020_Jan_30_0953,spring_faces,3.1.5,59.83559965546601,
condition files/Stage1_1.xlsx,,B4,T4,m,"['c', 'm']","['Clue', 'Monopoly']","[-0.15, 0.5]","[0.15, 0.5]",1,1,,,,,,,,,0,10,10,10,0,1,1,7,,,,,,,,,,,,,,,,,,,,,,,,,,,,,,,,,,,,,,,,,,,,,,,,,,,,,,,708.7921717810004,None,708.7921717810004,None,708.7921717810004,None,c,0,1.3000142219998452,710.3252682570001,None,710.3252682570001,None,710.3252682570001,None,711.6780792440004,None,711.6780792440004,None,711.6780792440004,None,711.6780792440004,None,,,,,,,,,,,,,,,,,,,,,,,,,,,,,,,,,,,,,,,,,,,,001,27,2020_Jan_30_0953,spring_faces,3.1.5,59.83559965546601,
condition files/Stage1_1.xlsx,,B3,T3,c,"['c', 'm']","['Clue', 'Monopoly']","[-0.15, 0.5]","[0.15, 0.5]",1,1,,,,,,,,,0,10,10,10,0,2,2,4,,,,,,,,,,,,,,,,,,,,,,,,,,,,,,,,,,,,,,,,,,,,,,,,,,,,,,,713.6412996250001,None,713.6412996250001,None,713.6412996250001,None,c,1,1.1998642170001403,715.1773830370003,None,715.1773830370003,None,715.1773830370003,None,716.44250964,None,716.44250964,None,716.44250964,None,716.44250964,None,,,,,,,,,,,,,,,,,,,,,,,,,,,,,,,,,,,,,,,,,,,,001,27,2020_Jan_30_0953,spring_faces,3.1.5,59.83559965546601,
condition files/Stage1_1.xlsx,,T2,B2,m,"['c', 'm']","['Clue', 'Monopoly']","[-0.15, 0.5]","[0.15, 0.5]",1,1,,,,,,,,,0,10,10,10,0,3,3,3,,,,,,,,,,,,,,,,,,,,,,,,,,,,,,,,,,,,,,,,,,,,,,,,,,,,,,,718.4085542350003,None,718.4085542350003,None,718.4085542350003,None,m,1,0.8188892680000208,719.9583442169996,None,719.9583442169996,None,719.9583442169996,None,720.8436718120001,None,720.8436718120001,None,720.8436718120001,None,720.8436718120001,None,,,,,,,,,,,,,,,,,,,,,,,,,,,,,,,,,,,,,,,,,,,,001,27,2020_Jan_30_0953,spring_faces,3.1.5,59.83559965546601,
condition files/Stage1_1.xlsx,,T4,B3,m,"['c', 'm']","['Clue', 'Monopoly']","[-0.15, 0.5]","[0.15, 0.5]",1,1,,,,,,,,,0,10,10,10,0,4,4,6,,,,,,,,,,,,,,,,,,,,,,,,,,,,,,,,,,,,,,,,,,,,,,,,,,,,,,,722.8088513459998,None,722.8088513459998,None,722.8088513459998,None,m,1,2.1631629749999775,724.342089488,None,724.342089488,None,724.342089488,None,726.5591205460005,None,726.5591205460005,None,726.5591205460005,None,726.5591205460005,None,,,,,,,,,,,,,,,,,,,,,,,,,,,,,,,,,,,,,,,,,,,,001,27,2020_Jan_30_0953,spring_faces,3.1.5,59.83559965546601,
condition files/Stage1_1.xlsx,,T3,B4,c,"['c', 'm']","['Clue', 'Monopoly']","[-0.15, 0.5]","[0.15, 0.5]",1,1,,,,,,,,,0,10,10,10,0,5,5,5,,,,,,,,,,,,,,,,,,,,,,,,,,,,,,,,,,,,,,,,,,,,,,,,,,,,,,,728.5253771289999,None,728.5253771289999,None,728.5253771289999,None,c,1,1.7093056240000806,730.0599980220004,None,730.0599980220004,None,730.0599980220004,None,731.8423578789998,None,731.8423578789998,None,731.8423578789998,None,731.8423578789998,None,,,,,,,,,,,,,,,,,,,,,,,,,,,,,,,,,,,,,,,,,,,,001,27,2020_Jan_30_0953,spring_faces,3.1.5,59.83559965546601,
condition files/Stage1_1.xlsx,,B2,T1,m,"['c', 'm']","['Clue', 'Monopoly']","[-0.15, 0.5]","[0.15, 0.5]",1,1,,,,,,,,,0,10,10,10,0,6,6,2,,,,,,,,,,,,,,,,,,,,,,,,,,,,,,,,,,,,,,,,,,,,,,,,,,,,,,,733.7919556719999,None,733.7919556719999,None,733.7919556719999,None,m,1,0.5243432659999598,735.324942065,None,735.324942065,None,735.324942065,None,735.9256218390001,None,735.9256218390001,None,735.9256218390001,None,735.9256218390001,None,,,,,,,,,,,,,,,,,,,,,,,,,,,,,,,,,,,,,,,,,,,,001,27,2020_Jan_30_0953,spring_faces,3.1.5,59.83559965546601,
condition files/Stage1_1.xlsx,,T1,B1,c,"['c', 'm']","['Clue', 'Monopoly']","[-0.15, 0.5]","[0.15, 0.5]",1,1,,,,,,,,,0,10,10,10,0,7,7,0,,,,,,,,,,,,,,,,,,,,,,,,,,,,,,,,,,,,,,,,,,,,,,,,,,,,,,,737.8752904350004,None,737.8752904350004,None,737.8752904350004,None,c,1,0.8733745370000179,739.4078688219997,None,739.4078688219997,None,739.4078688219997,None,740.3439967690001,None,740.3439967690001,None,740.3439967690001,None,740.3439967690001,None,,,,,,,,,,,,,,,,,,,,,,,,,,,,,,,,,,,,,,,,,,,,001,27,2020_Jan_30_0953,spring_faces,3.1.5,59.83559965546601,
condition files/Stage1_2.xlsx,,B1,T1,c,"['c', 'm']","['Clue', 'Monopoly']","[-0.15, 0.5]","[0.15, 0.5]",1,1,,,,,,,,,0,11,11,11,0,0,0,0,,,,,,,,,,,,,,,,,,,,,,,,,,,,,,,,,,,,,,,,,,,,,,,,,,,,,,,742.3250413659998,None,742.3250413659998,None,742.3250413659998,None,c,1,0.7414836719999585,743.8758255980001,None,743.8758255980001,None,743.8758255980001,None,744.6758853130004,None,744.6758853130004,None,744.6758853130004,None,744.6758853130004,None,,,,,,,,,,,,,,,,,,,,,,,,,,,,,,,,,,,,,,,,,,,,001,27,2020_Jan_30_0953,spring_faces,3.1.5,59.83559965546601,
condition files/Stage1_2.xlsx,,B4,T3,c,"['c', 'm']","['Clue', 'Monopoly']","[-0.15, 0.5]","[0.15, 0.5]",1,1,,,,,,,,,0,11,11,11,0,1,1,5,,,,,,,,,,,,,,,,,,,,,,,,,,,,,,,,,,,,,,,,,,,,,,,,,,,,,,,746.6413324169998,None,746.6413324169998,None,746.6413324169998,None,c,1,1.4479435570001442,748.1773351219999,None,748.1773351219999,None,748.1773351219999,None,749.6754699929998,None,749.6754699929998,None,749.6754699929998,None,749.6754699929998,None,,,,,,,,,,,,,,,,,,,,,,,,,,,,,,,,,,,,,,,,,,,,001,27,2020_Jan_30_0953,spring_faces,3.1.5,59.83559965546601,
condition files/Stage1_2.xlsx,,T3,B3,c,"['c', 'm']","['Clue', 'Monopoly']","[-0.15, 0.5]","[0.15, 0.5]",1,1,,,,,,,,,0,11,11,11,0,2,2,4,,,,,,,,,,,,,,,,,,,,,,,,,,,,,,,,,,,,,,,,,,,,,,,,,,,,,,,751.6419894150004,None,751.6419894150004,None,751.6419894150004,None,m,0,1.1220730160002859,753.1752027310004,None,753.1752027310004,None,753.1752027310004,None,754.3585991540003,None,754.3585991540003,None,754.3585991540003,None,754.3585991540003,None,,,,,,,,,,,,,,,,,,,,,,,,,,,,,,,,,,,,,,,,,,,,001,27,2020_Jan_30_0953,spring_faces,3.1.5,59.83559965546601,
condition files/Stage1_2.xlsx,,T2,B1,c,"['c', 'm']","['Clue', 'Monopoly']","[-0.15, 0.5]","[0.15, 0.5]",1,1,,,,,,,,,0,11,11,11,0,3,3,1,,,,,,,,,,,,,,,,,,,,,,,,,,,,,,,,,,,,,,,,,,,,,,,,,,,,,,,756.3255530160004,None,756.3255530160004,None,756.3255530160004,None,c,1,0.9343957760002013,757.8588069879997,None,757.8588069879997,None,757.8588069879997,None,758.8589513460001,None,758.8589513460001,None,758.8589513460001,None,758.8589513460001,None,,,,,,,,,,,,,,,,,,,,,,,,,,,,,,,,,,,,,,,,,,,,001,27,2020_Jan_30_0953,spring_faces,3.1.5,59.83559965546601,
condition files/Stage1_2.xlsx,,B2,T2,m,"['c', 'm']","['Clue', 'Monopoly']","[-0.15, 0.5]","[0.15, 0.5]",1,1,,,,,,,,,0,11,11,11,0,4,4,3,,,,,,,,,,,,,,,,,,,,,,,,,,,,,,,,,,,,,,,,,,,,,,,,,,,,,,,760.8253557520002,None,760.8253557520002,None,760.8253557520002,None,m,1,1.377551671999754,762.3596931069997,None,762.3596931069997,None,762.3596931069997,None,763.7940763590004,None,763.7940763590004,None,763.7940763590004,None,763.7940763590004,None,,,,,,,,,,,,,,,,,,,,,,,,,,,,,,,,,,,,,,,,,,,,001,27,2020_Jan_30_0953,spring_faces,3.1.5,59.83559965546601,
condition files/Stage1_2.xlsx,,B3,T4,m,"['c', 'm']","['Clue', 'Monopoly']","[-0.15, 0.5]","[0.15, 0.5]",1,1,,,,,,,,,0,11,11,11,0,5,5,6,,,,,,,,,,,,,,,,,,,,,,,,,,,,,,,,,,,,,,,,,,,,,,,,,,,,,,,765.7585782289998,None,765.7585782289998,None,765.7585782289998,None,c,0,1.2609920739996596,767.2922262869997,None,767.2922262869997,None,767.2922262869997,None,768.6091100100002,None,768.6091100100002,None,768.6091100100002,None,768.6091100100002,None,,,,,,,,,,,,,,,,,,,,,,,,,,,,,,,,,,,,,,,,,,,,001,27,2020_Jan_30_0953,spring_faces,3.1.5,59.83559965546601,
condition files/Stage1_2.xlsx,,T1,B2,m,"['c', 'm']","['Clue', 'Monopoly']","[-0.15, 0.5]","[0.15, 0.5]",1,1,,,,,,,,,0,11,11,11,0,6,6,2,,,,,,,,,,,,,,,,,,,,,,,,,,,,,,,,,,,,,,,,,,,,,,,,,,,,,,,770.575541182,None,770.575541182,None,770.575541182,None,m,1,0.9883389240003453,772.10893476,None,772.10893476,None,772.10893476,None,773.1584780700005,None,773.1584780700005,None,773.1584780700005,None,773.1584780700005,None,,,,,,,,,,,,,,,,,,,,,,,,,,,,,,,,,,,,,,,,,,,,001,27,2020_Jan_30_0953,spring_faces,3.1.5,59.83559965546601,
condition files/Stage1_2.xlsx,,T4,B4,m,"['c', 'm']","['Clue', 'Monopoly']","[-0.15, 0.5]","[0.15, 0.5]",1,1,,,,,,,,,0,11,11,11,0,7,7,7,,,,,,,,,,,,,,,,,,,,,,,,,,,,,,,,,,,,,,,,,,,,,,,,,,,,,,,775.1253131570002,None,775.1253131570002,None,775.1253131570002,None,m,1,1.3496525959999417,776.659557252,None,776.659557252,None,776.659557252,None,778.0755149449997,None,778.0755149449997,None,778.0755149449997,None,778.0755149449997,None,,,,,,,,,,,,,,,,,,,,,,,,,,,,,,,,,,,,,,,,,,,,001,27,2020_Jan_30_0953,spring_faces,3.1.5,59.83559965546601,
,,,,,,,,,,,,,,,,,,,,,,,,,,,,,,,,,,,,,,,,,,,,,,,,,,,,,,,,,,,,,,,,,,,,,,,,,,,,,,,,,,,,,,,,,,,,,,,,,,,,,,,,,,,,,,,,780.058896429,None,space,3.814483066000321,785.0587674480003,None,,,,,,,,,,,,,,,,,,,,,,,,,,,,,,001,27,2020_Jan_30_0953,spring_faces,3.1.5,59.83559965546601,
condition files/Stage2_1.xlsx,,B6,T6,r,"['s', 'r']","['Stratego', 'Risk']","[-0.15, 0.5]","[0.15, 0.5]",1,1,,,,,,,,,,,,,,,,,0,0,0,0,0,0,0,1,,,,,,,,,,,,,,,,,,,,,,,,,,,,,,,,,,,,,,,,,,,,,,,788.9755225710005,None,788.9755225710005,None,788.9755225710005,None,s,0,0.7172309629995652,790.4919800489997,None,790.4919800489997,None,790.4919800489997,None,791.2753816300001,None,791.2753816300001,None,791.2753816300001,None,791.2753816300001,None,,,,,,,,,,,,,,,785.0587674480003,None,,,,,,,,,,,,,,,,,,,,,,,,,,,,001,27,2020_Jan_30_0953,spring_faces,3.1.5,59.83559965546601,
condition files/Stage2_1.xlsx,,T1,B1,s,"['s', 'r']","['Stratego', 'Risk']","[-0.15, 0.5]","[0.15, 0.5]",1,1,,,,,,,,,,,,,,,,,0,0,0,0,0,1,1,2,,,,,,,,,,,,,,,,,,,,,,,,,,,,,,,,,,,,,,,,,,,,,,,793.2420837380005,None,793.2420837380005,None,793.2420837380005,None,r,0,0.688943661999474,794.7922870470002,None,794.7922870470002,None,794.7922870470002,None,795.5442582940004,None,795.5442582940004,None,795.5442582940004,None,795.5442582940004,None,,,,,,,,,,,,,,,,,,,,,,,,,,,,,,,,,,,,,,,,,,,,001,27,2020_Jan_30_0953,spring_faces,3.1.5,59.83559965546601,
condition files/Stage2_1.xlsx,,B2,T2,r,"['s', 'r']","['Stratego', 'Risk']","[-0.15, 0.5]","[0.15, 0.5]",1,1,,,,,,,,,,,,,,,,,0,0,0,0,0,2,2,3,,,,,,,,,,,,,,,,,,,,,,,,,,,,,,,,,,,,,,,,,,,,,,,797.508306709,None,797.508306709,None,797.508306709,None,s,0,0.9827123429995481,799.0425629370002,None,799.0425629370002,None,799.0425629370002,None,800.0772623869998,None,800.0772623869998,None,800.0772623869998,None,800.0772623869998,None,,,,,,,,,,,,,,,,,,,,,,,,,,,,,,,,,,,,,,,,,,,,001,27,2020_Jan_30_0953,spring_faces,3.1.5,59.83559965546601,
condition files/Stage2_1.xlsx,,T5,B5,s,"['s', 'r']","['Stratego', 'Risk']","[-0.15, 0.5]","[0.15, 0.5]",1,1,,,,,,,,,,,,,,,,,0,0,0,0,0,3,3,0,,,,,,,,,,,,,,,,,,,,,,,,,,,,,,,,,,,,,,,,,,,,,,,802.0419280289998,None,802.0419280289998,None,802.0419280289998,None,s,1,1.2473082649994467,803.6418973480004,None,803.6418973480004,None,803.6418973480004,None,804.9591566660001,None,804.9591566660001,None,804.9591566660001,None,804.9591566660001,None,,,,,,,,,,,,,,,,,,,,,,,,,,,,,,,,,,,,,,,,,,,,001,27,2020_Jan_30_0953,spring_faces,3.1.5,59.83559965546601,
condition files/Stage2_1.xlsx,,T3,B3,s,"['s', 'r']","['Stratego', 'Risk']","[-0.15, 0.5]","[0.15, 0.5]",1,1,,,,,,,,,,,,,,,,,0,0,0,0,0,4,4,4,,,,,,,,,,,,,,,,,,,,,,,,,,,,,,,,,,,,,,,,,,,,,,,806.9084266039999,None,806.9084266039999,None,806.9084266039999,None,r,0,0.6879037839999,808.4413615140002,None,808.4413615140002,None,808.4413615140002,None,809.1915306600004,None,809.1915306600004,None,809.1915306600004,None,809.1915306600004,None,,,,,,,,,,,,,,,,,,,,,,,,,,,,,,,,,,,,,,,,,,,,001,27,2020_Jan_30_0953,spring_faces,3.1.5,59.83559965546601,
condition files/Stage2_1.xlsx,,B4,T4,r,"['s', 'r']","['Stratego', 'Risk']","[-0.15, 0.5]","[0.15, 0.5]",1,1,,,,,,,,,,,,,,,,,0,0,0,0,0,5,5,5,,,,,,,,,,,,,,,,,,,,,,,,,,,,,,,,,,,,,,,,,,,,,,,811.1586122569997,None,811.1586122569997,None,811.1586122569997,None,s,0,0.8375767509996876,812.6916951700005,None,812.6916951700005,None,812.6916951700005,None,813.5931073729998,None,813.5931073729998,None,813.5931073729998,None,813.5931073729998,None,,,,,,,,,,,,,,,,,,,,,,,,,,,,,,,,,,,,,,,,,,,,001,27,2020_Jan_30_0953,spring_faces,3.1.5,59.83559965546601,
condition files/Stage2_2.xlsx,,T4,B4,r,"['s', 'r']","['Stratego', 'Risk']","[-0.15, 0.5]","[0.15, 0.5]",1,1,,,,,,,,,,,,,,,,,0,1,1,1,0,0,0,5,,,,,,,,,,,,,,,,,,,,,,,,,,,,,,,,,,,,,,,,,,,,,,,815.6258101610001,None,815.6258101610001,None,815.6258101610001,None,s,0,0.6583478249995096,817.1109782470003,None,817.1109782470003,None,817.1109782470003,None,817.8255329610001,None,817.8255329610001,None,817.8255329610001,None,817.8255329610001,None,,,,,,,,,,,,,,,,,,,,,,,,,,,,,,,,,,,,,,,,,,,,001,27,2020_Jan_30_0953,spring_faces,3.1.5,59.83559965546601,
condition files/Stage2_2.xlsx,,T6,B6,r,"['s', 'r']","['Stratego', 'Risk']","[-0.15, 0.5]","[0.15, 0.5]",1,1,,,,,,,,,,,,,,,,,0,1,1,1,0,1,1,1,,,,,,,,,,,,,,,,,,,,,,,,,,,,,,,,,,,,,,,,,,,,,,,819.7921623889997,None,819.7921623889997,None,819.7921623889997,None,s,0,0.7000733229997422,821.3252070240005,None,821.3252070240005,None,821.3252070240005,None,822.0757091300002,None,822.0757091300002,None,822.0757091300002,None,822.0757091300002,None,,,,,,,,,,,,,,,,,,,,,,,,,,,,,,,,,,,,,,,,,,,,001,27,2020_Jan_30_0953,spring_faces,3.1.5,59.83559965546601,
condition files/Stage2_2.xlsx,,B3,T3,s,"['s', 'r']","['Stratego', 'Risk']","[-0.15, 0.5]","[0.15, 0.5]",1,1,,,,,,,,,,,,,,,,,0,1,1,1,0,2,2,4,,,,,,,,,,,,,,,,,,,,,,,,,,,,,,,,,,,,,,,,,,,,,,,824.0422439900003,None,824.0422439900003,None,824.0422439900003,None,s,1,0.689300691000426,825.5759590910002,None,825.5759590910002,None,825.5759590910002,None,826.3270366530005,None,826.3270366530005,None,826.3270366530005,None,826.3270366530005,None,,,,,,,,,,,,,,,,,,,,,,,,,,,,,,,,,,,,,,,,,,,,001,27,2020_Jan_30_0953,spring_faces,3.1.5,59.83559965546601,
condition files/Stage2_2.xlsx,,T2,B2,r,"['s', 'r']","['Stratego', 'Risk']","[-0.15, 0.5]","[0.15, 0.5]",1,1,,,,,,,,,,,,,,,,,0,1,1,1,0,3,3,3,,,,,,,,,,,,,,,,,,,,,,,,,,,,,,,,,,,,,,,,,,,,,,,828.2919599570005,None,828.2919599570005,None,828.2919599570005,None,r,1,0.31137011100054224,829.8258652320001,None,829.8258652320001,None,829.8258652320001,None,830.2085409210003,None,830.2085409210003,None,830.2085409210003,None,830.2085409210003,None,,,,,,,,,,,,,,,,,,,,,,,,,,,,,,,,,,,,,,,,,,,,001,27,2020_Jan_30_0953,spring_faces,3.1.5,59.83559965546601,
condition files/Stage2_2.xlsx,,B1,T1,s,"['s', 'r']","['Stratego', 'Risk']","[-0.15, 0.5]","[0.15, 0.5]",1,1,,,,,,,,,,,,,,,,,0,1,1,1,0,4,4,2,,,,,,,,,,,,,,,,,,,,,,,,,,,,,,,,,,,,,,,,,,,,,,,832.1579765280003,None,832.1579765280003,None,832.1579765280003,None,s,1,0.9727006869998149,833.6926150150002,None,833.6926150150002,None,833.6926150150002,None,834.7423693410001,None,834.7423693410001,None,834.7423693410001,None,834.7423693410001,None,,,,,,,,,,,,,,,,,,,,,,,,,,,,,,,,,,,,,,,,,,,,001,27,2020_Jan_30_0953,spring_faces,3.1.5,59.83559965546601,
condition files/Stage2_2.xlsx,,B5,T5,s,"['s', 'r']","['Stratego', 'Risk']","[-0.15, 0.5]","[0.15, 0.5]",1,1,,,,,,,,,,,,,,,,,0,1,1,1,0,5,5,0,,,,,,,,,,,,,,,,,,,,,,,,,,,,,,,,,,,,,,,,,,,,,,,836.6917591700003,None,836.6917591700003,None,836.6917591700003,None,s,1,0.3587818280002466,838.2264568199998,None,838.2264568199998,None,838.2264568199998,None,838.6424517109999,None,838.6424517109999,None,838.6424517109999,None,838.6424517109999,None,,,,,,,,,,,,,,,,,,,,,,,,,,,,,,,,,,,,,,,,,,,,001,27,2020_Jan_30_0953,spring_faces,3.1.5,59.83559965546601,
condition files/Stage2_1.xlsx,,B2,T2,r,"['s', 'r']","['Stratego', 'Risk']","[-0.15, 0.5]","[0.15, 0.5]",1,1,,,,,,,,,,,,,,,,,0,2,2,2,0,0,0,3,,,,,,,,,,,,,,,,,,,,,,,,,,,,,,,,,,,,,,,,,,,,,,,840.6255432369999,None,840.6255432369999,None,840.6255432369999,None,r,1,0.45898213399959786,842.1583392120001,None,842.1583392120001,None,842.1583392120001,None,842.677315805,None,842.677315805,None,842.677315805,None,842.677315805,None,,,,,,,,,,,,,,,,,,,,,,,,,,,,,,,,,,,,,,,,,,,,001,27,2020_Jan_30_0953,spring_faces,3.1.5,59.83559965546601,
condition files/Stage2_1.xlsx,,T1,B1,s,"['s', 'r']","['Stratego', 'Risk']","[-0.15, 0.5]","[0.15, 0.5]",1,1,,,,,,,,,,,,,,,,,0,2,2,2,0,1,1,2,,,,,,,,,,,,,,,,,,,,,,,,,,,,,,,,,,,,,,,,,,,,,,,844.6421672030001,None,844.6421672030001,None,844.6421672030001,None,s,1,0.5220376320003197,846.1752251799999,None,846.1752251799999,None,846.1752251799999,None,846.7604386769999,None,846.7604386769999,None,846.7604386769999,None,846.7604386769999,None,,,,,,,,,,,,,,,,,,,,,,,,,,,,,,,,,,,,,,,,,,,,001,27,2020_Jan_30_0953,spring_faces,3.1.5,59.83559965546601,
condition files/Stage2_1.xlsx,,B4,T4,r,"['s', 'r']","['Stratego', 'Risk']","[-0.15, 0.5]","[0.15, 0.5]",1,1,,,,,,,,,,,,,,,,,0,2,2,2,0,2,2,5,,,,,,,,,,,,,,,,,,,,,,,,,,,,,,,,,,,,,,,,,,,,,,,848.725326619,None,848.725326619,None,848.725326619,None,s,0,1.446125309999843,850.2590701660001,None,850.2590701660001,None,850.2590701660001,None,851.7748909860002,None,851.7748909860002,None,851.7748909860002,None,851.7748909860002,None,,,,,,,,,,,,,,,,,,,,,,,,,,,,,,,,,,,,,,,,,,,,001,27,2020_Jan_30_0953,spring_faces,3.1.5,59.83559965546601,
condition files/Stage2_1.xlsx,,T5,B5,s,"['s', 'r']","['Stratego', 'Risk']","[-0.15, 0.5]","[0.15, 0.5]",1,1,,,,,,,,,,,,,,,,,0,2,2,2,0,3,3,0,,,,,,,,,,,,,,,,,,,,,,,,,,,,,,,,,,,,,,,,,,,,,,,853.7251439000001,None,853.7251439000001,None,853.7251439000001,None,r,0,0.590856905999317,855.2584405160005,None,855.2584405160005,None,855.2584405160005,None,855.9251601870001,None,855.9251601870001,None,855.9251601870001,None,855.9251601870001,None,,,,,,,,,,,,,,,,,,,,,,,,,,,,,,,,,,,,,,,,,,,,001,27,2020_Jan_30_0953,spring_faces,3.1.5,59.83559965546601,
condition files/Stage2_1.xlsx,,T3,B3,s,"['s', 'r']","['Stratego', 'Risk']","[-0.15, 0.5]","[0.15, 0.5]",1,1,,,,,,,,,,,,,,,,,0,2,2,2,0,4,4,4,,,,,,,,,,,,,,,,,,,,,,,,,,,,,,,,,,,,,,,,,,,,,,,857.8753532399996,None,857.8753532399996,None,857.8753532399996,None,s,1,0.9206411640006991,859.408619201,None,859.408619201,None,859.408619201,None,860.3926191600003,None,860.3926191600003,None,860.3926191600003,None,860.3926191600003,None,,,,,,,,,,,,,,,,,,,,,,,,,,,,,,,,,,,,,,,,,,,,001,27,2020_Jan_30_0953,spring_faces,3.1.5,59.83559965546601,
condition files/Stage2_1.xlsx,,B6,T6,r,"['s', 'r']","['Stratego', 'Risk']","[-0.15, 0.5]","[0.15, 0.5]",1,1,,,,,,,,,,,,,,,,,0,2,2,2,0,5,5,1,,,,,,,,,,,,,,,,,,,,,,,,,,,,,,,,,,,,,,,,,,,,,,,862.3586595289999,None,862.3586595289999,None,862.3586595289999,None,s,0,0.8038189389999388,863.893465874,None,863.893465874,None,863.893465874,None,864.7612714710003,None,864.7612714710003,None,864.7612714710003,None,864.7612714710003,None,,,,,,,,,,,,,,,,,,,,,,,,,,,,,,,,,,,,,,,,,,,,001,27,2020_Jan_30_0953,spring_faces,3.1.5,59.83559965546601,
condition files/Stage2_2.xlsx,,B3,T3,s,"['s', 'r']","['Stratego', 'Risk']","[-0.15, 0.5]","[0.15, 0.5]",1,1,,,,,,,,,,,,,,,,,0,3,3,3,0,0,0,4,,,,,,,,,,,,,,,,,,,,,,,,,,,,,,,,,,,,,,,,,,,,,,,866.74167459,None,866.74167459,None,866.74167459,None,s,1,0.949776357000701,868.2754926409998,None,868.2754926409998,None,868.2754926409998,None,869.2921981669997,None,869.2921981669997,None,869.2921981669997,None,869.2921981669997,None,,,,,,,,,,,,,,,,,,,,,,,,,,,,,,,,,,,,,,,,,,,,001,27,2020_Jan_30_0953,spring_faces,3.1.5,59.83559965546601,
condition files/Stage2_2.xlsx,,T4,B4,r,"['s', 'r']","['Stratego', 'Risk']","[-0.15, 0.5]","[0.15, 0.5]",1,1,,,,,,,,,,,,,,,,,0,3,3,3,0,1,1,5,,,,,,,,,,,,,,,,,,,,,,,,,,,,,,,,,,,,,,,,,,,,,,,871.2419883040002,None,871.2419883040002,None,871.2419883040002,None,r,1,0.6079902780002158,872.7772200050003,None,872.7772200050003,None,872.7772200050003,None,873.4442160580002,None,873.4442160580002,None,873.4442160580002,None,873.4442160580002,None,,,,,,,,,,,,,,,,,,,,,,,,,,,,,,,,,,,,,,,,,,,,001,27,2020_Jan_30_0953,spring_faces,3.1.5,59.83559965546601,
condition files/Stage2_2.xlsx,,T2,B2,r,"['s', 'r']","['Stratego', 'Risk']","[-0.15, 0.5]","[0.15, 0.5]",1,1,,,,,,,,,,,,,,,,,0,3,3,3,0,2,2,3,,,,,,,,,,,,,,,,,,,,,,,,,,,,,,,,,,,,,,,,,,,,,,,875.4087493540001,None,875.4087493540001,None,875.4087493540001,None,s,0,0.8593036550000761,876.9419965019997,None,876.9419965019997,None,876.9419965019997,None,877.8590408689997,None,877.8590408689997,None,877.8590408689997,None,877.8590408689997,None,,,,,,,,,,,,,,,,,,,,,,,,,,,,,,,,,,,,,,,,,,,,001,27,2020_Jan_30_0953,spring_faces,3.1.5,59.83559965546601,
condition files/Stage2_2.xlsx,,T6,B6,r,"['s', 'r']","['Stratego', 'Risk']","[-0.15, 0.5]","[0.15, 0.5]",1,1,,,,,,,,,,,,,,,,,0,3,3,3,0,3,3,1,,,,,,,,,,,,,,,,,,,,,,,,,,,,,,,,,,,,,,,,,,,,,,,879.824972247,None,879.824972247,None,879.824972247,None,r,1,0.7304103309998027,881.3588367210004,None,881.3588367210004,None,881.3588367210004,None,882.1416221999998,None,882.1416221999998,None,882.1416221999998,None,882.1416221999998,None,,,,,,,,,,,,,,,,,,,,,,,,,,,,,,,,,,,,,,,,,,,,001,27,2020_Jan_30_0953,spring_faces,3.1.5,59.83559965546601,
condition files/Stage2_2.xlsx,,B1,T1,s,"['s', 'r']","['Stratego', 'Risk']","[-0.15, 0.5]","[0.15, 0.5]",1,1,,,,,,,,,,,,,,,,,0,3,3,3,0,4,4,2,,,,,,,,,,,,,,,,,,,,,,,,,,,,,,,,,,,,,,,,,,,,,,,884.1086213600001,None,884.1086213600001,None,884.1086213600001,None,s,1,0.7819407019997016,885.643346457,None,885.643346457,None,885.643346457,None,886.4924581679998,None,886.4924581679998,None,886.4924581679998,None,886.4924581679998,None,,,,,,,,,,,,,,,,,,,,,,,,,,,,,,,,,,,,,,,,,,,,001,27,2020_Jan_30_0953,spring_faces,3.1.5,59.83559965546601,
condition files/Stage2_2.xlsx,,B5,T5,s,"['s', 'r']","['Stratego', 'Risk']","[-0.15, 0.5]","[0.15, 0.5]",1,1,,,,,,,,,,,,,,,,,0,3,3,3,0,5,5,0,,,,,,,,,,,,,,,,,,,,,,,,,,,,,,,,,,,,,,,,,,,,,,,888.4419121700003,None,888.4419121700003,None,888.4419121700003,None,s,1,1.056684801999836,889.9766514570001,None,889.9766514570001,None,889.9766514570001,None,891.0925547059996,None,891.0925547059996,None,891.0925547059996,None,891.0925547059996,None,,,,,,,,,,,,,,,,,,,,,,,,,,,,,,,,,,,,,,,,,,,,001,27,2020_Jan_30_0953,spring_faces,3.1.5,59.83559965546601,
condition files/Stage2_1.xlsx,,B6,T6,r,"['s', 'r']","['Stratego', 'Risk']","[-0.15, 0.5]","[0.15, 0.5]",1,1,,,,,,,,,,,,,,,,,0,4,4,4,0,0,0,1,,,,,,,,,,,,,,,,,,,,,,,,,,,,,,,,,,,,,,,,,,,,,,,893.0753369960003,None,893.0753369960003,None,893.0753369960003,None,r,1,1.2555959740002436,894.6096380609997,None,894.6096380609997,None,894.6096380609997,None,895.9417894210001,None,895.9417894210001,None,895.9417894210001,None,895.9417894210001,None,,,,,,,,,,,,,,,,,,,,,,,,,,,,,,,,,,,,,,,,,,,,001,27,2020_Jan_30_0953,spring_faces,3.1.5,59.83559965546601,
condition files/Stage2_1.xlsx,,T3,B3,s,"['s', 'r']","['Stratego', 'Risk']","[-0.15, 0.5]","[0.15, 0.5]",1,1,,,,,,,,,,,,,,,,,0,4,4,4,0,1,1,4,,,,,,,,,,,,,,,,,,,,,,,,,,,,,,,,,,,,,,,,,,,,,,,897.8921795040005,None,897.8921795040005,None,897.8921795040005,None,r,0,0.7921064560005107,899.4251942890005,None,899.4251942890005,None,899.4251942890005,None,900.2774588279999,None,900.2774588279999,None,900.2774588279999,None,900.2774588279999,None,,,,,,,,,,,,,,,,,,,,,,,,,,,,,,,,,,,,,,,,,,,,001,27,2020_Jan_30_0953,spring_faces,3.1.5,59.83559965546601,
condition files/Stage2_1.xlsx,,B2,T2,r,"['s', 'r']","['Stratego', 'Risk']","[-0.15, 0.5]","[0.15, 0.5]",1,1,,,,,,,,,,,,,,,,,0,4,4,4,0,2,2,3,,,,,,,,,,,,,,,,,,,,,,,,,,,,,,,,,,,,,,,,,,,,,,,902.2415498090004,None,902.2415498090004,None,902.2415498090004,None,s,0,0.3611113729994031,903.7761061029996,None,903.7761061029996,None,903.7761061029996,None,904.208849351,None,904.208849351,None,904.208849351,None,904.208849351,None,,,,,,,,,,,,,,,,,,,,,,,,,,,,,,,,,,,,,,,,,,,,001,27,2020_Jan_30_0953,spring_faces,3.1.5,59.83559965546601,
condition files/Stage2_1.xlsx,,T1,B1,s,"['s', 'r']","['Stratego', 'Risk']","[-0.15, 0.5]","[0.15, 0.5]",1,1,,,,,,,,,,,,,,,,,0,4,4,4,0,3,3,2,,,,,,,,,,,,,,,,,,,,,,,,,,,,,,,,,,,,,,,,,,,,,,,906.1587205380001,None,906.1587205380001,None,906.1587205380001,None,s,1,0.33343457899991336,907.6918455340001,None,907.6918455340001,None,907.6918455340001,None,908.0915954849997,None,908.0915954849997,None,908.0915954849997,None,908.0915954849997,None,,,,,,,,,,,,,,,,,,,,,,,,,,,,,,,,,,,,,,,,,,,,001,27,2020_Jan_30_0953,spring_faces,3.1.5,59.83559965546601,
