condsFile,subStage,cue1,cue2,correct,responseKeys,responseNames,cue1Position,cue2Position,cue1Opacity,cue2Opacity,stageLoop0.thisRepN,stageLoop0.thisTrialN,stageLoop0.thisN,stageLoop0.thisIndex,blockLoop0.thisRepN,blockLoop0.thisTrialN,blockLoop0.thisN,blockLoop0.thisIndex,stage1Loop.thisRepN,stage1Loop.thisTrialN,stage1Loop.thisN,stage1Loop.thisIndex,blockLoop1.thisRepN,blockLoop1.thisTrialN,blockLoop1.thisN,blockLoop1.thisIndex,stage2Loop.thisRepN,stage2Loop.thisTrialN,stage2Loop.thisN,stage2Loop.thisIndex,blockLoop2.thisRepN,blockLoop2.thisTrialN,blockLoop2.thisN,blockLoop2.thisIndex,testLoop.thisRepN,testLoop.thisTrialN,testLoop.thisN,testLoop.thisIndex,blockLoopTest.thisRepN,blockLoopTest.thisTrialN,blockLoopTest.thisN,blockLoopTest.thisIndex,cuePics,id_instr_text.started,id_instr_text.stopped,space_to_continue_2.started,space_to_continue_2.stopped,end_instructions_resp_3.keys,end_instructions_resp_3.rt,end_instructions_resp_3.started,end_instructions_resp_3.stopped,id_input_instr.started,id_input_instr.stopped,id_input_rect.started,id_input_rect.stopped,id_input_resp.keys,id_input_resp.rt,id_input_resp.started,id_input_resp.stopped,sonaID,id_input_text.started,id_input_text.stopped,final_text.started,final_text.stopped,instructions.started,instructions.stopped,end_instructions_resp.keys,end_instructions_resp.rt,end_instructions_resp.started,end_instructions_resp.stopped,space_to_continue.started,space_to_continue.stopped,instructions_stage0.started,instructions_stage0.stopped,end_instructions_resp_stage0.keys,end_instructions_resp_stage0.rt,end_instructions_resp_stage0.started,end_instructions_resp_stage0.stopped,space_to_continue_stage0.started,space_to_continue_stage0.stopped,text.started,text.stopped,resp_text1.started,resp_text1.stopped,resp_text2.started,resp_text2.stopped,trial_resp.keys,trial_resp.corr,trial_resp.rt,trial_resp.started,trial_resp.stopped,cue1Image.started,cue1Image.stopped,cue2Image.started,cue2Image.stopped,cue1Image_fb.started,cue1Image_fb.stopped,cue2Image_fb.started,cue2Image_fb.stopped,fb_text_answer.started,fb_text_answer.stopped,feedback_image.started,feedback_image.stopped,instructions_stage1.started,instructions_stage1.stopped,end_instructions_resp_stage1.keys,end_instructions_resp_stage1.rt,end_instructions_resp_stage1.started,end_instructions_resp_stage1.stopped,space_to_continue_stage1.started,space_to_continue_stage1.stopped,instructions_2.started,instructions_2.stopped,end_instructions_resp_2.keys,end_instructions_resp_2.rt,end_instructions_resp_2.started,end_instructions_resp_2.stopped,press_space_to_continue_stage2.started,press_space_to_continue_stage2.stopped,instructions_testStage1.started,instructions_testStage1.stopped,end_instructions_resp_test1.keys,end_instructions_resp_test1.rt,end_instructions_resp_test1.started,end_instructions_resp_test1.stopped,press_space_to_continue_test1.started,press_space_to_continue_test1.stopped,cue1Image_testChoice.started,cue1Image_testChoice.stopped,cue2Image_testChoice.started,cue2Image_testChoice.stopped,test_resp.keys,test_resp.corr,test_resp.rt,test_resp.started,test_resp.stopped,cue1Image_testConf.started,cue1Image_testConf.stopped,cue2Image_testConf.started,cue2Image_testConf.stopped,conf_reminder.started,conf_reminder.stopped,conf_rating.response,conf_rating.rt,conf_rating.started,conf_rating.stopped,session,participant,date,expName,psychopyVersion,frameRate,
,,,,,,,,,,,,,,,,,,,,,,,,,,,,,,,,,,,,,,,,,,,"{'none': 'pictures/20M_AN_C.png', 'alpha': 'pictures/SHINEd_pepper.png', 'beta': 'pictures/SHINEd_apple.png', 'theta': 'pictures/SHINEd_melon.png', 'phi': 'pictures/SHINEd_pear.png', 'T1': 'pictures/38M_AN_C.png', 'T2': 'pictures/34M_AN_C.png', 'T3': 'pictures/20M_AN_C.png', 'T4': 'pictures/22M_AN_C.png', 'T5': 'pictures/33M_AN_C.png', 'T6': 'pictures/36M_AN_C.png', 'B1': 'pictures/37M_NE_C.png', 'B2': 'pictures/31M_NE_C.png', 'B3': 'pictures/25M_NE_C.png', 'B4': 'pictures/26M_NE_C.png', 'B5': 'pictures/23M_NE_C.png', 'B6': 'pictures/32M_NE_C.png'}",22.812765607000074,None,27.796075277,None,space,12.068385890000172,27.796075277,None,,,,,,,,,,,,,,,,,,,,,,,,,,,,,,,,,,,,,,,,,,,,,,,,,,,,,,,,,,,,,,,,,,,,,,,,,,,,,,,,,,,,,,,,,,,,,,,,001,28,2020_Jan_30_0956,spring_faces,3.2.3,59.918398930022974,
,,,,,,,,,,,,,,,,,,,,,,,,,,,,,,,,,,,,,,,,,,,,,,,,,,,,40.26273935900008,None,40.26273935900008,None,"['d', 'backspace', '0', '7', '0', '4', 's', 'a', 'backspace', 'backspace', 's', 'a', 'l', 'e', 'g']","[25.20171101599999, 26.417710311000064, 27.313858317999802, 29.47377588800009, 29.85772531700013, 32.6097961370001, 34.81771105600001, 35.153739447000135, 36.99380204699992, 37.18571059900023, 37.42580883300025, 37.777807006999865, 39.76180778900016, 39.889777719999984, 40.12984822899989]",40.26273935900008,None,,,,,,,,,,,,,,,,,,,,,,,,,,,,,,,,,,,,,,,,,,,,,,,,,,,,,,,,,,,,,,,,,,,,,,,,,,,,,,,,,,,,,,,,001,28,2020_Jan_30_0956,spring_faces,3.2.3,59.918398930022974,
,,,,,,,,,,,,,,,,,,,,,,,,,,,,,,,,,,,,,,,,,,,,,,,,,,,,,,,,,,,,0704saleg,40.26273935900008,None,40.26273935900008,None,85.44598404500039,None,space,1.8030282789995908,90.4294750009999,None,,,,,,,,,,,,,,,,,,,,,,,,,,,,,,,,,,,,,,,,,,,,,,,,,,,,,,,,,,,,,,,,,,,,,,,,,,,,,001,28,2020_Jan_30_0956,spring_faces,3.2.3,59.918398930022974,
,,,,,,,,,,,,,,,,,,,,,,,,,,,,,,,,,,,,,,,,,,,,,,,,,,,,,,,,,,,,,,,,,,,,,,,90.4294750009999,None,92.26279594699963,None,space,7.242543077000846,97.246028389,None,,,,,,,,,,,,,,,,,,,,,,,,,,,,,,,,,,,,,,,,,,,,,,,,,,,,,,,,,,,,,,,,,,,,,001,28,2020_Jan_30_0956,spring_faces,3.2.3,59.918398930022974,
condition files/Stage0a.xlsx,0a,alpha,none,h,"['h', 'g']","['Chess', 'Go']","[0, 0.5]","[0, 0]",1,0,0,0,0,0,0,0,0,0,,,,,,,,,,,,,,,,,,,,,,,,,,,,,,,,,,,,,,,,,,,,,,,,,,,,,,,,,,,,,97.246028389,None,104.54610251399981,None,104.54610251399981,None,104.54610251399981,None,h,1,3.6871141109995733,106.12942215500016,None,106.12942215500016,None,106.12942215500016,None,109.89610443500032,None,109.89610443500032,None,109.89610443500032,None,109.89610443500032,None,,,,,,,,,,,,,,,,,,,,,,,,,,,,,,,,,,,,,,,,,,,,001,28,2020_Jan_30_0956,spring_faces,3.2.3,59.918398930022974,
condition files/Stage0a.xlsx,0a,beta,none,g,"['h', 'g']","['Chess', 'Go']","[0, 0.5]","[0, 0]",1,0,0,0,0,0,0,1,1,1,,,,,,,,,,,,,,,,,,,,,,,,,,,,,,,,,,,,,,,,,,,,,,,,,,,,,,,,,,,,,,,111.862782402,None,111.862782402,None,111.862782402,None,g,1,3.4764313530004074,113.39612339899986,None,113.39612339899986,None,113.39612339899986,None,116.92936842799963,None,116.92936842799963,None,116.92936842799963,None,116.92936842799963,None,,,,,,,,,,,,,,,,,,,,,,,,,,,,,,,,,,,,,,,,,,,,001,28,2020_Jan_30_0956,spring_faces,3.2.3,59.918398930022974,
condition files/Stage0a.xlsx,0a,alpha,none,h,"['h', 'g']","['Chess', 'Go']","[0, 0.5]","[0, 0]",1,0,0,1,1,1,0,0,0,0,,,,,,,,,,,,,,,,,,,,,,,,,,,,,,,,,,,,,,,,,,,,,,,,,,,,,,,,,,,,,,,118.9294181500004,None,118.9294181500004,None,118.9294181500004,None,g,0,1.6737989029998062,120.46275574099991,None,120.46275574099991,None,120.46275574099991,None,122.19600851699988,None,122.19600851699988,None,122.19600851699988,None,122.19600851699988,None,,,,,,,,,,,,,,,,,,,,,,,,,,,,,,,,,,,,,,,,,,,,001,28,2020_Jan_30_0956,spring_faces,3.2.3,59.918398930022974,
condition files/Stage0a.xlsx,0a,beta,none,g,"['h', 'g']","['Chess', 'Go']","[0, 0.5]","[0, 0]",1,0,0,1,1,1,0,1,1,1,,,,,,,,,,,,,,,,,,,,,,,,,,,,,,,,,,,,,,,,,,,,,,,,,,,,,,,,,,,,,,,124.17944385599958,None,124.17944385599958,None,124.17944385599958,None,g,1,1.319694552999863,125.71281877200045,None,125.71281877200045,None,125.71281877200045,None,127.09610528599978,None,127.09610528599978,None,127.09610528599978,None,127.09610528599978,None,,,,,,,,,,,,,,,,,,,,,,,,,,,,,,,,,,,,,,,,,,,,001,28,2020_Jan_30_0956,spring_faces,3.2.3,59.918398930022974,
condition files/Stage0a.xlsx,0a,alpha,none,h,"['h', 'g']","['Chess', 'Go']","[0, 0.5]","[0, 0]",1,0,0,2,2,2,0,0,0,0,,,,,,,,,,,,,,,,,,,,,,,,,,,,,,,,,,,,,,,,,,,,,,,,,,,,,,,,,,,,,,,129.09609721300012,None,129.09609721300012,None,129.09609721300012,None,h,1,1.3790305150005224,130.62944416900018,None,130.62944416900018,None,130.62944416900018,None,132.07944439599987,None,132.07944439599987,None,132.07944439599987,None,132.07944439599987,None,,,,,,,,,,,,,,,,,,,,,,,,,,,,,,,,,,,,,,,,,,,,001,28,2020_Jan_30_0956,spring_faces,3.2.3,59.918398930022974,
condition files/Stage0a.xlsx,0a,beta,none,g,"['h', 'g']","['Chess', 'Go']","[0, 0.5]","[0, 0]",1,0,0,2,2,2,0,1,1,1,,,,,,,,,,,,,,,,,,,,,,,,,,,,,,,,,,,,,,,,,,,,,,,,,,,,,,,,,,,,,,,134.04610353100043,None,134.04610353100043,None,134.04610353100043,None,g,1,1.197226354999657,135.57938924600012,None,135.57938924600012,None,135.57938924600012,None,136.82940834600004,None,136.82940834600004,None,136.82940834600004,None,136.82940834600004,None,,,,,,,,,,,,,,,,,,,,,,,,,,,,,,,,,,,,,,,,,,,,001,28,2020_Jan_30_0956,spring_faces,3.2.3,59.918398930022974,
condition files/Stage0a.xlsx,0a,alpha,none,h,"['h', 'g']","['Chess', 'Go']","[0, 0.5]","[0, 0]",1,0,0,3,3,3,0,0,0,0,,,,,,,,,,,,,,,,,,,,,,,,,,,,,,,,,,,,,,,,,,,,,,,,,,,,,,,,,,,,,,,138.8294358019998,None,138.8294358019998,None,138.8294358019998,None,h,1,0.9418537530000322,140.36272575700013,None,140.36272575700013,None,140.36272575700013,None,141.37945637999974,None,141.37945637999974,None,141.37945637999974,None,141.37945637999974,None,,,,,,,,,,,,,,,,,,,,,,,,,,,,,,,,,,,,,,,,,,,,001,28,2020_Jan_30_0956,spring_faces,3.2.3,59.918398930022974,
condition files/Stage0a.xlsx,0a,beta,none,g,"['h', 'g']","['Chess', 'Go']","[0, 0.5]","[0, 0]",1,0,0,3,3,3,0,1,1,1,,,,,,,,,,,,,,,,,,,,,,,,,,,,,,,,,,,,,,,,,,,,,,,,,,,,,,,,,,,,,,,143.34613271900025,None,143.34613271900025,None,143.34613271900025,None,g,1,0.6491714949997913,144.87944644499976,None,144.87944644499976,None,144.87944644499976,None,145.59603492700035,None,145.59603492700035,None,145.59603492700035,None,145.59603492700035,None,,,,,,,,,,,,,,,,,,,,,,,,,,,,,,,,,,,,,,,,,,,,001,28,2020_Jan_30_0956,spring_faces,3.2.3,59.918398930022974,
condition files/Stage0a.xlsx,0a,beta,none,g,"['h', 'g']","['Chess', 'Go']","[0, 0.5]","[0, 0]",1,0,0,4,4,4,0,0,0,1,,,,,,,,,,,,,,,,,,,,,,,,,,,,,,,,,,,,,,,,,,,,,,,,,,,,,,,,,,,,,,,147.5793762669996,None,147.5793762669996,None,147.5793762669996,None,g,1,0.6877103349997924,149.11283260200025,None,149.11283260200025,None,149.11283260200025,None,149.86275753099972,None,149.86275753099972,None,149.86275753099972,None,149.86275753099972,None,,,,,,,,,,,,,,,,,,,,,,,,,,,,,,,,,,,,,,,,,,,,001,28,2020_Jan_30_0956,spring_faces,3.2.3,59.918398930022974,
condition files/Stage0a.xlsx,0a,alpha,none,h,"['h', 'g']","['Chess', 'Go']","[0, 0.5]","[0, 0]",1,0,0,4,4,4,0,1,1,0,,,,,,,,,,,,,,,,,,,,,,,,,,,,,,,,,,,,,,,,,,,,,,,,,,,,,,,,,,,,,,,151.84613699099964,None,151.84613699099964,None,151.84613699099964,None,h,1,0.6931501600001866,153.37941159499997,None,153.37941159499997,None,153.37941159499997,None,154.12940504599965,None,154.12940504599965,None,154.12940504599965,None,154.12940504599965,None,,,,,,,,,,,,,,,,,,,,,,,,,,,,,,,,,,,,,,,,,,,,001,28,2020_Jan_30_0956,spring_faces,3.2.3,59.918398930022974,
condition files/Stage0a.xlsx,0a,beta,none,g,"['h', 'g']","['Chess', 'Go']","[0, 0.5]","[0, 0]",1,0,0,5,5,5,0,0,0,1,,,,,,,,,,,,,,,,,,,,,,,,,,,,,,,,,,,,,,,,,,,,,,,,,,,,,,,,,,,,,,,156.12943711199978,None,156.12943711199978,None,156.12943711199978,None,g,1,0.7617879330000505,157.6627783380004,None,157.6627783380004,None,157.6627783380004,None,158.49608356199997,None,158.49608356199997,None,158.49608356199997,None,158.49608356199997,None,,,,,,,,,,,,,,,,,,,,,,,,,,,,,,,,,,,,,,,,,,,,001,28,2020_Jan_30_0956,spring_faces,3.2.3,59.918398930022974,
condition files/Stage0a.xlsx,0a,alpha,none,h,"['h', 'g']","['Chess', 'Go']","[0, 0.5]","[0, 0]",1,0,0,5,5,5,0,1,1,0,,,,,,,,,,,,,,,,,,,,,,,,,,,,,,,,,,,,,,,,,,,,,,,,,,,,,,,,,,,,,,,160.4627777339997,None,160.4627777339997,None,160.4627777339997,None,h,1,0.700374314000328,161.9960892490003,None,161.9960892490003,None,161.9960892490003,None,162.76270414199962,None,162.76270414199962,None,162.76270414199962,None,162.76270414199962,None,,,,,,,,,,,,,,,,,,,,,,,,,,,,,,,,,,,,,,,,,,,,001,28,2020_Jan_30_0956,spring_faces,3.2.3,59.918398930022974,
condition files/Stage0b_1.xlsx,0b,alpha,none,h,"['h', 'g']","['Chess', 'Go']","[-0.15, 0.5]","[0.15, 0.5]",1,0,0,6,6,6,0,0,0,0,,,,,,,,,,,,,,,,,,,,,,,,,,,,,,,,,,,,,,,,,,,,,,,,,,,,,,,,,,,,,,,164.76270794400034,None,164.76270794400034,None,164.76270794400034,None,h,1,0.592450051999549,166.29610938999986,None,166.29610938999986,None,166.29610938999986,None,166.9460892430002,None,166.9460892430002,None,166.9460892430002,None,166.9460892430002,None,,,,,,,,,,,,,,,,,,,,,,,,,,,,,,,,,,,,,,,,,,,,001,28,2020_Jan_30_0956,spring_faces,3.2.3,59.918398930022974,
condition files/Stage0b_1.xlsx,0b,none,beta,g,"['h', 'g']","['Chess', 'Go']","[-0.15, 0.5]","[0.15, 0.5]",0,1,0,6,6,6,0,1,1,1,,,,,,,,,,,,,,,,,,,,,,,,,,,,,,,,,,,,,,,,,,,,,,,,,,,,,,,,,,,,,,,168.92945903900045,None,168.92945903900045,None,168.92945903900045,None,g,1,0.6819007409994811,170.4627571189999,None,170.4627571189999,None,170.4627571189999,None,171.21282996699983,None,171.21282996699983,None,171.21282996699983,None,171.21282996699983,None,,,,,,,,,,,,,,,,,,,,,,,,,,,,,,,,,,,,,,,,,,,,001,28,2020_Jan_30_0956,spring_faces,3.2.3,59.918398930022974,
condition files/Stage0b_2.xlsx,0b,beta,none,g,"['h', 'g']","['Chess', 'Go']","[-0.15, 0.5]","[0.15, 0.5]",1,0,0,7,7,7,0,0,0,1,,,,,,,,,,,,,,,,,,,,,,,,,,,,,,,,,,,,,,,,,,,,,,,,,,,,,,,,,,,,,,,173.1960446779999,None,173.1960446779999,None,173.1960446779999,None,g,1,0.7351282580002589,174.72935215700045,None,174.72935215700045,None,174.72935215700045,None,175.54604947300004,None,175.54604947300004,None,175.54604947300004,None,175.54604947300004,None,,,,,,,,,,,,,,,,,,,,,,,,,,,,,,,,,,,,,,,,,,,,001,28,2020_Jan_30_0956,spring_faces,3.2.3,59.918398930022974,
condition files/Stage0b_2.xlsx,0b,none,alpha,h,"['h', 'g']","['Chess', 'Go']","[-0.15, 0.5]","[0.15, 0.5]",0,1,0,7,7,7,0,1,1,0,,,,,,,,,,,,,,,,,,,,,,,,,,,,,,,,,,,,,,,,,,,,,,,,,,,,,,,,,,,,,,,177.51277209200043,None,177.51277209200043,None,177.51277209200043,None,h,1,0.466485928000111,179.04611621199956,None,179.04611621199956,None,179.04611621199956,None,179.57933442199965,None,179.57933442199965,None,179.57933442199965,None,179.57933442199965,None,,,,,,,,,,,,,,,,,,,,,,,,,,,,,,,,,,,,,,,,,,,,001,28,2020_Jan_30_0956,spring_faces,3.2.3,59.918398930022974,
condition files/Stage0b_1.xlsx,0b,none,beta,g,"['h', 'g']","['Chess', 'Go']","[-0.15, 0.5]","[0.15, 0.5]",0,1,0,8,8,8,0,0,0,1,,,,,,,,,,,,,,,,,,,,,,,,,,,,,,,,,,,,,,,,,,,,,,,,,,,,,,,,,,,,,,,181.56272189499987,None,181.56272189499987,None,181.56272189499987,None,h,0,0.608459572999891,183.09610887600002,None,183.09610887600002,None,183.09610887600002,None,183.77941988300017,None,183.77941988300017,None,183.77941988300017,None,183.77941988300017,None,,,,,,,,,,,,,,,,,,,,,,,,,,,,,,,,,,,,,,,,,,,,001,28,2020_Jan_30_0956,spring_faces,3.2.3,59.918398930022974,
condition files/Stage0b_1.xlsx,0b,alpha,none,h,"['h', 'g']","['Chess', 'Go']","[-0.15, 0.5]","[0.15, 0.5]",1,0,0,8,8,8,0,1,1,0,,,,,,,,,,,,,,,,,,,,,,,,,,,,,,,,,,,,,,,,,,,,,,,,,,,,,,,,,,,,,,,185.7460966249996,None,185.7460966249996,None,185.7460966249996,None,h,1,0.7292608719999407,187.27922390600042,None,187.27922390600042,None,187.27922390600042,None,188.07946602099992,None,188.07946602099992,None,188.07946602099992,None,188.07946602099992,None,,,,,,,,,,,,,,,,,,,,,,,,,,,,,,,,,,,,,,,,,,,,001,28,2020_Jan_30_0956,spring_faces,3.2.3,59.918398930022974,
condition files/Stage0b_2.xlsx,0b,none,alpha,h,"['h', 'g']","['Chess', 'Go']","[-0.15, 0.5]","[0.15, 0.5]",0,1,0,9,9,9,0,0,0,0,,,,,,,,,,,,,,,,,,,,,,,,,,,,,,,,,,,,,,,,,,,,,,,,,,,,,,,,,,,,,,,190.06277419000025,None,190.06277419000025,None,190.06277419000025,None,h,1,0.8285268519994133,191.59605010299993,None,191.59605010299993,None,191.59605010299993,None,192.47941426399984,None,192.47941426399984,None,192.47941426399984,None,192.47941426399984,None,,,,,,,,,,,,,,,,,,,,,,,,,,,,,,,,,,,,,,,,,,,,001,28,2020_Jan_30_0956,spring_faces,3.2.3,59.918398930022974,
condition files/Stage0b_2.xlsx,0b,beta,none,g,"['h', 'g']","['Chess', 'Go']","[-0.15, 0.5]","[0.15, 0.5]",1,0,0,9,9,9,0,1,1,1,,,,,,,,,,,,,,,,,,,,,,,,,,,,,,,,,,,,,,,,,,,,,,,,,,,,,,,,,,,,,,,194.4628003849998,None,194.4628003849998,None,194.4628003849998,None,g,1,0.8127413850006633,195.99573541499967,None,195.99573541499967,None,195.99573541499967,None,196.87937019900028,None,196.87937019900028,None,196.87937019900028,None,196.87937019900028,None,,,,,,,,,,,,,,,,,,,,,,,,,,,,,,,,,,,,,,,,,,,,001,28,2020_Jan_30_0956,spring_faces,3.2.3,59.918398930022974,
condition files/Stage0b_1.xlsx,0b,none,beta,g,"['h', 'g']","['Chess', 'Go']","[-0.15, 0.5]","[0.15, 0.5]",0,1,0,10,10,10,0,0,0,1,,,,,,,,,,,,,,,,,,,,,,,,,,,,,,,,,,,,,,,,,,,,,,,,,,,,,,,,,,,,,,,198.86278107800035,None,198.86278107800035,None,198.86278107800035,None,g,1,0.6524672260002262,200.39604585000006,None,200.39604585000006,None,200.39604585000006,None,201.11276516099997,None,201.11276516099997,None,201.11276516099997,None,201.11276516099997,None,,,,,,,,,,,,,,,,,,,,,,,,,,,,,,,,,,,,,,,,,,,,001,28,2020_Jan_30_0956,spring_faces,3.2.3,59.918398930022974,
condition files/Stage0b_1.xlsx,0b,alpha,none,h,"['h', 'g']","['Chess', 'Go']","[-0.15, 0.5]","[0.15, 0.5]",1,0,0,10,10,10,0,1,1,0,,,,,,,,,,,,,,,,,,,,,,,,,,,,,,,,,,,,,,,,,,,,,,,,,,,,,,,,,,,,,,,203.09613355400006,None,203.09613355400006,None,203.09613355400006,None,h,1,0.9154965650004669,204.62914806900017,None,204.62914806900017,None,204.62914806900017,None,205.61278428099968,None,205.61278428099968,None,205.61278428099968,None,205.61278428099968,None,,,,,,,,,,,,,,,,,,,,,,,,,,,,,,,,,,,,,,,,,,,,001,28,2020_Jan_30_0956,spring_faces,3.2.3,59.918398930022974,
condition files/Stage0b_2.xlsx,0b,beta,none,g,"['h', 'g']","['Chess', 'Go']","[-0.15, 0.5]","[0.15, 0.5]",1,0,0,11,11,11,0,0,0,1,,,,,,,,,,,,,,,,,,,,,,,,,,,,,,,,,,,,,,,,,,,,,,,,,,,,,,,,,,,,,,,207.5960557780004,None,207.5960557780004,None,207.5960557780004,None,g,1,1.103164506000212,209.12938342000007,None,209.12938342000007,None,209.12938342000007,None,210.29614009999977,None,210.29614009999977,None,210.29614009999977,None,210.29614009999977,None,,,,,,,,,,,,,,,,,,,,,,,,,,,,,,,,,,,,,,,,,,,,001,28,2020_Jan_30_0956,spring_faces,3.2.3,59.918398930022974,
condition files/Stage0b_2.xlsx,0b,none,alpha,h,"['h', 'g']","['Chess', 'Go']","[-0.15, 0.5]","[0.15, 0.5]",0,1,0,11,11,11,0,1,1,0,,,,,,,,,,,,,,,,,,,,,,,,,,,,,,,,,,,,,,,,,,,,,,,,,,,,,,,,,,,,,,,212.27944183200043,None,212.27944183200043,None,212.27944183200043,None,h,1,1.075791947999278,213.81275746500023,None,213.81275746500023,None,213.81275746500023,None,214.96275775300046,None,214.96275775300046,None,214.96275775300046,None,214.96275775300046,None,,,,,,,,,,,,,,,,,,,,,,,,,,,,,,,,,,,,,,,,,,,,001,28,2020_Jan_30_0956,spring_faces,3.2.3,59.918398930022974,
condition files/Stage0c_1.xlsx,0c,beta,theta,g,"['h', 'g']","['Chess', 'Go']","[-0.15, 0.5]","[0.15, 0.5]",1,1,0,12,12,12,0,0,0,2,,,,,,,,,,,,,,,,,,,,,,,,,,,,,,,,,,,,,,,,,,,,,,,,,,,,,,,,,,,,,,,216.94607946000042,None,216.94607946000042,None,216.94607946000042,None,g,1,5.04935560299964,218.479298922,None,218.479298922,None,218.479298922,None,223.59601308300034,None,223.59601308300034,None,223.59601308300034,None,223.59601308300034,None,,,,,,,,,,,,,,,,,,,,,,,,,,,,,,,,,,,,,,,,,,,,001,28,2020_Jan_30_0956,spring_faces,3.2.3,59.918398930022974,
condition files/Stage0c_1.xlsx,0c,alpha,phi,h,"['h', 'g']","['Chess', 'Go']","[-0.15, 0.5]","[0.15, 0.5]",1,1,0,12,12,12,0,1,1,1,,,,,,,,,,,,,,,,,,,,,,,,,,,,,,,,,,,,,,,,,,,,,,,,,,,,,,,,,,,,,,,225.56276105999996,None,225.56276105999996,None,225.56276105999996,None,h,1,0.9764604530000724,227.0960932619996,None,227.0960932619996,None,227.0960932619996,None,228.1294168219997,None,228.1294168219997,None,228.1294168219997,None,228.1294168219997,None,,,,,,,,,,,,,,,,,,,,,,,,,,,,,,,,,,,,,,,,,,,,001,28,2020_Jan_30_0956,spring_faces,3.2.3,59.918398930022974,
condition files/Stage0c_1.xlsx,0c,phi,beta,g,"['h', 'g']","['Chess', 'Go']","[-0.15, 0.5]","[0.15, 0.5]",1,1,0,12,12,12,0,2,2,3,,,,,,,,,,,,,,,,,,,,,,,,,,,,,,,,,,,,,,,,,,,,,,,,,,,,,,,,,,,,,,,230.1127968830001,None,230.1127968830001,None,230.1127968830001,None,g,1,1.7704094829996393,231.64611428099988,None,231.64611428099988,None,231.64611428099988,None,233.49613474700027,None,233.49613474700027,None,233.49613474700027,None,233.49613474700027,None,,,,,,,,,,,,,,,,,,,,,,,,,,,,,,,,,,,,,,,,,,,,001,28,2020_Jan_30_0956,spring_faces,3.2.3,59.918398930022974,
condition files/Stage0c_1.xlsx,0c,theta,alpha,h,"['h', 'g']","['Chess', 'Go']","[-0.15, 0.5]","[0.15, 0.5]",1,1,0,12,12,12,0,3,3,0,,,,,,,,,,,,,,,,,,,,,,,,,,,,,,,,,,,,,,,,,,,,,,,,,,,,,,,,,,,,,,,235.46280871299996,None,235.46280871299996,None,235.46280871299996,None,h,1,1.1413250539999353,236.97923006799965,None,236.97923006799965,None,236.97923006799965,None,238.17944117599973,None,238.17944117599973,None,238.17944117599973,None,238.17944117599973,None,,,,,,,,,,,,,,,,,,,,,,,,,,,,,,,,,,,,,,,,,,,,001,28,2020_Jan_30_0956,spring_faces,3.2.3,59.918398930022974,
condition files/Stage0c_2.xlsx,0c,phi,alpha,h,"['h', 'g']","['Chess', 'Go']","[-0.15, 0.5]","[0.15, 0.5]",1,1,0,13,13,13,0,0,0,1,,,,,,,,,,,,,,,,,,,,,,,,,,,,,,,,,,,,,,,,,,,,,,,,,,,,,,,,,,,,,,,240.17941925500008,None,240.17941925500008,None,240.17941925500008,None,h,1,0.8077919830002429,241.71276862599962,None,241.71276862599962,None,241.71276862599962,None,242.5794194109999,None,242.5794194109999,None,242.5794194109999,None,242.5794194109999,None,,,,,,,,,,,,,,,,,,,,,,,,,,,,,,,,,,,,,,,,,,,,001,28,2020_Jan_30_0956,spring_faces,3.2.3,59.918398930022974,
condition files/Stage0c_2.xlsx,0c,beta,phi,g,"['h', 'g']","['Chess', 'Go']","[-0.15, 0.5]","[0.15, 0.5]",1,1,0,13,13,13,0,1,1,3,,,,,,,,,,,,,,,,,,,,,,,,,,,,,,,,,,,,,,,,,,,,,,,,,,,,,,,,,,,,,,,244.56280747000028,None,244.56280747000028,None,244.56280747000028,None,g,1,0.8564216730001135,246.09611095599985,None,246.09611095599985,None,246.09611095599985,None,247.01276033899967,None,247.01276033899967,None,247.01276033899967,None,247.01276033899967,None,,,,,,,,,,,,,,,,,,,,,,,,,,,,,,,,,,,,,,,,,,,,001,28,2020_Jan_30_0956,spring_faces,3.2.3,59.918398930022974,
condition files/Stage0c_2.xlsx,0c,theta,beta,g,"['h', 'g']","['Chess', 'Go']","[-0.15, 0.5]","[0.15, 0.5]",1,1,0,13,13,13,0,2,2,2,,,,,,,,,,,,,,,,,,,,,,,,,,,,,,,,,,,,,,,,,,,,,,,,,,,,,,,,,,,,,,,248.99612045599997,None,248.99612045599997,None,248.99612045599997,None,g,1,2.4717567099996813,250.51277348299982,None,250.51277348299982,None,250.51277348299982,None,253.04610742100022,None,253.04610742100022,None,253.04610742100022,None,253.04610742100022,None,,,,,,,,,,,,,,,,,,,,,,,,,,,,,,,,,,,,,,,,,,,,001,28,2020_Jan_30_0956,spring_faces,3.2.3,59.918398930022974,
condition files/Stage0c_2.xlsx,0c,alpha,theta,h,"['h', 'g']","['Chess', 'Go']","[-0.15, 0.5]","[0.15, 0.5]",1,1,0,13,13,13,0,3,3,0,,,,,,,,,,,,,,,,,,,,,,,,,,,,,,,,,,,,,,,,,,,,,,,,,,,,,,,,,,,,,,,255.0294184749996,None,255.0294184749996,None,255.0294184749996,None,h,1,0.6784790100000464,256.5460965159996,None,256.5460965159996,None,256.5460965159996,None,257.2794384249996,None,257.2794384249996,None,257.2794384249996,None,257.2794384249996,None,,,,,,,,,,,,,,,,,,,,,,,,,,,,,,,,,,,,,,,,,,,,001,28,2020_Jan_30_0956,spring_faces,3.2.3,59.918398930022974,
condition files/Stage0c_1.xlsx,0c,theta,alpha,h,"['h', 'g']","['Chess', 'Go']","[-0.15, 0.5]","[0.15, 0.5]",1,1,0,14,14,14,0,0,0,0,,,,,,,,,,,,,,,,,,,,,,,,,,,,,,,,,,,,,,,,,,,,,,,,,,,,,,,,,,,,,,,259.279470512,None,259.279470512,None,259.279470512,None,h,1,0.619735564999246,260.8127974309996,None,260.8127974309996,None,260.8127974309996,None,261.49609792399997,None,261.49609792399997,None,261.49609792399997,None,261.49609792399997,None,,,,,,,,,,,,,,,,,,,,,,,,,,,,,,,,,,,,,,,,,,,,001,28,2020_Jan_30_0956,spring_faces,3.2.3,59.918398930022974,
condition files/Stage0c_1.xlsx,0c,beta,theta,g,"['h', 'g']","['Chess', 'Go']","[-0.15, 0.5]","[0.15, 0.5]",1,1,0,14,14,14,0,1,1,2,,,,,,,,,,,,,,,,,,,,,,,,,,,,,,,,,,,,,,,,,,,,,,,,,,,,,,,,,,,,,,,263.47946888700017,None,263.47946888700017,None,263.47946888700017,None,g,1,0.7885776029997942,264.9959514119996,None,264.9959514119996,None,264.9959514119996,None,265.84608288699974,None,265.84608288699974,None,265.84608288699974,None,265.84608288699974,None,,,,,,,,,,,,,,,,,,,,,,,,,,,,,,,,,,,,,,,,,,,,001,28,2020_Jan_30_0956,spring_faces,3.2.3,59.918398930022974,
condition files/Stage0c_1.xlsx,0c,phi,beta,g,"['h', 'g']","['Chess', 'Go']","[-0.15, 0.5]","[0.15, 0.5]",1,1,0,14,14,14,0,2,2,3,,,,,,,,,,,,,,,,,,,,,,,,,,,,,,,,,,,,,,,,,,,,,,,,,,,,,,,,,,,,,,,267.8294793549999,None,267.8294793549999,None,267.8294793549999,None,g,1,1.1585805840004468,269.3459717339997,None,269.3459717339997,None,269.3459717339997,None,270.56276954800023,None,270.56276954800023,None,270.56276954800023,None,270.56276954800023,None,,,,,,,,,,,,,,,,,,,,,,,,,,,,,,,,,,,,,,,,,,,,001,28,2020_Jan_30_0956,spring_faces,3.2.3,59.918398930022974,
condition files/Stage0c_1.xlsx,0c,alpha,phi,h,"['h', 'g']","['Chess', 'Go']","[-0.15, 0.5]","[0.15, 0.5]",1,1,0,14,14,14,0,3,3,1,,,,,,,,,,,,,,,,,,,,,,,,,,,,,,,,,,,,,,,,,,,,,,,,,,,,,,,,,,,,,,,272.5461212129999,None,272.5461212129999,None,272.5461212129999,None,h,1,0.7290624259994729,274.07940271399957,None,274.07940271399957,None,274.07940271399957,None,274.87941911700045,None,274.87941911700045,None,274.87941911700045,None,274.87941911700045,None,,,,,,,,,,,,,,,,,,,,,,,,,,,,,,,,,,,,,,,,,,,,001,28,2020_Jan_30_0956,spring_faces,3.2.3,59.918398930022974,
condition files/Stage0c_2.xlsx,0c,phi,alpha,h,"['h', 'g']","['Chess', 'Go']","[-0.15, 0.5]","[0.15, 0.5]",1,1,0,15,15,15,0,0,0,1,,,,,,,,,,,,,,,,,,,,,,,,,,,,,,,,,,,,,,,,,,,,,,,,,,,,,,,,,,,,,,,276.8627547829997,None,276.8627547829997,None,276.8627547829997,None,h,1,0.6684512990004805,278.39604211899996,None,278.39604211899996,None,278.39604211899996,None,279.1293712499996,None,279.1293712499996,None,279.1293712499996,None,279.1293712499996,None,,,,,,,,,,,,,,,,,,,,,,,,,,,,,,,,,,,,,,,,,,,,001,28,2020_Jan_30_0956,spring_faces,3.2.3,59.918398930022974,
condition files/Stage0c_2.xlsx,0c,theta,beta,g,"['h', 'g']","['Chess', 'Go']","[-0.15, 0.5]","[0.15, 0.5]",1,1,0,15,15,15,0,1,1,2,,,,,,,,,,,,,,,,,,,,,,,,,,,,,,,,,,,,,,,,,,,,,,,,,,,,,,,,,,,,,,,281.1128064769996,None,281.1128064769996,None,281.1128064769996,None,g,1,0.5944177530000161,282.64611216300045,None,282.64611216300045,None,282.64611216300045,None,283.29608481900004,None,283.29608481900004,None,283.29608481900004,None,283.29608481900004,None,,,,,,,,,,,,,,,,,,,,,,,,,,,,,,,,,,,,,,,,,,,,001,28,2020_Jan_30_0956,spring_faces,3.2.3,59.918398930022974,
condition files/Stage0c_2.xlsx,0c,alpha,theta,h,"['h', 'g']","['Chess', 'Go']","[-0.15, 0.5]","[0.15, 0.5]",1,1,0,15,15,15,0,2,2,0,,,,,,,,,,,,,,,,,,,,,,,,,,,,,,,,,,,,,,,,,,,,,,,,,,,,,,,,,,,,,,,285.2794827980001,None,285.2794827980001,None,285.2794827980001,None,h,1,0.9236722589994315,286.81279671699986,None,286.81279671699986,None,286.81279671699986,None,287.796088351,None,287.796088351,None,287.796088351,None,287.796088351,None,,,,,,,,,,,,,,,,,,,,,,,,,,,,,,,,,,,,,,,,,,,,001,28,2020_Jan_30_0956,spring_faces,3.2.3,59.918398930022974,
condition files/Stage0c_2.xlsx,0c,beta,phi,g,"['h', 'g']","['Chess', 'Go']","[-0.15, 0.5]","[0.15, 0.5]",1,1,0,15,15,15,0,3,3,3,,,,,,,,,,,,,,,,,,,,,,,,,,,,,,,,,,,,,,,,,,,,,,,,,,,,,,,,,,,,,,,289.77947867099965,None,289.77947867099965,None,289.77947867099965,None,g,1,0.7448229320007158,291.2957649089999,None,291.2957649089999,None,291.2957649089999,None,292.0961827440001,None,292.0961827440001,None,292.0961827440001,None,292.0961827440001,None,,,,,,,,,,,,,,,,,,,,,,,,,,,,,,,,,,,,,,,,,,,,001,28,2020_Jan_30_0956,spring_faces,3.2.3,59.918398930022974,
condition files/Stage0c_1.xlsx,0c,theta,alpha,h,"['h', 'g']","['Chess', 'Go']","[-0.15, 0.5]","[0.15, 0.5]",1,1,0,16,16,16,0,0,0,0,,,,,,,,,,,,,,,,,,,,,,,,,,,,,,,,,,,,,,,,,,,,,,,,,,,,,,,,,,,,,,,294.0960868420002,None,294.0960868420002,None,294.0960868420002,None,h,1,0.7799606319995291,295.61263499200004,None,295.61263499200004,None,295.61263499200004,None,296.4461074329997,None,296.4461074329997,None,296.4461074329997,None,296.4461074329997,None,,,,,,,,,,,,,,,,,,,,,,,,,,,,,,,,,,,,,,,,,,,,001,28,2020_Jan_30_0956,spring_faces,3.2.3,59.918398930022974,
condition files/Stage0c_1.xlsx,0c,beta,theta,g,"['h', 'g']","['Chess', 'Go']","[-0.15, 0.5]","[0.15, 0.5]",1,1,0,16,16,16,0,1,1,2,,,,,,,,,,,,,,,,,,,,,,,,,,,,,,,,,,,,,,,,,,,,,,,,,,,,,,,,,,,,,,,298.4294281489997,None,298.4294281489997,None,298.4294281489997,None,g,1,1.5345175780003046,299.9459405040002,None,299.9459405040002,None,299.9459405040002,None,301.5460638560003,None,301.5460638560003,None,301.5460638560003,None,301.5460638560003,None,,,,,,,,,,,,,,,,,,,,,,,,,,,,,,,,,,,,,,,,,,,,001,28,2020_Jan_30_0956,spring_faces,3.2.3,59.918398930022974,
condition files/Stage0c_1.xlsx,0c,alpha,phi,h,"['h', 'g']","['Chess', 'Go']","[-0.15, 0.5]","[0.15, 0.5]",1,1,0,16,16,16,0,2,2,1,,,,,,,,,,,,,,,,,,,,,,,,,,,,,,,,,,,,,,,,,,,,,,,,,,,,,,,,,,,,,,,303.5293532009996,None,303.5293532009996,None,303.5293532009996,None,h,1,0.48187202499957493,305.062755894,None,305.062755894,None,305.062755894,None,305.5959464140001,None,305.5959464140001,None,305.5959464140001,None,305.5959464140001,None,,,,,,,,,,,,,,,,,,,,,,,,,,,,,,,,,,,,,,,,,,,,001,28,2020_Jan_30_0956,spring_faces,3.2.3,59.918398930022974,
condition files/Stage0c_1.xlsx,0c,phi,beta,g,"['h', 'g']","['Chess', 'Go']","[-0.15, 0.5]","[0.15, 0.5]",1,1,0,16,16,16,0,3,3,3,,,,,,,,,,,,,,,,,,,,,,,,,,,,,,,,,,,,,,,,,,,,,,,,,,,,,,,,,,,,,,,307.57935649599995,None,307.57935649599995,None,307.57935649599995,None,g,1,0.4968316690001302,309.09577055100044,None,309.09577055100044,None,309.09577055100044,None,309.6460893950002,None,309.6460893950002,None,309.6460893950002,None,309.6460893950002,None,,,,,,,,,,,,,,,,,,,,,,,,,,,,,,,,,,,,,,,,,,,,001,28,2020_Jan_30_0956,spring_faces,3.2.3,59.918398930022974,
condition files/Stage0c_2.xlsx,0c,alpha,theta,h,"['h', 'g']","['Chess', 'Go']","[-0.15, 0.5]","[0.15, 0.5]",1,1,0,17,17,17,0,0,0,0,,,,,,,,,,,,,,,,,,,,,,,,,,,,,,,,,,,,,,,,,,,,,,,,,,,,,,,,,,,,,,,311.64612403,None,311.64612403,None,311.64612403,None,h,1,0.6530869039997924,313.1794448530004,None,313.1794448530004,None,313.1794448530004,None,313.89613358700035,None,313.89613358700035,None,313.89613358700035,None,313.89613358700035,None,,,,,,,,,,,,,,,,,,,,,,,,,,,,,,,,,,,,,,,,,,,,001,28,2020_Jan_30_0956,spring_faces,3.2.3,59.918398930022974,
condition files/Stage0c_2.xlsx,0c,theta,beta,g,"['h', 'g']","['Chess', 'Go']","[-0.15, 0.5]","[0.15, 0.5]",1,1,0,17,17,17,0,1,1,2,,,,,,,,,,,,,,,,,,,,,,,,,,,,,,,,,,,,,,,,,,,,,,,,,,,,,,,,,,,,,,,315.8794776660002,None,315.8794776660002,None,315.8794776660002,None,g,1,0.5328622399993037,317.3957741910003,None,317.3957741910003,None,317.3957741910003,None,317.9793691210002,None,317.9793691210002,None,317.9793691210002,None,317.9793691210002,None,,,,,,,,,,,,,,,,,,,,,,,,,,,,,,,,,,,,,,,,,,,,001,28,2020_Jan_30_0956,spring_faces,3.2.3,59.918398930022974,
condition files/Stage0c_2.xlsx,0c,beta,phi,g,"['h', 'g']","['Chess', 'Go']","[-0.15, 0.5]","[0.15, 0.5]",1,1,0,17,17,17,0,2,2,3,,,,,,,,,,,,,,,,,,,,,,,,,,,,,,,,,,,,,,,,,,,,,,,,,,,,,,,,,,,,,,,319.96269729999995,None,319.96269729999995,None,319.96269729999995,None,h,0,0.6564004190004198,321.49611389699976,None,321.49611389699976,None,321.49611389699976,None,322.21275560099957,None,322.21275560099957,None,322.21275560099957,None,322.21275560099957,None,,,,,,,,,,,,,,,,,,,,,,,,,,,,,,,,,,,,,,,,,,,,001,28,2020_Jan_30_0956,spring_faces,3.2.3,59.918398930022974,
condition files/Stage0c_2.xlsx,0c,phi,alpha,h,"['h', 'g']","['Chess', 'Go']","[-0.15, 0.5]","[0.15, 0.5]",1,1,0,17,17,17,0,3,3,1,,,,,,,,,,,,,,,,,,,,,,,,,,,,,,,,,,,,,,,,,,,,,,,,,,,,,,,,,,,,,,,324.1960551690004,None,324.1960551690004,None,324.1960551690004,None,h,1,0.9518459010005245,325.71260790600036,None,325.71260790600036,None,325.71260790600036,None,326.72939406999967,None,326.72939406999967,None,326.72939406999967,None,326.72939406999967,None,,,,,,,,,,,,,,,,,,,,,,,,,,,,,,,,,,,,,,,,,,,,001,28,2020_Jan_30_0956,spring_faces,3.2.3,59.918398930022974,
,,,,,,,,,,,,,,,,,,,,,,,,,,,,,,,,,,,,,,,,,,,,,,,,,,,,,,,,,,,,,,,,,,,,,,,,,,,,,,,,,,,,,,,,,,,,,,,,,,,,,,,,328.7127873860004,None,space,3.5284480569998777,333.6961149900003,None,,,,,,,,,,,,,,,,,,,,,,,,,,,,,,,,,,,,,,001,28,2020_Jan_30_0956,spring_faces,3.2.3,59.918398930022974,
condition files/Stage1_1.xlsx,,B1,T2,c,"['c', 'm']","['Clue', 'Monopoly']","[-0.15, 0.5]","[0.15, 0.5]",1,1,,,,,,,,,0,0,0,0,0,0,0,1,,,,,,,,,,,,,,,,,,,,,,,,,,,,,,,,,,,,,,,,,,,,,,,,,,,,,,,337.2794708710003,None,337.2794708710003,None,337.2794708710003,None,c,1,3.0076271600000837,339.1129089029996,None,339.1129089029996,None,339.1129089029996,None,342.19605508700033,None,342.19605508700033,None,342.19605508700033,None,342.19605508700033,None,,,,,,,333.6961149900003,None,,,,,,,,,,,,,,,,,,,,,,,,,,,,,,,,,,,,001,28,2020_Jan_30_0956,spring_faces,3.2.3,59.918398930022974,
condition files/Stage1_1.xlsx,,B4,T4,m,"['c', 'm']","['Clue', 'Monopoly']","[-0.15, 0.5]","[0.15, 0.5]",1,1,,,,,,,,,0,0,0,0,0,1,1,7,,,,,,,,,,,,,,,,,,,,,,,,,,,,,,,,,,,,,,,,,,,,,,,,,,,,,,,344.16277528399996,None,344.16277528399996,None,344.16277528399996,None,c,0,5.848652174000563,345.695975135,None,345.695975135,None,345.695975135,None,351.6127741160003,None,351.6127741160003,None,351.6127741160003,None,351.6127741160003,None,,,,,,,,,,,,,,,,,,,,,,,,,,,,,,,,,,,,,,,,,,,,001,28,2020_Jan_30_0956,spring_faces,3.2.3,59.918398930022974,
condition files/Stage1_1.xlsx,,B3,T3,c,"['c', 'm']","['Clue', 'Monopoly']","[-0.15, 0.5]","[0.15, 0.5]",1,1,,,,,,,,,0,0,0,0,0,2,2,4,,,,,,,,,,,,,,,,,,,,,,,,,,,,,,,,,,,,,,,,,,,,,,,,,,,,,,,353.57935236000003,None,353.57935236000003,None,353.57935236000003,None,m,0,1.6639785119996304,355.11264410800004,None,355.11264410800004,None,355.11264410800004,None,356.8461295029997,None,356.8461295029997,None,356.8461295029997,None,356.8461295029997,None,,,,,,,,,,,,,,,,,,,,,,,,,,,,,,,,,,,,,,,,,,,,001,28,2020_Jan_30_0956,spring_faces,3.2.3,59.918398930022974,
condition files/Stage1_1.xlsx,,B2,T1,m,"['c', 'm']","['Clue', 'Monopoly']","[-0.15, 0.5]","[0.15, 0.5]",1,1,,,,,,,,,0,0,0,0,0,3,3,2,,,,,,,,,,,,,,,,,,,,,,,,,,,,,,,,,,,,,,,,,,,,,,,,,,,,,,,358.8128171100002,None,358.8128171100002,None,358.8128171100002,None,c,0,1.7617617710002378,360.6627904279999,None,360.6627904279999,None,360.6627904279999,None,362.4961164829997,None,362.4961164829997,None,362.4961164829997,None,362.4961164829997,None,,,,,,,,,,,,,,,,,,,,,,,,,,,,,,,,,,,,,,,,,,,,001,28,2020_Jan_30_0956,spring_faces,3.2.3,59.918398930022974,
condition files/Stage1_1.xlsx,,T2,B2,m,"['c', 'm']","['Clue', 'Monopoly']","[-0.15, 0.5]","[0.15, 0.5]",1,1,,,,,,,,,0,0,0,0,0,4,4,3,,,,,,,,,,,,,,,,,,,,,,,,,,,,,,,,,,,,,,,,,,,,,,,,,,,,,,,364.462782608,None,364.462782608,None,364.462782608,None,c,0,4.63651686600042,365.99602640500007,None,365.99602640500007,None,365.99602640500007,None,370.71234254100045,None,370.71234254100045,None,370.71234254100045,None,370.71234254100045,None,,,,,,,,,,,,,,,,,,,,,,,,,,,,,,,,,,,,,,,,,,,,001,28,2020_Jan_30_0956,spring_faces,3.2.3,59.918398930022974,
condition files/Stage1_1.xlsx,,T1,B1,c,"['c', 'm']","['Clue', 'Monopoly']","[-0.15, 0.5]","[0.15, 0.5]",1,1,,,,,,,,,0,0,0,0,0,5,5,0,,,,,,,,,,,,,,,,,,,,,,,,,,,,,,,,,,,,,,,,,,,,,,,,,,,,,,,372.6794585929997,None,372.6794585929997,None,372.6794585929997,None,c,1,1.8278107989999626,374.2127499780004,None,374.2127499780004,None,374.2127499780004,None,376.1127818680002,None,376.1127818680002,None,376.1127818680002,None,376.1127818680002,None,,,,,,,,,,,,,,,,,,,,,,,,,,,,,,,,,,,,,,,,,,,,001,28,2020_Jan_30_0956,spring_faces,3.2.3,59.918398930022974,
condition files/Stage1_1.xlsx,,T4,B3,m,"['c', 'm']","['Clue', 'Monopoly']","[-0.15, 0.5]","[0.15, 0.5]",1,1,,,,,,,,,0,0,0,0,0,6,6,6,,,,,,,,,,,,,,,,,,,,,,,,,,,,,,,,,,,,,,,,,,,,,,,,,,,,,,,378.0794956140003,None,378.0794956140003,None,378.0794956140003,None,m,1,1.3877426259996355,379.6127799540004,None,379.6127799540004,None,379.6127799540004,None,381.079429637,None,381.079429637,None,381.079429637,None,381.079429637,None,,,,,,,,,,,,,,,,,,,,,,,,,,,,,,,,,,,,,,,,,,,,001,28,2020_Jan_30_0956,spring_faces,3.2.3,59.918398930022974,
condition files/Stage1_1.xlsx,,T3,B4,c,"['c', 'm']","['Clue', 'Monopoly']","[-0.15, 0.5]","[0.15, 0.5]",1,1,,,,,,,,,0,0,0,0,0,7,7,5,,,,,,,,,,,,,,,,,,,,,,,,,,,,,,,,,,,,,,,,,,,,,,,,,,,,,,,383.046082542,None,383.046082542,None,383.046082542,None,m,0,1.3651666429996112,384.5794635739999,None,384.5794635739999,None,384.5794635739999,None,386.0127911269997,None,386.0127911269997,None,386.0127911269997,None,386.0127911269997,None,,,,,,,,,,,,,,,,,,,,,,,,,,,,,,,,,,,,,,,,,,,,001,28,2020_Jan_30_0956,spring_faces,3.2.3,59.918398930022974,
condition files/Stage1_2.xlsx,,B4,T3,c,"['c', 'm']","['Clue', 'Monopoly']","[-0.15, 0.5]","[0.15, 0.5]",1,1,,,,,,,,,0,1,1,1,0,0,0,5,,,,,,,,,,,,,,,,,,,,,,,,,,,,,,,,,,,,,,,,,,,,,,,,,,,,,,,387.9960536069998,None,387.9960536069998,None,387.9960536069998,None,c,1,3.871092557999873,389.52945326800045,None,389.52945326800045,None,389.52945326800045,None,393.47944391099963,None,393.47944391099963,None,393.47944391099963,None,393.47944391099963,None,,,,,,,,,,,,,,,,,,,,,,,,,,,,,,,,,,,,,,,,,,,,001,28,2020_Jan_30_0956,spring_faces,3.2.3,59.918398930022974,
condition files/Stage1_2.xlsx,,T1,B2,m,"['c', 'm']","['Clue', 'Monopoly']","[-0.15, 0.5]","[0.15, 0.5]",1,1,,,,,,,,,0,1,1,1,0,1,1,2,,,,,,,,,,,,,,,,,,,,,,,,,,,,,,,,,,,,,,,,,,,,,,,,,,,,,,,395.44611896000015,None,395.44611896000015,None,395.44611896000015,None,m,1,1.077111168000556,396.97944603299993,None,396.97944603299993,None,396.97944603299993,None,398.1294480370002,None,398.1294480370002,None,398.1294480370002,None,398.1294480370002,None,,,,,,,,,,,,,,,,,,,,,,,,,,,,,,,,,,,,,,,,,,,,001,28,2020_Jan_30_0956,spring_faces,3.2.3,59.918398930022974,
condition files/Stage1_2.xlsx,,B2,T2,m,"['c', 'm']","['Clue', 'Monopoly']","[-0.15, 0.5]","[0.15, 0.5]",1,1,,,,,,,,,0,1,1,1,0,2,2,3,,,,,,,,,,,,,,,,,,,,,,,,,,,,,,,,,,,,,,,,,,,,,,,,,,,,,,,400.0961637109999,None,400.0961637109999,None,400.0961637109999,None,c,0,1.1153100869996706,401.6293326939999,None,401.6293326939999,None,401.6293326939999,None,402.79605154200044,None,402.79605154200044,None,402.79605154200044,None,402.79605154200044,None,,,,,,,,,,,,,,,,,,,,,,,,,,,,,,,,,,,,,,,,,,,,001,28,2020_Jan_30_0956,spring_faces,3.2.3,59.918398930022974,
condition files/Stage1_2.xlsx,,B1,T1,c,"['c', 'm']","['Clue', 'Monopoly']","[-0.15, 0.5]","[0.15, 0.5]",1,1,,,,,,,,,0,1,1,1,0,3,3,0,,,,,,,,,,,,,,,,,,,,,,,,,,,,,,,,,,,,,,,,,,,,,,,,,,,,,,,404.7793436480001,None,404.7793436480001,None,404.7793436480001,None,c,1,2.063834046000011,406.3127613390002,None,406.3127613390002,None,406.3127613390002,None,408.4461113450002,None,408.4461113450002,None,408.4461113450002,None,408.4461113450002,None,,,,,,,,,,,,,,,,,,,,,,,,,,,,,,,,,,,,,,,,,,,,001,28,2020_Jan_30_0956,spring_faces,3.2.3,59.918398930022974,
condition files/Stage1_2.xlsx,,T3,B3,c,"['c', 'm']","['Clue', 'Monopoly']","[-0.15, 0.5]","[0.15, 0.5]",1,1,,,,,,,,,0,1,1,1,0,4,4,4,,,,,,,,,,,,,,,,,,,,,,,,,,,,,,,,,,,,,,,,,,,,,,,,,,,,,,,410.4127916709999,None,410.4127916709999,None,410.4127916709999,None,m,0,1.0544874130000608,411.9460550230001,None,411.9460550230001,None,411.9460550230001,None,413.07942675299955,None,413.07942675299955,None,413.07942675299955,None,413.07942675299955,None,,,,,,,,,,,,,,,,,,,,,,,,,,,,,,,,,,,,,,,,,,,,001,28,2020_Jan_30_0956,spring_faces,3.2.3,59.918398930022974,
condition files/Stage1_2.xlsx,,T2,B1,c,"['c', 'm']","['Clue', 'Monopoly']","[-0.15, 0.5]","[0.15, 0.5]",1,1,,,,,,,,,0,1,1,1,0,5,5,1,,,,,,,,,,,,,,,,,,,,,,,,,,,,,,,,,,,,,,,,,,,,,,,,,,,,,,,415.04613377600026,None,415.04613377600026,None,415.04613377600026,None,m,0,2.1170271159999174,416.57943118699995,None,416.57943118699995,None,416.57943118699995,None,418.7627221059997,None,418.7627221059997,None,418.7627221059997,None,418.7627221059997,None,,,,,,,,,,,,,,,,,,,,,,,,,,,,,,,,,,,,,,,,,,,,001,28,2020_Jan_30_0956,spring_faces,3.2.3,59.918398930022974,
condition files/Stage1_2.xlsx,,B3,T4,m,"['c', 'm']","['Clue', 'Monopoly']","[-0.15, 0.5]","[0.15, 0.5]",1,1,,,,,,,,,0,1,1,1,0,6,6,6,,,,,,,,,,,,,,,,,,,,,,,,,,,,,,,,,,,,,,,,,,,,,,,,,,,,,,,420.74601743799985,None,420.74601743799985,None,420.74601743799985,None,m,1,2.433193422999466,422.2794180679998,None,422.2794180679998,None,422.2794180679998,None,424.77939616899994,None,424.77939616899994,None,424.77939616899994,None,424.77939616899994,None,,,,,,,,,,,,,,,,,,,,,,,,,,,,,,,,,,,,,,,,,,,,001,28,2020_Jan_30_0956,spring_faces,3.2.3,59.918398930022974,
condition files/Stage1_2.xlsx,,T4,B4,m,"['c', 'm']","['Clue', 'Monopoly']","[-0.15, 0.5]","[0.15, 0.5]",1,1,,,,,,,,,0,1,1,1,0,7,7,7,,,,,,,,,,,,,,,,,,,,,,,,,,,,,,,,,,,,,,,,,,,,,,,,,,,,,,,426.74605803700024,None,426.74605803700024,None,426.74605803700024,None,c,0,0.8331893670001591,428.2794434900002,None,428.2794434900002,None,428.2794434900002,None,429.162699514,None,429.162699514,None,429.162699514,None,429.162699514,None,,,,,,,,,,,,,,,,,,,,,,,,,,,,,,,,,,,,,,,,,,,,001,28,2020_Jan_30_0956,spring_faces,3.2.3,59.918398930022974,
condition files/Stage1_1.xlsx,,T3,B4,c,"['c', 'm']","['Clue', 'Monopoly']","[-0.15, 0.5]","[0.15, 0.5]",1,1,,,,,,,,,0,2,2,2,0,0,0,5,,,,,,,,,,,,,,,,,,,,,,,,,,,,,,,,,,,,,,,,,,,,,,,,,,,,,,,431.1627191960001,None,431.1627191960001,None,431.1627191960001,None,c,1,1.4884103479998885,432.69612922999977,None,432.69612922999977,None,432.69612922999977,None,434.26283430099966,None,434.26283430099966,None,434.26283430099966,None,434.26283430099966,None,,,,,,,,,,,,,,,,,,,,,,,,,,,,,,,,,,,,,,,,,,,,001,28,2020_Jan_30_0956,spring_faces,3.2.3,59.918398930022974,
condition files/Stage1_1.xlsx,,T2,B2,m,"['c', 'm']","['Clue', 'Monopoly']","[-0.15, 0.5]","[0.15, 0.5]",1,1,,,,,,,,,0,2,2,2,0,1,1,3,,,,,,,,,,,,,,,,,,,,,,,,,,,,,,,,,,,,,,,,,,,,,,,,,,,,,,,436.2294117409997,None,436.2294117409997,None,436.2294117409997,None,c,0,1.8777624929998638,437.7627927409999,None,437.7627927409999,None,437.7627927409999,None,439.71275793999985,None,439.71275793999985,None,439.71275793999985,None,439.71275793999985,None,,,,,,,,,,,,,,,,,,,,,,,,,,,,,,,,,,,,,,,,,,,,001,28,2020_Jan_30_0956,spring_faces,3.2.3,59.918398930022974,
condition files/Stage1_1.xlsx,,B1,T2,c,"['c', 'm']","['Clue', 'Monopoly']","[-0.15, 0.5]","[0.15, 0.5]",1,1,,,,,,,,,0,2,2,2,0,2,2,1,,,,,,,,,,,,,,,,,,,,,,,,,,,,,,,,,,,,,,,,,,,,,,,,,,,,,,,441.6794529499998,None,441.6794529499998,None,441.6794529499998,None,m,0,0.17176985300011438,443.212753323,None,443.212753323,None,443.212753323,None,443.46275852400004,None,443.46275852400004,None,443.46275852400004,None,443.46275852400004,None,,,,,,,,,,,,,,,,,,,,,,,,,,,,,,,,,,,,,,,,,,,,001,28,2020_Jan_30_0956,spring_faces,3.2.3,59.918398930022974,
condition files/Stage1_1.xlsx,,B3,T3,c,"['c', 'm']","['Clue', 'Monopoly']","[-0.15, 0.5]","[0.15, 0.5]",1,1,,,,,,,,,0,2,2,2,0,3,3,4,,,,,,,,,,,,,,,,,,,,,,,,,,,,,,,,,,,,,,,,,,,,,,,,,,,,,,,445.42942261800044,None,445.42942261800044,None,445.42942261800044,None,c,1,0.2777914759999476,446.96276512899976,None,446.96276512899976,None,446.96276512899976,None,447.296095229,None,447.296095229,None,447.296095229,None,447.296095229,None,,,,,,,,,,,,,,,,,,,,,,,,,,,,,,,,,,,,,,,,,,,,001,28,2020_Jan_30_0956,spring_faces,3.2.3,59.918398930022974,
condition files/Stage1_1.xlsx,,B2,T1,m,"['c', 'm']","['Clue', 'Monopoly']","[-0.15, 0.5]","[0.15, 0.5]",1,1,,,,,,,,,0,2,2,2,0,4,4,2,,,,,,,,,,,,,,,,,,,,,,,,,,,,,,,,,,,,,,,,,,,,,,,,,,,,,,,449.2794436270001,None,449.2794436270001,None,449.2794436270001,None,m,1,1.9957020619995092,450.8127771989998,None,450.8127771989998,None,450.8127771989998,None,452.8794243970001,None,452.8794243970001,None,452.8794243970001,None,452.8794243970001,None,,,,,,,,,,,,,,,,,,,,,,,,,,,,,,,,,,,,,,,,,,,,001,28,2020_Jan_30_0956,spring_faces,3.2.3,59.918398930022974,
condition files/Stage1_1.xlsx,,T4,B3,m,"['c', 'm']","['Clue', 'Monopoly']","[-0.15, 0.5]","[0.15, 0.5]",1,1,,,,,,,,,0,2,2,2,0,5,5,6,,,,,,,,,,,,,,,,,,,,,,,,,,,,,,,,,,,,,,,,,,,,,,,,,,,,,,,454.84609366999985,None,454.84609366999985,None,454.84609366999985,None,c,0,1.0371761810001772,456.3793711960002,None,456.3793711960002,None,456.3793711960002,None,457.49609380300035,None,457.49609380300035,None,457.49609380300035,None,457.49609380300035,None,,,,,,,,,,,,,,,,,,,,,,,,,,,,,,,,,,,,,,,,,,,,001,28,2020_Jan_30_0956,spring_faces,3.2.3,59.918398930022974,
condition files/Stage1_1.xlsx,,B4,T4,m,"['c', 'm']","['Clue', 'Monopoly']","[-0.15, 0.5]","[0.15, 0.5]",1,1,,,,,,,,,0,2,2,2,0,6,6,7,,,,,,,,,,,,,,,,,,,,,,,,,,,,,,,,,,,,,,,,,,,,,,,,,,,,,,,459.46279328799983,None,459.46279328799983,None,459.46279328799983,None,c,0,0.8204311780000353,460.99609154899963,None,460.99609154899963,None,460.99609154899963,None,461.89612295399957,None,461.89612295399957,None,461.89612295399957,None,461.89612295399957,None,,,,,,,,,,,,,,,,,,,,,,,,,,,,,,,,,,,,,,,,,,,,001,28,2020_Jan_30_0956,spring_faces,3.2.3,59.918398930022974,
condition files/Stage1_1.xlsx,,T1,B1,c,"['c', 'm']","['Clue', 'Monopoly']","[-0.15, 0.5]","[0.15, 0.5]",1,1,,,,,,,,,0,2,2,2,0,7,7,0,,,,,,,,,,,,,,,,,,,,,,,,,,,,,,,,,,,,,,,,,,,,,,,,,,,,,,,463.8628164910001,None,463.8628164910001,None,463.8628164910001,None,m,0,0.8204136710000967,465.39611478300003,None,465.39611478300003,None,465.39611478300003,None,466.29608894500006,None,466.29608894500006,None,466.29608894500006,None,466.29608894500006,None,,,,,,,,,,,,,,,,,,,,,,,,,,,,,,,,,,,,,,,,,,,,001,28,2020_Jan_30_0956,spring_faces,3.2.3,59.918398930022974,
condition files/Stage1_2.xlsx,,B4,T3,c,"['c', 'm']","['Clue', 'Monopoly']","[-0.15, 0.5]","[0.15, 0.5]",1,1,,,,,,,,,0,3,3,3,0,0,0,5,,,,,,,,,,,,,,,,,,,,,,,,,,,,,,,,,,,,,,,,,,,,,,,,,,,,,,,468.2794353260001,None,468.2794353260001,None,468.2794353260001,None,c,1,0.24381470999924204,469.81275736700036,None,469.81275736700036,None,469.81275736700036,None,470.12942159299973,None,470.12942159299973,None,470.12942159299973,None,470.12942159299973,None,,,,,,,,,,,,,,,,,,,,,,,,,,,,,,,,,,,,,,,,,,,,001,28,2020_Jan_30_0956,spring_faces,3.2.3,59.918398930022974,
condition files/Stage1_2.xlsx,,T3,B3,c,"['c', 'm']","['Clue', 'Monopoly']","[-0.15, 0.5]","[0.15, 0.5]",1,1,,,,,,,,,0,3,3,3,0,1,1,4,,,,,,,,,,,,,,,,,,,,,,,,,,,,,,,,,,,,,,,,,,,,,,,,,,,,,,,472.09613734799996,None,472.09613734799996,None,472.09613734799996,None,c,1,0.7790338820004763,473.62942579000037,None,473.62942579000037,None,473.62942579000037,None,474.47945895099974,None,474.47945895099974,None,474.47945895099974,None,474.47945895099974,None,,,,,,,,,,,,,,,,,,,,,,,,,,,,,,,,,,,,,,,,,,,,001,28,2020_Jan_30_0956,spring_faces,3.2.3,59.918398930022974,
condition files/Stage1_2.xlsx,,B3,T4,m,"['c', 'm']","['Clue', 'Monopoly']","[-0.15, 0.5]","[0.15, 0.5]",1,1,,,,,,,,,0,3,3,3,0,2,2,6,,,,,,,,,,,,,,,,,,,,,,,,,,,,,,,,,,,,,,,,,,,,,,,,,,,,,,,476.44607839399987,None,476.44607839399987,None,476.44607839399987,None,m,1,0.6371603739999046,477.9793801310002,None,477.9793801310002,None,477.9793801310002,None,478.69609955700025,None,478.69609955700025,None,478.69609955700025,None,478.69609955700025,None,,,,,,,,,,,,,,,,,,,,,,,,,,,,,,,,,,,,,,,,,,,,001,28,2020_Jan_30_0956,spring_faces,3.2.3,59.918398930022974,
condition files/Stage1_2.xlsx,,B2,T2,m,"['c', 'm']","['Clue', 'Monopoly']","[-0.15, 0.5]","[0.15, 0.5]",1,1,,,,,,,,,0,3,3,3,0,3,3,3,,,,,,,,,,,,,,,,,,,,,,,,,,,,,,,,,,,,,,,,,,,,,,,,,,,,,,,480.6627499729998,None,480.6627499729998,None,480.6627499729998,None,m,1,0.7563376320003954,482.1960958329996,None,482.1960958329996,None,482.1960958329996,None,483.0294665590004,None,483.0294665590004,None,483.0294665590004,None,483.0294665590004,None,,,,,,,,,,,,,,,,,,,,,,,,,,,,,,,,,,,,,,,,,,,,001,28,2020_Jan_30_0956,spring_faces,3.2.3,59.918398930022974,
condition files/Stage1_2.xlsx,,T4,B4,m,"['c', 'm']","['Clue', 'Monopoly']","[-0.15, 0.5]","[0.15, 0.5]",1,1,,,,,,,,,0,3,3,3,0,4,4,7,,,,,,,,,,,,,,,,,,,,,,,,,,,,,,,,,,,,,,,,,,,,,,,,,,,,,,,484.9961060239998,None,484.9961060239998,None,484.9961060239998,None,m,1,0.6631494129997009,486.5294469579999,None,486.5294469579999,None,486.5294469579999,None,487.24609869200003,None,487.24609869200003,None,487.24609869200003,None,487.24609869200003,None,,,,,,,,,,,,,,,,,,,,,,,,,,,,,,,,,,,,,,,,,,,,001,28,2020_Jan_30_0956,spring_faces,3.2.3,59.918398930022974,
condition files/Stage1_2.xlsx,,B1,T1,c,"['c', 'm']","['Clue', 'Monopoly']","[-0.15, 0.5]","[0.15, 0.5]",1,1,,,,,,,,,0,3,3,3,0,5,5,0,,,,,,,,,,,,,,,,,,,,,,,,,,,,,,,,,,,,,,,,,,,,,,,,,,,,,,,489.2294768329998,None,489.2294768329998,None,489.2294768329998,None,m,0,0.6058074640004634,490.7627361179998,None,490.7627361179998,None,490.7627361179998,None,491.4461212199999,None,491.4461212199999,None,491.4461212199999,None,491.4461212199999,None,,,,,,,,,,,,,,,,,,,,,,,,,,,,,,,,,,,,,,,,,,,,001,28,2020_Jan_30_0956,spring_faces,3.2.3,59.918398930022974,
condition files/Stage1_2.xlsx,,T2,B1,c,"['c', 'm']","['Clue', 'Monopoly']","[-0.15, 0.5]","[0.15, 0.5]",1,1,,,,,,,,,0,3,3,3,0,6,6,1,,,,,,,,,,,,,,,,,,,,,,,,,,,,,,,,,,,,,,,,,,,,,,,,,,,,,,,493.4127781510001,None,493.4127781510001,None,493.4127781510001,None,m,0,0.66235124800005,494.9461216779996,None,494.9461216779996,None,494.9461216779996,None,495.67944579299956,None,495.67944579299956,None,495.67944579299956,None,495.67944579299956,None,,,,,,,,,,,,,,,,,,,,,,,,,,,,,,,,,,,,,,,,,,,,001,28,2020_Jan_30_0956,spring_faces,3.2.3,59.918398930022974,
condition files/Stage1_2.xlsx,,T1,B2,m,"['c', 'm']","['Clue', 'Monopoly']","[-0.15, 0.5]","[0.15, 0.5]",1,1,,,,,,,,,0,3,3,3,0,7,7,2,,,,,,,,,,,,,,,,,,,,,,,,,,,,,,,,,,,,,,,,,,,,,,,,,,,,,,,497.6460811949996,None,497.6460811949996,None,497.6460811949996,None,m,1,1.8051044829999228,499.1794234289996,None,499.1794234289996,None,499.1794234289996,None,501.0627632459996,None,501.0627632459996,None,501.0627632459996,None,501.0627632459996,None,,,,,,,,,,,,,,,,,,,,,,,,,,,,,,,,,,,,,,,,,,,,001,28,2020_Jan_30_0956,spring_faces,3.2.3,59.918398930022974,
condition files/Stage1_1.xlsx,,T3,B4,c,"['c', 'm']","['Clue', 'Monopoly']","[-0.15, 0.5]","[0.15, 0.5]",1,1,,,,,,,,,0,4,4,4,0,0,0,5,,,,,,,,,,,,,,,,,,,,,,,,,,,,,,,,,,,,,,,,,,,,,,,,,,,,,,,503.04610452600036,None,503.04610452600036,None,503.04610452600036,None,c,1,0.693145258000186,504.57943160900004,None,504.57943160900004,None,504.57943160900004,None,505.3461155099999,None,505.3461155099999,None,505.3461155099999,None,505.3461155099999,None,,,,,,,,,,,,,,,,,,,,,,,,,,,,,,,,,,,,,,,,,,,,001,28,2020_Jan_30_0956,spring_faces,3.2.3,59.918398930022974,
condition files/Stage1_1.xlsx,,T4,B3,m,"['c', 'm']","['Clue', 'Monopoly']","[-0.15, 0.5]","[0.15, 0.5]",1,1,,,,,,,,,0,4,4,4,0,1,1,6,,,,,,,,,,,,,,,,,,,,,,,,,,,,,,,,,,,,,,,,,,,,,,,,,,,,,,,507.31281389199967,None,507.31281389199967,None,507.31281389199967,None,m,1,0.8106350289999682,508.84595115300044,None,508.84595115300044,None,508.84595115300044,None,509.7294974199999,None,509.7294974199999,None,509.7294974199999,None,509.7294974199999,None,,,,,,,,,,,,,,,,,,,,,,,,,,,,,,,,,,,,,,,,,,,,001,28,2020_Jan_30_0956,spring_faces,3.2.3,59.918398930022974,
condition files/Stage1_1.xlsx,,B4,T4,m,"['c', 'm']","['Clue', 'Monopoly']","[-0.15, 0.5]","[0.15, 0.5]",1,1,,,,,,,,,0,4,4,4,0,2,2,7,,,,,,,,,,,,,,,,,,,,,,,,,,,,,,,,,,,,,,,,,,,,,,,,,,,,,,,511.69614498799956,None,511.69614498799956,None,511.69614498799956,None,m,1,0.7151998989993444,513.2294336150003,None,513.2294336150003,None,513.2294336150003,None,513.9960547579999,None,513.9960547579999,None,513.9960547579999,None,513.9960547579999,None,,,,,,,,,,,,,,,,,,,,,,,,,,,,,,,,,,,,,,,,,,,,001,28,2020_Jan_30_0956,spring_faces,3.2.3,59.918398930022974,
condition files/Stage1_1.xlsx,,B1,T2,c,"['c', 'm']","['Clue', 'Monopoly']","[-0.15, 0.5]","[0.15, 0.5]",1,1,,,,,,,,,0,4,4,4,0,3,3,1,,,,,,,,,,,,,,,,,,,,,,,,,,,,,,,,,,,,,,,,,,,,,,,,,,,,,,,515.9793571770001,None,515.9793571770001,None,515.9793571770001,None,c,1,1.1517109799997343,517.5127559750003,None,517.5127559750003,None,517.5127559750003,None,518.746062838,None,518.746062838,None,518.746062838,None,518.746062838,None,,,,,,,,,,,,,,,,,,,,,,,,,,,,,,,,,,,,,,,,,,,,001,28,2020_Jan_30_0956,spring_faces,3.2.3,59.918398930022974,
condition files/Stage1_1.xlsx,,T2,B2,m,"['c', 'm']","['Clue', 'Monopoly']","[-0.15, 0.5]","[0.15, 0.5]",1,1,,,,,,,,,0,4,4,4,0,4,4,3,,,,,,,,,,,,,,,,,,,,,,,,,,,,,,,,,,,,,,,,,,,,,,,,,,,,,,,520.7128348740002,None,520.7128348740002,None,520.7128348740002,None,m,1,2.258447841999441,522.2461130269999,None,522.2461130269999,None,522.2461130269999,None,524.5794559540004,None,524.5794559540004,None,524.5794559540004,None,524.5794559540004,None,,,,,,,,,,,,,,,,,,,,,,,,,,,,,,,,,,,,,,,,,,,,001,28,2020_Jan_30_0956,spring_faces,3.2.3,59.918398930022974,
condition files/Stage1_1.xlsx,,T1,B1,c,"['c', 'm']","['Clue', 'Monopoly']","[-0.15, 0.5]","[0.15, 0.5]",1,1,,,,,,,,,0,4,4,4,0,5,5,0,,,,,,,,,,,,,,,,,,,,,,,,,,,,,,,,,,,,,,,,,,,,,,,,,,,,,,,526.5461368190004,None,526.5461368190004,None,526.5461368190004,None,c,1,1.7690489910000906,528.0794562449996,None,528.0794562449996,None,528.0794562449996,None,529.9294364129996,None,529.9294364129996,None,529.9294364129996,None,529.9294364129996,None,,,,,,,,,,,,,,,,,,,,,,,,,,,,,,,,,,,,,,,,,,,,001,28,2020_Jan_30_0956,spring_faces,3.2.3,59.918398930022974,
condition files/Stage1_1.xlsx,,B3,T3,c,"['c', 'm']","['Clue', 'Monopoly']","[-0.15, 0.5]","[0.15, 0.5]",1,1,,,,,,,,,0,4,4,4,0,6,6,4,,,,,,,,,,,,,,,,,,,,,,,,,,,,,,,,,,,,,,,,,,,,,,,,,,,,,,,531.8961129719996,None,531.8961129719996,None,531.8961129719996,None,c,1,1.6190938629997618,533.4294212420004,None,533.4294212420004,None,533.4294212420004,None,535.112838734,None,535.112838734,None,535.112838734,None,535.112838734,None,,,,,,,,,,,,,,,,,,,,,,,,,,,,,,,,,,,,,,,,,,,,001,28,2020_Jan_30_0956,spring_faces,3.2.3,59.918398930022974,
condition files/Stage1_1.xlsx,,B2,T1,m,"['c', 'm']","['Clue', 'Monopoly']","[-0.15, 0.5]","[0.15, 0.5]",1,1,,,,,,,,,0,4,4,4,0,7,7,2,,,,,,,,,,,,,,,,,,,,,,,,,,,,,,,,,,,,,,,,,,,,,,,,,,,,,,,537.0961164089999,None,537.0961164089999,None,537.0961164089999,None,c,0,2.2591398309996293,538.6294279299996,None,538.6294279299996,None,538.6294279299996,None,540.9627875589999,None,540.9627875589999,None,540.9627875589999,None,540.9627875589999,None,,,,,,,,,,,,,,,,,,,,,,,,,,,,,,,,,,,,,,,,,,,,001,28,2020_Jan_30_0956,spring_faces,3.2.3,59.918398930022974,
condition files/Stage1_2.xlsx,,B4,T3,c,"['c', 'm']","['Clue', 'Monopoly']","[-0.15, 0.5]","[0.15, 0.5]",1,1,,,,,,,,,0,5,5,5,0,0,0,5,,,,,,,,,,,,,,,,,,,,,,,,,,,,,,,,,,,,,,,,,,,,,,,,,,,,,,,542.9461073999996,None,542.9461073999996,None,542.9461073999996,None,c,1,0.7131593839994821,544.479448732,None,544.479448732,None,544.479448732,None,545.2627806790001,None,545.2627806790001,None,545.2627806790001,None,545.2627806790001,None,,,,,,,,,,,,,,,,,,,,,,,,,,,,,,,,,,,,,,,,,,,,001,28,2020_Jan_30_0956,spring_faces,3.2.3,59.918398930022974,
condition files/Stage1_2.xlsx,,T4,B4,m,"['c', 'm']","['Clue', 'Monopoly']","[-0.15, 0.5]","[0.15, 0.5]",1,1,,,,,,,,,0,5,5,5,0,1,1,7,,,,,,,,,,,,,,,,,,,,,,,,,,,,,,,,,,,,,,,,,,,,,,,,,,,,,,,547.2294332200004,None,547.2294332200004,None,547.2294332200004,None,m,1,1.677833314000054,548.7627378029997,None,548.7627378029997,None,548.7627378029997,None,550.5128035590001,None,550.5128035590001,None,550.5128035590001,None,550.5128035590001,None,,,,,,,,,,,,,,,,,,,,,,,,,,,,,,,,,,,,,,,,,,,,001,28,2020_Jan_30_0956,spring_faces,3.2.3,59.918398930022974,
condition files/Stage1_2.xlsx,,T2,B1,c,"['c', 'm']","['Clue', 'Monopoly']","[-0.15, 0.5]","[0.15, 0.5]",1,1,,,,,,,,,0,5,5,5,0,2,2,1,,,,,,,,,,,,,,,,,,,,,,,,,,,,,,,,,,,,,,,,,,,,,,,,,,,,,,,552.479463446,None,552.479463446,None,552.479463446,None,c,1,0.8917671070003053,554.0127872449998,None,554.0127872449998,None,554.0127872449998,None,554.9794297100002,None,554.9794297100002,None,554.9794297100002,None,554.9794297100002,None,,,,,,,,,,,,,,,,,,,,,,,,,,,,,,,,,,,,,,,,,,,,001,28,2020_Jan_30_0956,spring_faces,3.2.3,59.918398930022974,
condition files/Stage1_2.xlsx,,B3,T4,m,"['c', 'm']","['Clue', 'Monopoly']","[-0.15, 0.5]","[0.15, 0.5]",1,1,,,,,,,,,0,5,5,5,0,3,3,6,,,,,,,,,,,,,,,,,,,,,,,,,,,,,,,,,,,,,,,,,,,,,,,,,,,,,,,556.9461184839997,None,556.9461184839997,None,556.9461184839997,None,m,1,1.5771281279994582,558.4794335869997,None,558.4794335869997,None,558.4794335869997,None,560.1294457549998,None,560.1294457549998,None,560.1294457549998,None,560.1294457549998,None,,,,,,,,,,,,,,,,,,,,,,,,,,,,,,,,,,,,,,,,,,,,001,28,2020_Jan_30_0956,spring_faces,3.2.3,59.918398930022974,
condition files/Stage1_2.xlsx,,T1,B2,m,"['c', 'm']","['Clue', 'Monopoly']","[-0.15, 0.5]","[0.15, 0.5]",1,1,,,,,,,,,0,5,5,5,0,4,4,2,,,,,,,,,,,,,,,,,,,,,,,,,,,,,,,,,,,,,,,,,,,,,,,,,,,,,,,562.0960846290004,None,562.0960846290004,None,562.0960846290004,None,c,0,0.859151696000481,563.6294146120003,None,563.6294146120003,None,563.6294146120003,None,564.546105158,None,564.546105158,None,564.546105158,None,564.546105158,None,,,,,,,,,,,,,,,,,,,,,,,,,,,,,,,,,,,,,,,,,,,,001,28,2020_Jan_30_0956,spring_faces,3.2.3,59.918398930022974,
condition files/Stage1_2.xlsx,,B1,T1,c,"['c', 'm']","['Clue', 'Monopoly']","[-0.15, 0.5]","[0.15, 0.5]",1,1,,,,,,,,,0,5,5,5,0,5,5,0,,,,,,,,,,,,,,,,,,,,,,,,,,,,,,,,,,,,,,,,,,,,,,,,,,,,,,,566.5294251660002,None,566.5294251660002,None,566.5294251660002,None,c,1,1.8017184739992445,568.0627570029997,None,568.0627570029997,None,568.0627570029997,None,569.9459409440001,None,569.9459409440001,None,569.9459409440001,None,569.9459409440001,None,,,,,,,,,,,,,,,,,,,,,,,,,,,,,,,,,,,,,,,,,,,,001,28,2020_Jan_30_0956,spring_faces,3.2.3,59.918398930022974,
condition files/Stage1_2.xlsx,,B2,T2,m,"['c', 'm']","['Clue', 'Monopoly']","[-0.15, 0.5]","[0.15, 0.5]",1,1,,,,,,,,,0,5,5,5,0,6,6,3,,,,,,,,,,,,,,,,,,,,,,,,,,,,,,,,,,,,,,,,,,,,,,,,,,,,,,,571.912681192,None,571.912681192,None,571.912681192,None,m,1,1.7145245379997505,573.4460967339996,None,573.4460967339996,None,573.4460967339996,None,575.2294285330004,None,575.2294285330004,None,575.2294285330004,None,575.2294285330004,None,,,,,,,,,,,,,,,,,,,,,,,,,,,,,,,,,,,,,,,,,,,,001,28,2020_Jan_30_0956,spring_faces,3.2.3,59.918398930022974,
condition files/Stage1_2.xlsx,,T3,B3,c,"['c', 'm']","['Clue', 'Monopoly']","[-0.15, 0.5]","[0.15, 0.5]",1,1,,,,,,,,,0,5,5,5,0,7,7,4,,,,,,,,,,,,,,,,,,,,,,,,,,,,,,,,,,,,,,,,,,,,,,,,,,,,,,,577.1960060850001,None,577.1960060850001,None,577.1960060850001,None,c,1,0.7031604480007445,578.7293853289998,None,578.7293853289998,None,578.7293853289998,None,579.5127477390001,None,579.5127477390001,None,579.5127477390001,None,579.5127477390001,None,,,,,,,,,,,,,,,,,,,,,,,,,,,,,,,,,,,,,,,,,,,,001,28,2020_Jan_30_0956,spring_faces,3.2.3,59.918398930022974,
condition files/Stage1_1.xlsx,,B2,T1,m,"['c', 'm']","['Clue', 'Monopoly']","[-0.15, 0.5]","[0.15, 0.5]",1,1,,,,,,,,,0,6,6,6,0,0,0,2,,,,,,,,,,,,,,,,,,,,,,,,,,,,,,,,,,,,,,,,,,,,,,,,,,,,,,,581.4960973169996,None,581.4960973169996,None,581.4960973169996,None,c,0,0.995120376000159,583.0294389469996,None,583.0294389469996,None,583.0294389469996,None,584.0961177570002,None,584.0961177570002,None,584.0961177570002,None,584.0961177570002,None,,,,,,,,,,,,,,,,,,,,,,,,,,,,,,,,,,,,,,,,,,,,001,28,2020_Jan_30_0956,spring_faces,3.2.3,59.918398930022974,
condition files/Stage1_1.xlsx,,T2,B2,m,"['c', 'm']","['Clue', 'Monopoly']","[-0.15, 0.5]","[0.15, 0.5]",1,1,,,,,,,,,0,6,6,6,0,1,1,3,,,,,,,,,,,,,,,,,,,,,,,,,,,,,,,,,,,,,,,,,,,,,,,,,,,,,,,586.0628143380004,None,586.0628143380004,None,586.0628143380004,None,m,1,2.5245256689995585,587.5960533749999,None,587.5960533749999,None,587.5960533749999,None,590.1793210500005,None,590.1793210500005,None,590.1793210500005,None,590.1793210500005,None,,,,,,,,,,,,,,,,,,,,,,,,,,,,,,,,,,,,,,,,,,,,001,28,2020_Jan_30_0956,spring_faces,3.2.3,59.918398930022974,
condition files/Stage1_1.xlsx,,T4,B3,m,"['c', 'm']","['Clue', 'Monopoly']","[-0.15, 0.5]","[0.15, 0.5]",1,1,,,,,,,,,0,6,6,6,0,2,2,6,,,,,,,,,,,,,,,,,,,,,,,,,,,,,,,,,,,,,,,,,,,,,,,,,,,,,,,592.1628142180002,None,592.1628142180002,None,592.1628142180002,None,m,1,0.968336982999972,593.696128348,None,593.696128348,None,593.696128348,None,594.7293959330004,None,594.7293959330004,None,594.7293959330004,None,594.7293959330004,None,,,,,,,,,,,,,,,,,,,,,,,,,,,,,,,,,,,,,,,,,,,,001,28,2020_Jan_30_0956,spring_faces,3.2.3,59.918398930022974,
condition files/Stage1_1.xlsx,,B1,T2,c,"['c', 'm']","['Clue', 'Monopoly']","[-0.15, 0.5]","[0.15, 0.5]",1,1,,,,,,,,,0,6,6,6,0,3,3,1,,,,,,,,,,,,,,,,,,,,,,,,,,,,,,,,,,,,,,,,,,,,,,,,,,,,,,,596.7127384560004,None,596.7127384560004,None,596.7127384560004,None,c,1,0.8024094059992422,598.2460954419998,None,598.2460954419998,None,598.2460954419998,None,599.1293773379998,None,599.1293773379998,None,599.1293773379998,None,599.1293773379998,None,,,,,,,,,,,,,,,,,,,,,,,,,,,,,,,,,,,,,,,,,,,,001,28,2020_Jan_30_0956,spring_faces,3.2.3,59.918398930022974,
condition files/Stage1_1.xlsx,,B4,T4,m,"['c', 'm']","['Clue', 'Monopoly']","[-0.15, 0.5]","[0.15, 0.5]",1,1,,,,,,,,,0,6,6,6,0,4,4,7,,,,,,,,,,,,,,,,,,,,,,,,,,,,,,,,,,,,,,,,,,,,,,,,,,,,,,,601.0961211090003,None,601.0961211090003,None,601.0961211090003,None,m,1,0.835042360999978,602.6294323329998,None,602.6294323329998,None,602.6294323329998,None,603.5460394910001,None,603.5460394910001,None,603.5460394910001,None,603.5460394910001,None,,,,,,,,,,,,,,,,,,,,,,,,,,,,,,,,,,,,,,,,,,,,001,28,2020_Jan_30_0956,spring_faces,3.2.3,59.918398930022974,
condition files/Stage1_1.xlsx,,T3,B4,c,"['c', 'm']","['Clue', 'Monopoly']","[-0.15, 0.5]","[0.15, 0.5]",1,1,,,,,,,,,0,6,6,6,0,5,5,5,,,,,,,,,,,,,,,,,,,,,,,,,,,,,,,,,,,,,,,,,,,,,,,,,,,,,,,605.5127723580003,None,605.5127723580003,None,605.5127723580003,None,c,1,0.7384382259997437,607.0460906559997,None,607.0460906559997,None,607.0460906559997,None,607.8627837529998,None,607.8627837529998,None,607.8627837529998,None,607.8627837529998,None,,,,,,,,,,,,,,,,,,,,,,,,,,,,,,,,,,,,,,,,,,,,001,28,2020_Jan_30_0956,spring_faces,3.2.3,59.918398930022974,
condition files/Stage1_1.xlsx,,T1,B1,c,"['c', 'm']","['Clue', 'Monopoly']","[-0.15, 0.5]","[0.15, 0.5]",1,1,,,,,,,,,0,6,6,6,0,6,6,0,,,,,,,,,,,,,,,,,,,,,,,,,,,,,,,,,,,,,,,,,,,,,,,,,,,,,,,609.8294224320002,None,609.8294224320002,None,609.8294224320002,None,c,1,2.4377850959999705,611.36274706,None,611.36274706,None,611.36274706,None,613.8794365569997,None,613.8794365569997,None,613.8794365569997,None,613.8794365569997,None,,,,,,,,,,,,,,,,,,,,,,,,,,,,,,,,,,,,,,,,,,,,001,28,2020_Jan_30_0956,spring_faces,3.2.3,59.918398930022974,
condition files/Stage1_1.xlsx,,B3,T3,c,"['c', 'm']","['Clue', 'Monopoly']","[-0.15, 0.5]","[0.15, 0.5]",1,1,,,,,,,,,0,6,6,6,0,7,7,4,,,,,,,,,,,,,,,,,,,,,,,,,,,,,,,,,,,,,,,,,,,,,,,,,,,,,,,615.846084104,None,615.846084104,None,615.846084104,None,c,1,1.2530573049998566,617.3794823849998,None,617.3794823849998,None,617.3794823849998,None,618.7127939460001,None,618.7127939460001,None,618.7127939460001,None,618.7127939460001,None,,,,,,,,,,,,,,,,,,,,,,,,,,,,,,,,,,,,,,,,,,,,001,28,2020_Jan_30_0956,spring_faces,3.2.3,59.918398930022974,
condition files/Stage1_2.xlsx,,T4,B4,m,"['c', 'm']","['Clue', 'Monopoly']","[-0.15, 0.5]","[0.15, 0.5]",1,1,,,,,,,,,0,7,7,7,0,0,0,7,,,,,,,,,,,,,,,,,,,,,,,,,,,,,,,,,,,,,,,,,,,,,,,,,,,,,,,620.6961178220004,None,620.6961178220004,None,620.6961178220004,None,m,1,0.9151428420000229,622.2295129199997,None,622.2295129199997,None,622.2295129199997,None,623.2127932839999,None,623.2127932839999,None,623.2127932839999,None,623.2127932839999,None,,,,,,,,,,,,,,,,,,,,,,,,,,,,,,,,,,,,,,,,,,,,001,28,2020_Jan_30_0956,spring_faces,3.2.3,59.918398930022974,
condition files/Stage1_2.xlsx,,T2,B1,c,"['c', 'm']","['Clue', 'Monopoly']","[-0.15, 0.5]","[0.15, 0.5]",1,1,,,,,,,,,0,7,7,7,0,1,1,1,,,,,,,,,,,,,,,,,,,,,,,,,,,,,,,,,,,,,,,,,,,,,,,,,,,,,,,625.1793636360003,None,625.1793636360003,None,625.1793636360003,None,c,1,1.6318230159995437,626.7128130759997,None,626.7128130759997,None,626.7128130759997,None,628.4127635899999,None,628.4127635899999,None,628.4127635899999,None,628.4127635899999,None,,,,,,,,,,,,,,,,,,,,,,,,,,,,,,,,,,,,,,,,,,,,001,28,2020_Jan_30_0956,spring_faces,3.2.3,59.918398930022974,
condition files/Stage1_2.xlsx,,B2,T2,m,"['c', 'm']","['Clue', 'Monopoly']","[-0.15, 0.5]","[0.15, 0.5]",1,1,,,,,,,,,0,7,7,7,0,2,2,3,,,,,,,,,,,,,,,,,,,,,,,,,,,,,,,,,,,,,,,,,,,,,,,,,,,,,,,630.3793614009996,None,630.3793614009996,None,630.3793614009996,None,m,1,3.7597209439991275,631.9128240109999,None,631.9128240109999,None,631.9128240109999,None,635.7461225020002,None,635.7461225020002,None,635.7461225020002,None,635.7461225020002,None,,,,,,,,,,,,,,,,,,,,,,,,,,,,,,,,,,,,,,,,,,,,001,28,2020_Jan_30_0956,spring_faces,3.2.3,59.918398930022974,
condition files/Stage1_2.xlsx,,B3,T4,m,"['c', 'm']","['Clue', 'Monopoly']","[-0.15, 0.5]","[0.15, 0.5]",1,1,,,,,,,,,0,7,7,7,0,3,3,6,,,,,,,,,,,,,,,,,,,,,,,,,,,,,,,,,,,,,,,,,,,,,,,,,,,,,,,637.7127882010004,None,637.7127882010004,None,637.7127882010004,None,m,1,1.450369815999693,639.246112286,None,639.246112286,None,639.246112286,None,640.7794470470003,None,640.7794470470003,None,640.7794470470003,None,640.7794470470003,None,,,,,,,,,,,,,,,,,,,,,,,,,,,,,,,,,,,,,,,,,,,,001,28,2020_Jan_30_0956,spring_faces,3.2.3,59.918398930022974,
condition files/Stage1_2.xlsx,,T3,B3,c,"['c', 'm']","['Clue', 'Monopoly']","[-0.15, 0.5]","[0.15, 0.5]",1,1,,,,,,,,,0,7,7,7,0,4,4,4,,,,,,,,,,,,,,,,,,,,,,,,,,,,,,,,,,,,,,,,,,,,,,,,,,,,,,,642.7461252830003,None,642.7461252830003,None,642.7461252830003,None,c,1,0.609128660999886,644.2794316820004,None,644.2794316820004,None,644.2794316820004,None,644.9627617199999,None,644.9627617199999,None,644.9627617199999,None,644.9627617199999,None,,,,,,,,,,,,,,,,,,,,,,,,,,,,,,,,,,,,,,,,,,,,001,28,2020_Jan_30_0956,spring_faces,3.2.3,59.918398930022974,
condition files/Stage1_2.xlsx,,B1,T1,c,"['c', 'm']","['Clue', 'Monopoly']","[-0.15, 0.5]","[0.15, 0.5]",1,1,,,,,,,,,0,7,7,7,0,5,5,0,,,,,,,,,,,,,,,,,,,,,,,,,,,,,,,,,,,,,,,,,,,,,,,,,,,,,,,646.9294470039999,None,646.9294470039999,None,646.9294470039999,None,c,1,2.905773371999203,648.4627570589996,None,648.4627570589996,None,648.4627570589996,None,651.4294279620003,None,651.4294279620003,None,651.4294279620003,None,651.4294279620003,None,,,,,,,,,,,,,,,,,,,,,,,,,,,,,,,,,,,,,,,,,,,,001,28,2020_Jan_30_0956,spring_faces,3.2.3,59.918398930022974,
condition files/Stage1_2.xlsx,,T1,B2,m,"['c', 'm']","['Clue', 'Monopoly']","[-0.15, 0.5]","[0.15, 0.5]",1,1,,,,,,,,,0,7,7,7,0,6,6,2,,,,,,,,,,,,,,,,,,,,,,,,,,,,,,,,,,,,,,,,,,,,,,,,,,,,,,,653.4126700049997,None,653.4126700049997,None,653.4126700049997,None,m,1,0.8863213100003122,654.9461219259997,None,654.9461219259997,None,654.9461219259997,None,655.9128378290002,None,655.9128378290002,None,655.9128378290002,None,655.9128378290002,None,,,,,,,,,,,,,,,,,,,,,,,,,,,,,,,,,,,,,,,,,,,,001,28,2020_Jan_30_0956,spring_faces,3.2.3,59.918398930022974,
condition files/Stage1_2.xlsx,,B4,T3,c,"['c', 'm']","['Clue', 'Monopoly']","[-0.15, 0.5]","[0.15, 0.5]",1,1,,,,,,,,,0,7,7,7,0,7,7,5,,,,,,,,,,,,,,,,,,,,,,,,,,,,,,,,,,,,,,,,,,,,,,,,,,,,,,,657.8794569830002,None,657.8794569830002,None,657.8794569830002,None,c,1,1.2517018279995682,659.4127644980003,None,659.4127644980003,None,659.4127644980003,None,660.746124879,None,660.746124879,None,660.746124879,None,660.746124879,None,,,,,,,,,,,,,,,,,,,,,,,,,,,,,,,,,,,,,,,,,,,,001,28,2020_Jan_30_0956,spring_faces,3.2.3,59.918398930022974,
condition files/Stage1_1.xlsx,,B3,T3,c,"['c', 'm']","['Clue', 'Monopoly']","[-0.15, 0.5]","[0.15, 0.5]",1,1,,,,,,,,,0,8,8,8,0,0,0,4,,,,,,,,,,,,,,,,,,,,,,,,,,,,,,,,,,,,,,,,,,,,,,,,,,,,,,,662.7292795990002,None,662.7292795990002,None,662.7292795990002,None,c,1,0.7537662240001737,664.262785501,None,664.262785501,None,664.262785501,None,665.0960838530004,None,665.0960838530004,None,665.0960838530004,None,665.0960838530004,None,,,,,,,,,,,,,,,,,,,,,,,,,,,,,,,,,,,,,,,,,,,,001,28,2020_Jan_30_0956,spring_faces,3.2.3,59.918398930022974,
condition files/Stage1_1.xlsx,,B4,T4,m,"['c', 'm']","['Clue', 'Monopoly']","[-0.15, 0.5]","[0.15, 0.5]",1,1,,,,,,,,,0,8,8,8,0,1,1,7,,,,,,,,,,,,,,,,,,,,,,,,,,,,,,,,,,,,,,,,,,,,,,,,,,,,,,,667.0627583669998,None,667.0627583669998,None,667.0627583669998,None,m,1,1.3158718079994287,668.6127666179996,None,668.6127666179996,None,668.6127666179996,None,669.9960997619996,None,669.9960997619996,None,669.9960997619996,None,669.9960997619996,None,,,,,,,,,,,,,,,,,,,,,,,,,,,,,,,,,,,,,,,,,,,,001,28,2020_Jan_30_0956,spring_faces,3.2.3,59.918398930022974,
condition files/Stage1_1.xlsx,,B1,T2,c,"['c', 'm']","['Clue', 'Monopoly']","[-0.15, 0.5]","[0.15, 0.5]",1,1,,,,,,,,,0,8,8,8,0,2,2,1,,,,,,,,,,,,,,,,,,,,,,,,,,,,,,,,,,,,,,,,,,,,,,,,,,,,,,,671.9626914129999,None,671.9626914129999,None,671.9626914129999,None,c,1,2.240464376000091,673.4960957730004,None,673.4960957730004,None,673.4960957730004,None,675.8127615520002,None,675.8127615520002,None,675.8127615520002,None,675.8127615520002,None,,,,,,,,,,,,,,,,,,,,,,,,,,,,,,,,,,,,,,,,,,,,001,28,2020_Jan_30_0956,spring_faces,3.2.3,59.918398930022974,
condition files/Stage1_1.xlsx,,T3,B4,c,"['c', 'm']","['Clue', 'Monopoly']","[-0.15, 0.5]","[0.15, 0.5]",1,1,,,,,,,,,0,8,8,8,0,3,3,5,,,,,,,,,,,,,,,,,,,,,,,,,,,,,,,,,,,,,,,,,,,,,,,,,,,,,,,677.7794136019997,None,677.7794136019997,None,677.7794136019997,None,c,1,0.8237917730002664,679.3127932279999,None,679.3127932279999,None,679.3127932279999,None,680.2119860739999,None,680.2119860739999,None,680.2119860739999,None,680.2119860739999,None,,,,,,,,,,,,,,,,,,,,,,,,,,,,,,,,,,,,,,,,,,,,001,28,2020_Jan_30_0956,spring_faces,3.2.3,59.918398930022974,
condition files/Stage1_1.xlsx,,T2,B2,m,"['c', 'm']","['Clue', 'Monopoly']","[-0.15, 0.5]","[0.15, 0.5]",1,1,,,,,,,,,0,8,8,8,0,4,4,3,,,,,,,,,,,,,,,,,,,,,,,,,,,,,,,,,,,,,,,,,,,,,,,,,,,,,,,682.1794466550004,None,682.1794466550004,None,682.1794466550004,None,m,1,1.383692905999851,683.7127810449997,None,683.7127810449997,None,683.7127810449997,None,685.1794316250002,None,685.1794316250002,None,685.1794316250002,None,685.1794316250002,None,,,,,,,,,,,,,,,,,,,,,,,,,,,,,,,,,,,,,,,,,,,,001,28,2020_Jan_30_0956,spring_faces,3.2.3,59.918398930022974,
condition files/Stage1_1.xlsx,,B2,T1,m,"['c', 'm']","['Clue', 'Monopoly']","[-0.15, 0.5]","[0.15, 0.5]",1,1,,,,,,,,,0,8,8,8,0,5,5,2,,,,,,,,,,,,,,,,,,,,,,,,,,,,,,,,,,,,,,,,,,,,,,,,,,,,,,,687.1460267509997,None,687.1460267509997,None,687.1460267509997,None,m,1,3.105100355000104,688.6794333980001,None,688.6794333980001,None,688.6794333980001,None,691.8461015280004,None,691.8461015280004,None,691.8461015280004,None,691.8461015280004,None,,,,,,,,,,,,,,,,,,,,,,,,,,,,,,,,,,,,,,,,,,,,001,28,2020_Jan_30_0956,spring_faces,3.2.3,59.918398930022974,
condition files/Stage1_1.xlsx,,T4,B3,m,"['c', 'm']","['Clue', 'Monopoly']","[-0.15, 0.5]","[0.15, 0.5]",1,1,,,,,,,,,0,8,8,8,0,6,6,6,,,,,,,,,,,,,,,,,,,,,,,,,,,,,,,,,,,,,,,,,,,,,,,,,,,,,,,693.8294466599996,None,693.8294466599996,None,693.8294466599996,None,m,1,1.173762866999823,695.3627824660002,None,695.3627824660002,None,695.3627824660002,None,696.5961238309997,None,696.5961238309997,None,696.5961238309997,None,696.5961238309997,None,,,,,,,,,,,,,,,,,,,,,,,,,,,,,,,,,,,,,,,,,,,,001,28,2020_Jan_30_0956,spring_faces,3.2.3,59.918398930022974,
condition files/Stage1_1.xlsx,,T1,B1,c,"['c', 'm']","['Clue', 'Monopoly']","[-0.15, 0.5]","[0.15, 0.5]",1,1,,,,,,,,,0,8,8,8,0,7,7,0,,,,,,,,,,,,,,,,,,,,,,,,,,,,,,,,,,,,,,,,,,,,,,,,,,,,,,,698.5794367200001,None,698.5794367200001,None,698.5794367200001,None,c,1,1.3997978719999082,700.1127826630004,None,700.1127826630004,None,700.1127826630004,None,701.579396994,None,701.579396994,None,701.579396994,None,701.579396994,None,,,,,,,,,,,,,,,,,,,,,,,,,,,,,,,,,,,,,,,,,,,,001,28,2020_Jan_30_0956,spring_faces,3.2.3,59.918398930022974,
condition files/Stage1_2.xlsx,,T2,B1,c,"['c', 'm']","['Clue', 'Monopoly']","[-0.15, 0.5]","[0.15, 0.5]",1,1,,,,,,,,,0,9,9,9,0,0,0,1,,,,,,,,,,,,,,,,,,,,,,,,,,,,,,,,,,,,,,,,,,,,,,,,,,,,,,,703.5627045280003,None,703.5627045280003,None,703.5627045280003,None,m,0,2.848532415999216,705.0961180270001,None,705.0961180270001,None,705.0961180270001,None,707.99611779,None,707.99611779,None,707.99611779,None,707.99611779,None,,,,,,,,,,,,,,,,,,,,,,,,,,,,,,,,,,,,,,,,,,,,001,28,2020_Jan_30_0956,spring_faces,3.2.3,59.918398930022974,
condition files/Stage1_2.xlsx,,T1,B2,m,"['c', 'm']","['Clue', 'Monopoly']","[-0.15, 0.5]","[0.15, 0.5]",1,1,,,,,,,,,0,9,9,9,0,1,1,2,,,,,,,,,,,,,,,,,,,,,,,,,,,,,,,,,,,,,,,,,,,,,,,,,,,,,,,709.9793688069999,None,709.9793688069999,None,709.9793688069999,None,c,0,0.6877558739997767,711.5127460320005,None,711.5127460320005,None,711.5127460320005,None,712.2794057140004,None,712.2794057140004,None,712.2794057140004,None,712.2794057140004,None,,,,,,,,,,,,,,,,,,,,,,,,,,,,,,,,,,,,,,,,,,,,001,28,2020_Jan_30_0956,spring_faces,3.2.3,59.918398930022974,
condition files/Stage1_2.xlsx,,B4,T3,c,"['c', 'm']","['Clue', 'Monopoly']","[-0.15, 0.5]","[0.15, 0.5]",1,1,,,,,,,,,0,9,9,9,0,2,2,5,,,,,,,,,,,,,,,,,,,,,,,,,,,,,,,,,,,,,,,,,,,,,,,,,,,,,,,714.246153996,None,714.246153996,None,714.246153996,None,c,1,1.4290127630001734,715.7794517159996,None,715.7794517159996,None,715.7794517159996,None,717.2794378590002,None,717.2794378590002,None,717.2794378590002,None,717.2794378590002,None,,,,,,,,,,,,,,,,,,,,,,,,,,,,,,,,,,,,,,,,,,,,001,28,2020_Jan_30_0956,spring_faces,3.2.3,59.918398930022974,
condition files/Stage1_2.xlsx,,T4,B4,m,"['c', 'm']","['Clue', 'Monopoly']","[-0.15, 0.5]","[0.15, 0.5]",1,1,,,,,,,,,0,9,9,9,0,3,3,7,,,,,,,,,,,,,,,,,,,,,,,,,,,,,,,,,,,,,,,,,,,,,,,,,,,,,,,719.246138473,None,719.246138473,None,719.246138473,None,m,1,1.373131518000264,720.7793687039998,None,720.7793687039998,None,720.7793687039998,None,722.2294275489999,None,722.2294275489999,None,722.2294275489999,None,722.2294275489999,None,,,,,,,,,,,,,,,,,,,,,,,,,,,,,,,,,,,,,,,,,,,,001,28,2020_Jan_30_0956,spring_faces,3.2.3,59.918398930022974,
condition files/Stage1_2.xlsx,,B1,T1,c,"['c', 'm']","['Clue', 'Monopoly']","[-0.15, 0.5]","[0.15, 0.5]",1,1,,,,,,,,,0,9,9,9,0,4,4,0,,,,,,,,,,,,,,,,,,,,,,,,,,,,,,,,,,,,,,,,,,,,,,,,,,,,,,,724.196111107,None,724.196111107,None,724.196111107,None,m,0,1.415196842000114,725.7294364869999,None,725.7294364869999,None,725.7294364869999,None,727.2127679159998,None,727.2127679159998,None,727.2127679159998,None,727.2127679159998,None,,,,,,,,,,,,,,,,,,,,,,,,,,,,,,,,,,,,,,,,,,,,001,28,2020_Jan_30_0956,spring_faces,3.2.3,59.918398930022974,
condition files/Stage1_2.xlsx,,B2,T2,m,"['c', 'm']","['Clue', 'Monopoly']","[-0.15, 0.5]","[0.15, 0.5]",1,1,,,,,,,,,0,9,9,9,0,5,5,3,,,,,,,,,,,,,,,,,,,,,,,,,,,,,,,,,,,,,,,,,,,,,,,,,,,,,,,729.1793636750003,None,729.1793636750003,None,729.1793636750003,None,c,0,2.0483159839996006,730.7123240380001,None,730.7123240380001,None,730.7123240380001,None,732.8294194679997,None,732.8294194679997,None,732.8294194679997,None,732.8294194679997,None,,,,,,,,,,,,,,,,,,,,,,,,,,,,,,,,,,,,,,,,,,,,001,28,2020_Jan_30_0956,spring_faces,3.2.3,59.918398930022974,
condition files/Stage1_2.xlsx,,T3,B3,c,"['c', 'm']","['Clue', 'Monopoly']","[-0.15, 0.5]","[0.15, 0.5]",1,1,,,,,,,,,0,9,9,9,0,6,6,4,,,,,,,,,,,,,,,,,,,,,,,,,,,,,,,,,,,,,,,,,,,,,,,,,,,,,,,734.7961286479999,None,734.7961286479999,None,734.7961286479999,None,c,1,0.799203046999537,736.3294346629996,None,736.3294346629996,None,736.3294346629996,None,737.1960645169997,None,737.1960645169997,None,737.1960645169997,None,737.1960645169997,None,,,,,,,,,,,,,,,,,,,,,,,,,,,,,,,,,,,,,,,,,,,,001,28,2020_Jan_30_0956,spring_faces,3.2.3,59.918398930022974,
condition files/Stage1_2.xlsx,,B3,T4,m,"['c', 'm']","['Clue', 'Monopoly']","[-0.15, 0.5]","[0.15, 0.5]",1,1,,,,,,,,,0,9,9,9,0,7,7,6,,,,,,,,,,,,,,,,,,,,,,,,,,,,,,,,,,,,,,,,,,,,,,,,,,,,,,,739.1627197680004,None,739.1627197680004,None,739.1627197680004,None,m,1,0.816492618000666,740.6961227699999,None,740.6961227699999,None,740.6961227699999,None,741.5794546660004,None,741.5794546660004,None,741.5794546660004,None,741.5794546660004,None,,,,,,,,,,,,,,,,,,,,,,,,,,,,,,,,,,,,,,,,,,,,001,28,2020_Jan_30_0956,spring_faces,3.2.3,59.918398930022974,
condition files/Stage1_1.xlsx,,T1,B1,c,"['c', 'm']","['Clue', 'Monopoly']","[-0.15, 0.5]","[0.15, 0.5]",1,1,,,,,,,,,0,10,10,10,0,0,0,0,,,,,,,,,,,,,,,,,,,,,,,,,,,,,,,,,,,,,,,,,,,,,,,,,,,,,,,743.5627860500003,None,743.5627860500003,None,743.5627860500003,None,c,1,1.1683562150001308,745.0961283809997,None,745.0961283809997,None,745.0961283809997,None,746.346141132,None,746.346141132,None,746.346141132,None,746.346141132,None,,,,,,,,,,,,,,,,,,,,,,,,,,,,,,,,,,,,,,,,,,,,001,28,2020_Jan_30_0956,spring_faces,3.2.3,59.918398930022974,
condition files/Stage1_1.xlsx,,B2,T1,m,"['c', 'm']","['Clue', 'Monopoly']","[-0.15, 0.5]","[0.15, 0.5]",1,1,,,,,,,,,0,10,10,10,0,1,1,2,,,,,,,,,,,,,,,,,,,,,,,,,,,,,,,,,,,,,,,,,,,,,,,,,,,,,,,748.3128153980001,None,748.3128153980001,None,748.3128153980001,None,m,1,3.2825148439997065,749.8461200679999,None,749.8461200679999,None,749.8461200679999,None,753.1960604580004,None,753.1960604580004,None,753.1960604580004,None,753.1960604580004,None,,,,,,,,,,,,,,,,,,,,,,,,,,,,,,,,,,,,,,,,,,,,001,28,2020_Jan_30_0956,spring_faces,3.2.3,59.918398930022974,
condition files/Stage1_1.xlsx,,T4,B3,m,"['c', 'm']","['Clue', 'Monopoly']","[-0.15, 0.5]","[0.15, 0.5]",1,1,,,,,,,,,0,10,10,10,0,2,2,6,,,,,,,,,,,,,,,,,,,,,,,,,,,,,,,,,,,,,,,,,,,,,,,,,,,,,,,755.1628161719996,None,755.1628161719996,None,755.1628161719996,None,m,1,0.6723990890004643,756.6961294369999,None,756.6961294369999,None,756.6961294369999,None,757.4293768909997,None,757.4293768909997,None,757.4293768909997,None,757.4293768909997,None,,,,,,,,,,,,,,,,,,,,,,,,,,,,,,,,,,,,,,,,,,,,001,28,2020_Jan_30_0956,spring_faces,3.2.3,59.918398930022974,
condition files/Stage1_1.xlsx,,B4,T4,m,"['c', 'm']","['Clue', 'Monopoly']","[-0.15, 0.5]","[0.15, 0.5]",1,1,,,,,,,,,0,10,10,10,0,3,3,7,,,,,,,,,,,,,,,,,,,,,,,,,,,,,,,,,,,,,,,,,,,,,,,,,,,,,,,759.4127731949998,None,759.4127731949998,None,759.4127731949998,None,c,0,0.6784433639995768,760.9461121250001,None,760.9461121250001,None,760.9461121250001,None,761.6960954110004,None,761.6960954110004,None,761.6960954110004,None,761.6960954110004,None,,,,,,,,,,,,,,,,,,,,,,,,,,,,,,,,,,,,,,,,,,,,001,28,2020_Jan_30_0956,spring_faces,3.2.3,59.918398930022974,
condition files/Stage1_1.xlsx,,T2,B2,m,"['c', 'm']","['Clue', 'Monopoly']","[-0.15, 0.5]","[0.15, 0.5]",1,1,,,,,,,,,0,10,10,10,0,4,4,3,,,,,,,,,,,,,,,,,,,,,,,,,,,,,,,,,,,,,,,,,,,,,,,,,,,,,,,763.6627625489996,None,763.6627625489996,None,763.6627625489996,None,c,0,0.6524988549999762,765.1960339379998,None,765.1960339379998,None,765.1960339379998,None,765.9294033410001,None,765.9294033410001,None,765.9294033410001,None,765.9294033410001,None,,,,,,,,,,,,,,,,,,,,,,,,,,,,,,,,,,,,,,,,,,,,001,28,2020_Jan_30_0956,spring_faces,3.2.3,59.918398930022974,
condition files/Stage1_1.xlsx,,B1,T2,c,"['c', 'm']","['Clue', 'Monopoly']","[-0.15, 0.5]","[0.15, 0.5]",1,1,,,,,,,,,0,10,10,10,0,5,5,1,,,,,,,,,,,,,,,,,,,,,,,,,,,,,,,,,,,,,,,,,,,,,,,,,,,,,,,767.8961470480003,None,767.8961470480003,None,767.8961470480003,None,m,0,0.13115225000001374,769.429474649,None,769.429474649,None,769.429474649,None,769.6294203840002,None,769.6294203840002,None,769.6294203840002,None,769.6294203840002,None,,,,,,,,,,,,,,,,,,,,,,,,,,,,,,,,,,,,,,,,,,,,001,28,2020_Jan_30_0956,spring_faces,3.2.3,59.918398930022974,
condition files/Stage1_1.xlsx,,T3,B4,c,"['c', 'm']","['Clue', 'Monopoly']","[-0.15, 0.5]","[0.15, 0.5]",1,1,,,,,,,,,0,10,10,10,0,6,6,5,,,,,,,,,,,,,,,,,,,,,,,,,,,,,,,,,,,,,,,,,,,,,,,,,,,,,,,771.5961260790004,None,771.5961260790004,None,771.5961260790004,None,c,1,0.20720558399989386,773.129376849,None,773.129376849,None,773.129376849,None,773.3960820429998,None,773.3960820429998,None,773.3960820429998,None,773.3960820429998,None,,,,,,,,,,,,,,,,,,,,,,,,,,,,,,,,,,,,,,,,,,,,001,28,2020_Jan_30_0956,spring_faces,3.2.3,59.918398930022974,
condition files/Stage1_1.xlsx,,B3,T3,c,"['c', 'm']","['Clue', 'Monopoly']","[-0.15, 0.5]","[0.15, 0.5]",1,1,,,,,,,,,0,10,10,10,0,7,7,4,,,,,,,,,,,,,,,,,,,,,,,,,,,,,,,,,,,,,,,,,,,,,,,,,,,,,,,775.379446208,None,775.379446208,None,775.379446208,None,m,0,0.1516537960005735,776.9128254430002,None,776.9128254430002,None,776.9128254430002,None,777.1293397229997,None,777.1293397229997,None,777.1293397229997,None,777.1293397229997,None,,,,,,,,,,,,,,,,,,,,,,,,,,,,,,,,,,,,,,,,,,,,001,28,2020_Jan_30_0956,spring_faces,3.2.3,59.918398930022974,
condition files/Stage1_2.xlsx,,B4,T3,c,"['c', 'm']","['Clue', 'Monopoly']","[-0.15, 0.5]","[0.15, 0.5]",1,1,,,,,,,,,0,11,11,11,0,0,0,5,,,,,,,,,,,,,,,,,,,,,,,,,,,,,,,,,,,,,,,,,,,,,,,,,,,,,,,779.129416282,None,779.129416282,None,779.129416282,None,c,1,0.4658659639999314,780.6627870520001,None,780.6627870520001,None,780.6627870520001,None,781.1793875150001,None,781.1793875150001,None,781.1793875150001,None,781.1793875150001,None,,,,,,,,,,,,,,,,,,,,,,,,,,,,,,,,,,,,,,,,,,,,001,28,2020_Jan_30_0956,spring_faces,3.2.3,59.918398930022974,
condition files/Stage1_2.xlsx,,B1,T1,c,"['c', 'm']","['Clue', 'Monopoly']","[-0.15, 0.5]","[0.15, 0.5]",1,1,,,,,,,,,0,11,11,11,0,1,1,0,,,,,,,,,,,,,,,,,,,,,,,,,,,,,,,,,,,,,,,,,,,,,,,,,,,,,,,783.1625992650002,None,783.1625992650002,None,783.1625992650002,None,c,1,0.5284299040004043,784.6961390729998,None,784.6961390729998,None,784.6961390729998,None,785.2961093890003,None,785.2961093890003,None,785.2961093890003,None,785.2961093890003,None,,,,,,,,,,,,,,,,,,,,,,,,,,,,,,,,,,,,,,,,,,,,001,28,2020_Jan_30_0956,spring_faces,3.2.3,59.918398930022974,
condition files/Stage1_2.xlsx,,B2,T2,m,"['c', 'm']","['Clue', 'Monopoly']","[-0.15, 0.5]","[0.15, 0.5]",1,1,,,,,,,,,0,11,11,11,0,2,2,3,,,,,,,,,,,,,,,,,,,,,,,,,,,,,,,,,,,,,,,,,,,,,,,,,,,,,,,787.2627934819998,None,787.2627934819998,None,787.2627934819998,None,m,1,0.15638824699999532,788.7961019689997,None,788.7961019689997,None,788.7961019689997,None,789.0294653590004,None,789.0294653590004,None,789.0294653590004,None,789.0294653590004,None,,,,,,,,,,,,,,,,,,,,,,,,,,,,,,,,,,,,,,,,,,,,001,28,2020_Jan_30_0956,spring_faces,3.2.3,59.918398930022974,
condition files/Stage1_2.xlsx,,T4,B4,m,"['c', 'm']","['Clue', 'Monopoly']","[-0.15, 0.5]","[0.15, 0.5]",1,1,,,,,,,,,0,11,11,11,0,3,3,7,,,,,,,,,,,,,,,,,,,,,,,,,,,,,,,,,,,,,,,,,,,,,,,,,,,,,,,790.9961353419999,None,790.9961353419999,None,790.9961353419999,None,m,1,0.0070869459996174555,792.5294615369999,None,792.5294615369999,None,792.5294615369999,None,792.5959920769997,None,792.5959920769997,None,792.5959920769997,None,792.5959920769997,None,,,,,,,,,,,,,,,,,,,,,,,,,,,,,,,,,,,,,,,,,,,,001,28,2020_Jan_30_0956,spring_faces,3.2.3,59.918398930022974,
condition files/Stage1_2.xlsx,,B3,T4,m,"['c', 'm']","['Clue', 'Monopoly']","[-0.15, 0.5]","[0.15, 0.5]",1,1,,,,,,,,,0,11,11,11,0,4,4,6,,,,,,,,,,,,,,,,,,,,,,,,,,,,,,,,,,,,,,,,,,,,,,,,,,,,,,,794.5794277210002,None,794.5794277210002,None,794.5794277210002,None,c,0,0.3597940150002614,796.1127671689997,None,796.1127671689997,None,796.1127671689997,None,796.5461407159996,None,796.5461407159996,None,796.5461407159996,None,796.5461407159996,None,,,,,,,,,,,,,,,,,,,,,,,,,,,,,,,,,,,,,,,,,,,,001,28,2020_Jan_30_0956,spring_faces,3.2.3,59.918398930022974,
condition files/Stage1_2.xlsx,,T3,B3,c,"['c', 'm']","['Clue', 'Monopoly']","[-0.15, 0.5]","[0.15, 0.5]",1,1,,,,,,,,,0,11,11,11,0,5,5,4,,,,,,,,,,,,,,,,,,,,,,,,,,,,,,,,,,,,,,,,,,,,,,,,,,,,,,,798.5127841429999,None,798.5127841429999,None,798.5127841429999,None,c,1,0.21835276799993153,800.0461157060004,None,800.0461157060004,None,800.0461157060004,None,800.3458629720003,None,800.3458629720003,None,800.3458629720003,None,800.3458629720003,None,,,,,,,,,,,,,,,,,,,,,,,,,,,,,,,,,,,,,,,,,,,,001,28,2020_Jan_30_0956,spring_faces,3.2.3,59.918398930022974,
condition files/Stage1_2.xlsx,,T2,B1,c,"['c', 'm']","['Clue', 'Monopoly']","[-0.15, 0.5]","[0.15, 0.5]",1,1,,,,,,,,,0,11,11,11,0,6,6,1,,,,,,,,,,,,,,,,,,,,,,,,,,,,,,,,,,,,,,,,,,,,,,,,,,,,,,,802.3127789369996,None,802.3127789369996,None,802.3127789369996,None,m,0,0.09854187699966133,803.846097786,None,803.846097786,None,803.846097786,None,803.9958939169996,None,803.9958939169996,None,803.9958939169996,None,803.9958939169996,None,,,,,,,,,,,,,,,,,,,,,,,,,,,,,,,,,,,,,,,,,,,,001,28,2020_Jan_30_0956,spring_faces,3.2.3,59.918398930022974,
condition files/Stage1_2.xlsx,,T1,B2,m,"['c', 'm']","['Clue', 'Monopoly']","[-0.15, 0.5]","[0.15, 0.5]",1,1,,,,,,,,,0,11,11,11,0,7,7,2,,,,,,,,,,,,,,,,,,,,,,,,,,,,,,,,,,,,,,,,,,,,,,,,,,,,,,,805.9793731619998,None,805.9793731619998,None,805.9793731619998,None,c,0,0.17577425000035873,807.5127543920003,None,807.5127543920003,None,807.5127543920003,None,807.7627866609996,None,807.7627866609996,None,807.7627866609996,None,807.7627866609996,None,,,,,,,,,,,,,,,,,,,,,,,,,,,,,,,,,,,,,,,,,,,,001,28,2020_Jan_30_0956,spring_faces,3.2.3,59.918398930022974,
,,,,,,,,,,,,,,,,,,,,,,,,,,,,,,,,,,,,,,,,,,,,,,,,,,,,,,,,,,,,,,,,,,,,,,,,,,,,,,,,,,,,,,,,,,,,,,,,,,,,,,,,,,,,,,,,809.7294475780004,None,space,2.3196678209997117,814.7128646670003,None,,,,,,,,,,,,,,,,,,,,,,,,,,,,,,001,28,2020_Jan_30_0956,spring_faces,3.2.3,59.918398930022974,
condition files/Stage2_1.xlsx,,T1,B1,s,"['s', 'r']","['Stratego', 'Risk']","[-0.15, 0.5]","[0.15, 0.5]",1,1,,,,,,,,,,,,,,,,,0,0,0,0,0,0,0,2,,,,,,,,,,,,,,,,,,,,,,,,,,,,,,,,,,,,,,,,,,,,,,,817.096096064,None,817.096096064,None,817.096096064,None,s,1,1.811781673999576,818.6127925409996,None,818.6127925409996,None,818.6127925409996,None,820.4961203139997,None,820.4961203139997,None,820.4961203139997,None,820.4961203139997,None,,,,,,,,,,,,,,,814.7128646670003,None,,,,,,,,,,,,,,,,,,,,,,,,,,,,001,28,2020_Jan_30_0956,spring_faces,3.2.3,59.918398930022974,
condition files/Stage2_1.xlsx,,B2,T2,r,"['s', 'r']","['Stratego', 'Risk']","[-0.15, 0.5]","[0.15, 0.5]",1,1,,,,,,,,,,,,,,,,,0,0,0,0,0,1,1,3,,,,,,,,,,,,,,,,,,,,,,,,,,,,,,,,,,,,,,,,,,,,,,,822.4628146870004,None,822.4628146870004,None,822.4628146870004,None,r,1,1.6605172859999584,823.9960684149996,None,823.9960684149996,None,823.9960684149996,None,825.7294365069997,None,825.7294365069997,None,825.7294365069997,None,825.7294365069997,None,,,,,,,,,,,,,,,,,,,,,,,,,,,,,,,,,,,,,,,,,,,,001,28,2020_Jan_30_0956,spring_faces,3.2.3,59.918398930022974,
condition files/Stage2_1.xlsx,,T3,B3,s,"['s', 'r']","['Stratego', 'Risk']","[-0.15, 0.5]","[0.15, 0.5]",1,1,,,,,,,,,,,,,,,,,0,0,0,0,0,2,2,4,,,,,,,,,,,,,,,,,,,,,,,,,,,,,,,,,,,,,,,,,,,,,,,827.696146021,None,827.696146021,None,827.696146021,None,s,1,0.907150814000488,829.2294146620002,None,829.2294146620002,None,829.2294146620002,None,830.2127623020001,None,830.2127623020001,None,830.2127623020001,None,830.2127623020001,None,,,,,,,,,,,,,,,,,,,,,,,,,,,,,,,,,,,,,,,,,,,,001,28,2020_Jan_30_0956,spring_faces,3.2.3,59.918398930022974,
condition files/Stage2_1.xlsx,,B4,T4,r,"['s', 'r']","['Stratego', 'Risk']","[-0.15, 0.5]","[0.15, 0.5]",1,1,,,,,,,,,,,,,,,,,0,0,0,0,0,3,3,5,,,,,,,,,,,,,,,,,,,,,,,,,,,,,,,,,,,,,,,,,,,,,,,832.1794416710004,None,832.1794416710004,None,832.1794416710004,None,r,1,0.9677045769994947,833.7127664819996,None,833.7127664819996,None,833.7127664819996,None,834.7627120729999,None,834.7627120729999,None,834.7627120729999,None,834.7627120729999,None,,,,,,,,,,,,,,,,,,,,,,,,,,,,,,,,,,,,,,,,,,,,001,28,2020_Jan_30_0956,spring_faces,3.2.3,59.918398930022974,
condition files/Stage2_1.xlsx,,B6,T6,r,"['s', 'r']","['Stratego', 'Risk']","[-0.15, 0.5]","[0.15, 0.5]",1,1,,,,,,,,,,,,,,,,,0,0,0,0,0,4,4,1,,,,,,,,,,,,,,,,,,,,,,,,,,,,,,,,,,,,,,,,,,,,,,,836.7294434030005,None,836.7294434030005,None,836.7294434030005,None,r,1,3.3937868729999536,838.2627693130003,None,838.2627693130003,None,838.2627693130003,None,841.7127869840001,None,841.7127869840001,None,841.7127869840001,None,841.7127869840001,None,,,,,,,,,,,,,,,,,,,,,,,,,,,,,,,,,,,,,,,,,,,,001,28,2020_Jan_30_0956,spring_faces,3.2.3,59.918398930022974,
condition files/Stage2_1.xlsx,,T5,B5,s,"['s', 'r']","['Stratego', 'Risk']","[-0.15, 0.5]","[0.15, 0.5]",1,1,,,,,,,,,,,,,,,,,0,0,0,0,0,5,5,0,,,,,,,,,,,,,,,,,,,,,,,,,,,,,,,,,,,,,,,,,,,,,,,843.6961292210003,None,843.6961292210003,None,843.6961292210003,None,s,1,0.7504508450001595,845.5460497850004,None,845.5460497850004,None,845.5460497850004,None,846.3794543429999,None,846.3794543429999,None,846.3794543429999,None,846.3794543429999,None,,,,,,,,,,,,,,,,,,,,,,,,,,,,,,,,,,,,,,,,,,,,001,28,2020_Jan_30_0956,spring_faces,3.2.3,59.918398930022974,
condition files/Stage2_2.xlsx,,B1,T1,s,"['s', 'r']","['Stratego', 'Risk']","[-0.15, 0.5]","[0.15, 0.5]",1,1,,,,,,,,,,,,,,,,,0,1,1,1,0,0,0,2,,,,,,,,,,,,,,,,,,,,,,,,,,,,,,,,,,,,,,,,,,,,,,,848.3627377059997,None,848.3627377059997,None,848.3627377059997,None,r,0,3.824472400999184,849.8961094519996,None,849.8961094519996,None,849.8961094519996,None,853.7790072800003,None,853.7790072800003,None,853.7790072800003,None,853.7790072800003,None,,,,,,,,,,,,,,,,,,,,,,,,,,,,,,,,,,,,,,,,,,,,001,28,2020_Jan_30_0956,spring_faces,3.2.3,59.918398930022974,
condition files/Stage2_2.xlsx,,T6,B6,r,"['s', 'r']","['Stratego', 'Risk']","[-0.15, 0.5]","[0.15, 0.5]",1,1,,,,,,,,,,,,,,,,,0,1,1,1,0,1,1,1,,,,,,,,,,,,,,,,,,,,,,,,,,,,,,,,,,,,,,,,,,,,,,,855.7628234689996,None,855.7628234689996,None,855.7628234689996,None,s,0,1.4805035660001522,857.2961161640001,None,857.2961161640001,None,857.2961161640001,None,858.8461286209999,None,858.8461286209999,None,858.8461286209999,None,858.8461286209999,None,,,,,,,,,,,,,,,,,,,,,,,,,,,,,,,,,,,,,,,,,,,,001,28,2020_Jan_30_0956,spring_faces,3.2.3,59.918398930022974,
condition files/Stage2_2.xlsx,,B5,T5,s,"['s', 'r']","['Stratego', 'Risk']","[-0.15, 0.5]","[0.15, 0.5]",1,1,,,,,,,,,,,,,,,,,0,1,1,1,0,2,2,0,,,,,,,,,,,,,,,,,,,,,,,,,,,,,,,,,,,,,,,,,,,,,,,860.8128200409997,None,860.8128200409997,None,860.8128200409997,None,s,1,1.4063948940001865,862.3460781159997,None,862.3460781159997,None,862.3460781159997,None,863.829473147,None,863.829473147,None,863.829473147,None,863.829473147,None,,,,,,,,,,,,,,,,,,,,,,,,,,,,,,,,,,,,,,,,,,,,001,28,2020_Jan_30_0956,spring_faces,3.2.3,59.918398930022974,
condition files/Stage2_2.xlsx,,B3,T3,s,"['s', 'r']","['Stratego', 'Risk']","[-0.15, 0.5]","[0.15, 0.5]",1,1,,,,,,,,,,,,,,,,,0,1,1,1,0,3,3,4,,,,,,,,,,,,,,,,,,,,,,,,,,,,,,,,,,,,,,,,,,,,,,,865.7961532570002,None,865.7961532570002,None,865.7961532570002,None,s,1,0.7750935530002607,867.3294627509999,None,867.3294627509999,None,867.3294627509999,None,868.1794765210002,None,868.1794765210002,None,868.1794765210002,None,868.1794765210002,None,,,,,,,,,,,,,,,,,,,,,,,,,,,,,,,,,,,,,,,,,,,,001,28,2020_Jan_30_0956,spring_faces,3.2.3,59.918398930022974,
condition files/Stage2_2.xlsx,,T4,B4,r,"['s', 'r']","['Stratego', 'Risk']","[-0.15, 0.5]","[0.15, 0.5]",1,1,,,,,,,,,,,,,,,,,0,1,1,1,0,4,4,5,,,,,,,,,,,,,,,,,,,,,,,,,,,,,,,,,,,,,,,,,,,,,,,870.1461557030002,None,870.1461557030002,None,870.1461557030002,None,r,1,2.0729975949998334,871.6794529220001,None,871.6794529220001,None,871.6794529220001,None,873.829463996,None,873.829463996,None,873.829463996,None,873.829463996,None,,,,,,,,,,,,,,,,,,,,,,,,,,,,,,,,,,,,,,,,,,,,001,28,2020_Jan_30_0956,spring_faces,3.2.3,59.918398930022974,
condition files/Stage2_2.xlsx,,T2,B2,r,"['s', 'r']","['Stratego', 'Risk']","[-0.15, 0.5]","[0.15, 0.5]",1,1,,,,,,,,,,,,,,,,,0,1,1,1,0,5,5,3,,,,,,,,,,,,,,,,,,,,,,,,,,,,,,,,,,,,,,,,,,,,,,,875.796154049,None,875.796154049,None,875.796154049,None,s,0,2.4230252400002428,877.3294579660001,None,877.3294579660001,None,877.3294579660001,None,879.8127681299998,None,879.8127681299998,None,879.8127681299998,None,879.8127681299998,None,,,,,,,,,,,,,,,,,,,,,,,,,,,,,,,,,,,,,,,,,,,,001,28,2020_Jan_30_0956,spring_faces,3.2.3,59.918398930022974,
condition files/Stage2_1.xlsx,,B6,T6,r,"['s', 'r']","['Stratego', 'Risk']","[-0.15, 0.5]","[0.15, 0.5]",1,1,,,,,,,,,,,,,,,,,0,2,2,2,0,0,0,1,,,,,,,,,,,,,,,,,,,,,,,,,,,,,,,,,,,,,,,,,,,,,,,881.8126625919999,None,881.8126625919999,None,881.8126625919999,None,s,0,1.0145197299998472,883.3461247030004,None,883.3461247030004,None,883.3461247030004,None,884.4127166800004,None,884.4127166800004,None,884.4127166800004,None,884.4127166800004,None,,,,,,,,,,,,,,,,,,,,,,,,,,,,,,,,,,,,,,,,,,,,001,28,2020_Jan_30_0956,spring_faces,3.2.3,59.918398930022974,
condition files/Stage2_1.xlsx,,B4,T4,r,"['s', 'r']","['Stratego', 'Risk']","[-0.15, 0.5]","[0.15, 0.5]",1,1,,,,,,,,,,,,,,,,,0,2,2,2,0,1,1,5,,,,,,,,,,,,,,,,,,,,,,,,,,,,,,,,,,,,,,,,,,,,,,,886.3960124999999,None,886.3960124999999,None,886.3960124999999,None,s,0,1.6791229780001231,887.9293822880004,None,887.9293822880004,None,887.9293822880004,None,889.6627757299998,None,889.6627757299998,None,889.6627757299998,None,889.6627757299998,None,,,,,,,,,,,,,,,,,,,,,,,,,,,,,,,,,,,,,,,,,,,,001,28,2020_Jan_30_0956,spring_faces,3.2.3,59.918398930022974,
condition files/Stage2_1.xlsx,,T3,B3,s,"['s', 'r']","['Stratego', 'Risk']","[-0.15, 0.5]","[0.15, 0.5]",1,1,,,,,,,,,,,,,,,,,0,2,2,2,0,2,2,4,,,,,,,,,,,,,,,,,,,,,,,,,,,,,,,,,,,,,,,,,,,,,,,891.6461599939998,None,891.6461599939998,None,891.6461599939998,None,s,1,0.5091878869998254,893.1793994080003,None,893.1793994080003,None,893.1793994080003,None,893.7628158459997,None,893.7628158459997,None,893.7628158459997,None,893.7628158459997,None,,,,,,,,,,,,,,,,,,,,,,,,,,,,,,,,,,,,,,,,,,,,001,28,2020_Jan_30_0956,spring_faces,3.2.3,59.918398930022974,
condition files/Stage2_1.xlsx,,T1,B1,s,"['s', 'r']","['Stratego', 'Risk']","[-0.15, 0.5]","[0.15, 0.5]",1,1,,,,,,,,,,,,,,,,,0,2,2,2,0,3,3,2,,,,,,,,,,,,,,,,,,,,,,,,,,,,,,,,,,,,,,,,,,,,,,,895.7294795519997,None,895.7294795519997,None,895.7294795519997,None,s,1,1.2258293869999761,897.2627899710001,None,897.2627899710001,None,897.2627899710001,None,898.5460761449999,None,898.5460761449999,None,898.5460761449999,None,898.5460761449999,None,,,,,,,,,,,,,,,,,,,,,,,,,,,,,,,,,,,,,,,,,,,,001,28,2020_Jan_30_0956,spring_faces,3.2.3,59.918398930022974,
condition files/Stage2_1.xlsx,,B2,T2,r,"['s', 'r']","['Stratego', 'Risk']","[-0.15, 0.5]","[0.15, 0.5]",1,1,,,,,,,,,,,,,,,,,0,2,2,2,0,4,4,3,,,,,,,,,,,,,,,,,,,,,,,,,,,,,,,,,,,,,,,,,,,,,,,900.5294782770002,None,900.5294782770002,None,900.5294782770002,None,r,1,1.70574594899972,902.0627978719999,None,902.0627978719999,None,902.0627978719999,None,903.8461288240001,None,903.8461288240001,None,903.8461288240001,None,903.8461288240001,None,,,,,,,,,,,,,,,,,,,,,,,,,,,,,,,,,,,,,,,,,,,,001,28,2020_Jan_30_0956,spring_faces,3.2.3,59.918398930022974,
condition files/Stage2_1.xlsx,,T5,B5,s,"['s', 'r']","['Stratego', 'Risk']","[-0.15, 0.5]","[0.15, 0.5]",1,1,,,,,,,,,,,,,,,,,0,2,2,2,0,5,5,0,,,,,,,,,,,,,,,,,,,,,,,,,,,,,,,,,,,,,,,,,,,,,,,905.8128222139999,None,905.8128222139999,None,905.8128222139999,None,s,1,1.2384112569998251,907.3461282129997,None,907.3461282129997,None,907.3461282129997,None,908.6627995080003,None,908.6627995080003,None,908.6627995080003,None,908.6627995080003,None,,,,,,,,,,,,,,,,,,,,,,,,,,,,,,,,,,,,,,,,,,,,001,28,2020_Jan_30_0956,spring_faces,3.2.3,59.918398930022974,
condition files/Stage2_2.xlsx,,T4,B4,r,"['s', 'r']","['Stratego', 'Risk']","[-0.15, 0.5]","[0.15, 0.5]",1,1,,,,,,,,,,,,,,,,,0,3,3,3,0,0,0,5,,,,,,,,,,,,,,,,,,,,,,,,,,,,,,,,,,,,,,,,,,,,,,,910.646118958,None,910.646118958,None,910.646118958,None,r,1,1.077104314999815,912.1794629629999,None,912.1794629629999,None,912.1794629629999,None,913.3294766599997,None,913.3294766599997,None,913.3294766599997,None,913.3294766599997,None,,,,,,,,,,,,,,,,,,,,,,,,,,,,,,,,,,,,,,,,,,,,001,28,2020_Jan_30_0956,spring_faces,3.2.3,59.918398930022974,
condition files/Stage2_2.xlsx,,B3,T3,s,"['s', 'r']","['Stratego', 'Risk']","[-0.15, 0.5]","[0.15, 0.5]",1,1,,,,,,,,,,,,,,,,,0,3,3,3,0,1,1,4,,,,,,,,,,,,,,,,,,,,,,,,,,,,,,,,,,,,,,,,,,,,,,,915.296157188,None,915.296157188,None,915.296157188,None,r,0,0.539076092999494,916.8294687430002,None,916.8294687430002,None,916.8294687430002,None,917.4461263779999,None,917.4461263779999,None,917.4461263779999,None,917.4461263779999,None,,,,,,,,,,,,,,,,,,,,,,,,,,,,,,,,,,,,,,,,,,,,001,28,2020_Jan_30_0956,spring_faces,3.2.3,59.918398930022974,
condition files/Stage2_2.xlsx,,B1,T1,s,"['s', 'r']","['Stratego', 'Risk']","[-0.15, 0.5]","[0.15, 0.5]",1,1,,,,,,,,,,,,,,,,,0,3,3,3,0,2,2,2,,,,,,,,,,,,,,,,,,,,,,,,,,,,,,,,,,,,,,,,,,,,,,,919.4128267769997,None,919.4128267769997,None,919.4128267769997,None,s,1,0.2623399599997356,920.9461423549997,None,920.9461423549997,None,920.9461423549997,None,921.2626903969999,None,921.2626903969999,None,921.2626903969999,None,921.2626903969999,None,,,,,,,,,,,,,,,,,,,,,,,,,,,,,,,,,,,,,,,,,,,,001,28,2020_Jan_30_0956,spring_faces,3.2.3,59.918398930022974,
condition files/Stage2_2.xlsx,,T2,B2,r,"['s', 'r']","['Stratego', 'Risk']","[-0.15, 0.5]","[0.15, 0.5]",1,1,,,,,,,,,,,,,,,,,0,3,3,3,0,3,3,3,,,,,,,,,,,,,,,,,,,,,,,,,,,,,,,,,,,,,,,,,,,,,,,923.2461124489996,None,923.2461124489996,None,923.2461124489996,None,r,1,0.07714109900007315,924.7794312769997,None,924.7794312769997,None,924.7794312769997,None,924.9294568250002,None,924.9294568250002,None,924.9294568250002,None,924.9294568250002,None,,,,,,,,,,,,,,,,,,,,,,,,,,,,,,,,,,,,,,,,,,,,001,28,2020_Jan_30_0956,spring_faces,3.2.3,59.918398930022974,
condition files/Stage2_2.xlsx,,B5,T5,s,"['s', 'r']","['Stratego', 'Risk']","[-0.15, 0.5]","[0.15, 0.5]",1,1,,,,,,,,,,,,,,,,,0,3,3,3,0,4,4,0,,,,,,,,,,,,,,,,,,,,,,,,,,,,,,,,,,,,,,,,,,,,,,,926.8961524390002,None,926.8961524390002,None,926.8961524390002,None,s,1,0.17111905699948693,928.4294207910002,None,928.4294207910002,None,928.4294207910002,None,928.6794382330004,None,928.6794382330004,None,928.6794382330004,None,928.6794382330004,None,,,,,,,,,,,,,,,,,,,,,,,,,,,,,,,,,,,,,,,,,,,,001,28,2020_Jan_30_0956,spring_faces,3.2.3,59.918398930022974,
condition files/Stage2_2.xlsx,,T6,B6,r,"['s', 'r']","['Stratego', 'Risk']","[-0.15, 0.5]","[0.15, 0.5]",1,1,,,,,,,,,,,,,,,,,0,3,3,3,0,5,5,1,,,,,,,,,,,,,,,,,,,,,,,,,,,,,,,,,,,,,,,,,,,,,,,930.6460961560001,None,930.6460961560001,None,930.6460961560001,None,s,0,1.0611359539998375,932.1794334889996,None,932.1794334889996,None,932.1794334889996,None,933.3127926129996,None,933.3127926129996,None,933.3127926129996,None,933.3127926129996,None,,,,,,,,,,,,,,,,,,,,,,,,,,,,,,,,,,,,,,,,,,,,001,28,2020_Jan_30_0956,spring_faces,3.2.3,59.918398930022974,
condition files/Stage2_1.xlsx,,B6,T6,r,"['s', 'r']","['Stratego', 'Risk']","[-0.15, 0.5]","[0.15, 0.5]",1,1,,,,,,,,,,,,,,,,,0,4,4,4,0,0,0,1,,,,,,,,,,,,,,,,,,,,,,,,,,,,,,,,,,,,,,,,,,,,,,,935.2961259910003,None,935.2961259910003,None,935.2961259910003,None,s,0,1.3071073009996326,936.8294661940004,None,936.8294661940004,None,936.8294661940004,None,938.2127953080003,None,938.2127953080003,None,938.2127953080003,None,938.2127953080003,None,,,,,,,,,,,,,,,,,,,,,,,,,,,,,,,,,,,,,,,,,,,,001,28,2020_Jan_30_0956,spring_faces,3.2.3,59.918398930022974,
condition files/Stage2_1.xlsx,,B4,T4,r,"['s', 'r']","['Stratego', 'Risk']","[-0.15, 0.5]","[0.15, 0.5]",1,1,,,,,,,,,,,,,,,,,0,4,4,4,0,1,1,5,,,,,,,,,,,,,,,,,,,,,,,,,,,,,,,,,,,,,,,,,,,,,,,940.1794668090001,None,940.1794668090001,None,940.1794668090001,None,s,0,0.647836546999315,941.7127969389999,None,941.7127969389999,None,941.7127969389999,None,942.4128080470005,None,942.4128080470005,None,942.4128080470005,None,942.4128080470005,None,,,,,,,,,,,,,,,,,,,,,,,,,,,,,,,,,,,,,,,,,,,,001,28,2020_Jan_30_0956,spring_faces,3.2.3,59.918398930022974,
condition files/Stage2_1.xlsx,,B2,T2,r,"['s', 'r']","['Stratego', 'Risk']","[-0.15, 0.5]","[0.15, 0.5]",1,1,,,,,,,,,,,,,,,,,0,4,4,4,0,2,2,3,,,,,,,,,,,,,,,,,,,,,,,,,,,,,,,,,,,,,,,,,,,,,,,944.3959957780003,None,944.3959957780003,None,944.3959957780003,None,r,1,0.12726274499982537,945.9293094330001,None,945.9293094330001,None,945.9293094330001,None,946.1128107339996,None,946.1128107339996,None,946.1128107339996,None,946.1128107339996,None,,,,,,,,,,,,,,,,,,,,,,,,,,,,,,,,,,,,,,,,,,,,001,28,2020_Jan_30_0956,spring_faces,3.2.3,59.918398930022974,
condition files/Stage2_1.xlsx,,T5,B5,s,"['s', 'r']","['Stratego', 'Risk']","[-0.15, 0.5]","[0.15, 0.5]",1,1,,,,,,,,,,,,,,,,,0,4,4,4,0,3,3,0,,,,,,,,,,,,,,,,,,,,,,,,,,,,,,,,,,,,,,,,,,,,,,,948.0961345150004,None,948.0961345150004,None,948.0961345150004,None,s,1,0.2192042450005829,949.6293209680002,None,949.6293209680002,None,949.6293209680002,None,949.9293581779998,None,949.9293581779998,None,949.9293581779998,None,949.9293581779998,None,,,,,,,,,,,,,,,,,,,,,,,,,,,,,,,,,,,,,,,,,,,,001,28,2020_Jan_30_0956,spring_faces,3.2.3,59.918398930022974,
