condsFile,subStage,cue1,cue2,correct,responseKeys,responseNames,cue1Position,cue2Position,cue1Opacity,cue2Opacity,stageLoop0.thisRepN,stageLoop0.thisTrialN,stageLoop0.thisN,stageLoop0.thisIndex,blockLoop0.thisRepN,blockLoop0.thisTrialN,blockLoop0.thisN,blockLoop0.thisIndex,stage1Loop.thisRepN,stage1Loop.thisTrialN,stage1Loop.thisN,stage1Loop.thisIndex,blockLoop1.thisRepN,blockLoop1.thisTrialN,blockLoop1.thisN,blockLoop1.thisIndex,stage2Loop.thisRepN,stage2Loop.thisTrialN,stage2Loop.thisN,stage2Loop.thisIndex,blockLoop2.thisRepN,blockLoop2.thisTrialN,blockLoop2.thisN,blockLoop2.thisIndex,testLoop.thisRepN,testLoop.thisTrialN,testLoop.thisN,testLoop.thisIndex,blockLoopTest.thisRepN,blockLoopTest.thisTrialN,blockLoopTest.thisN,blockLoopTest.thisIndex,cuePics,id_instr_text.started,id_instr_text.stopped,space_to_continue_2.started,space_to_continue_2.stopped,end_instructions_resp_3.keys,end_instructions_resp_3.rt,end_instructions_resp_3.started,end_instructions_resp_3.stopped,id_input_instr.started,id_input_instr.stopped,id_input_rect.started,id_input_rect.stopped,id_input_resp.keys,id_input_resp.rt,id_input_resp.started,id_input_resp.stopped,sonaID,id_input_text.started,id_input_text.stopped,final_text.started,final_text.stopped,instructions.started,instructions.stopped,end_instructions_resp.keys,end_instructions_resp.rt,end_instructions_resp.started,end_instructions_resp.stopped,space_to_continue.started,space_to_continue.stopped,instructions_stage0.started,instructions_stage0.stopped,end_instructions_resp_stage0.keys,end_instructions_resp_stage0.rt,end_instructions_resp_stage0.started,end_instructions_resp_stage0.stopped,space_to_continue_stage0.started,space_to_continue_stage0.stopped,text.started,text.stopped,resp_text1.started,resp_text1.stopped,resp_text2.started,resp_text2.stopped,trial_resp.keys,trial_resp.corr,trial_resp.rt,trial_resp.started,trial_resp.stopped,cue1Image.started,cue1Image.stopped,cue2Image.started,cue2Image.stopped,cue1Image_fb.started,cue1Image_fb.stopped,cue2Image_fb.started,cue2Image_fb.stopped,fb_text_answer.started,fb_text_answer.stopped,feedback_image.started,feedback_image.stopped,instructions_stage1.started,instructions_stage1.stopped,end_instructions_resp_stage1.keys,end_instructions_resp_stage1.rt,end_instructions_resp_stage1.started,end_instructions_resp_stage1.stopped,space_to_continue_stage1.started,space_to_continue_stage1.stopped,instructions_2.started,instructions_2.stopped,end_instructions_resp_2.keys,end_instructions_resp_2.rt,end_instructions_resp_2.started,end_instructions_resp_2.stopped,press_space_to_continue_stage2.started,press_space_to_continue_stage2.stopped,instructions_testStage1.started,instructions_testStage1.stopped,end_instructions_resp_test1.keys,end_instructions_resp_test1.rt,end_instructions_resp_test1.started,end_instructions_resp_test1.stopped,press_space_to_continue_test1.started,press_space_to_continue_test1.stopped,cue1Image_testChoice.started,cue1Image_testChoice.stopped,cue2Image_testChoice.started,cue2Image_testChoice.stopped,test_resp.keys,test_resp.corr,test_resp.rt,test_resp.started,test_resp.stopped,cue1Image_testConf.started,cue1Image_testConf.stopped,cue2Image_testConf.started,cue2Image_testConf.stopped,conf_reminder.started,conf_reminder.stopped,conf_rating.response,conf_rating.rt,conf_rating.started,conf_rating.stopped,session,participant,date,expName,psychopyVersion,frameRate,
,,,,,,,,,,,,,,,,,,,,,,,,,,,,,,,,,,,,,,,,,,,"{'none': 'pictures/20M_AN_C.png', 'alpha': 'pictures/SHINEd_apple.png', 'beta': 'pictures/SHINEd_pear.png', 'theta': 'pictures/SHINEd_pepper.png', 'phi': 'pictures/SHINEd_melon.png', 'T1': 'pictures/32M_AN_C.png', 'T2': 'pictures/20M_AN_C.png', 'T3': 'pictures/36M_AN_C.png', 'T4': 'pictures/26M_AN_C.png', 'T5': 'pictures/38M_AN_C.png', 'T6': 'pictures/33M_AN_C.png', 'B1': 'pictures/22M_NE_C.png', 'B2': 'pictures/25M_NE_C.png', 'B3': 'pictures/23M_NE_C.png', 'B4': 'pictures/37M_NE_C.png', 'B5': 'pictures/34M_NE_C.png', 'B6': 'pictures/31M_NE_C.png'}",8.442916192999292,None,13.426237708999906,None,space,10.970898425999621,13.426237708999906,None,,,,,,,,,,,,,,,,,,,,,,,,,,,,,,,,,,,,,,,,,,,,,,,,,,,,,,,,,,,,,,,,,,,,,,,,,,,,,,,,,,,,,,,,,,,,,,,,001,29,2020_Jan_30_0958,spring_faces,3.1.5,59.99581301217309,
,,,,,,,,,,,,,,,,,,,,,,,,,,,,,,,,,,,,,,,,,,,,,,,,,,,,24.77613771199958,None,24.77613771199958,None,"['1', '1', '1', '5', 'backspace', '6', 'l', 'backspace', 'l', 'backspace', 'l', 'o', 't', 'o', 'r', 'backspace', '1', '1', '1', '6', 'l', 'o', 't', 'o', 'r', '1', '1', '1', '6', 'l', 'o', 't', 'o', 'r']","[8.164999003000048, 8.868944793000082, 16.27708158599944, 17.668949244999567, 18.83701883499998, 19.189016596999863, 23.477076115999807, 24.981008245999874, 25.621010292999927, 26.709075471999313, 27.49304572299934, 28.133016840999517, 33.87707820099968, 35.0290111409995, 35.541070227999626, 40.91694490200007, 44.45300404199952, 44.80502501799947, 45.70095953700002, 45.90908178599966, 48.997005633999834, 50.229007378999995, 53.71699904899924, 54.72507681799925, 55.013008643999456, 64.62897477499973, 64.93300625699976, 65.92507532399941, 66.22902280199924, 74.98101185799987, 75.38100071200006, 80.74100831899977, 81.10906156500005, 81.36501098699955]",24.77613771199958,None,,,,,,,,,,,,,,,,,,,,,,,,,,,,,,,,,,,,,,,,,,,,,,,,,,,,,,,,,,,,,,,,,,,,,,,,,,,,,,,,,,,,,,,,001,29,2020_Jan_30_0958,spring_faces,3.1.5,59.99581301217309,
,,,,,,,,,,,,,,,,,,,,,,,,,,,,,,,,,,,,,,,,,,,,,,,,,,,,,,,,,,,,1116lotor,24.77613771199958,None,24.77613771199958,None,111.20928314499997,None,space,2.507414269000037,116.20980938799948,None,,,,,,,,,,,,,,,,,,,,,,,,,,,,,,,,,,,,,,,,,,,,,,,,,,,,,,,,,,,,,,,,,,,,,,,,,,,,,001,29,2020_Jan_30_0958,spring_faces,3.1.5,59.99581301217309,
,,,,,,,,,,,,,,,,,,,,,,,,,,,,,,,,,,,,,,,,,,,,,,,,,,,,,,,,,,,,,,,,,,,,,,,116.20980938799948,None,118.75921398299943,None,space,8.205644996000046,123.75949682899954,None,,,,,,,,,,,,,,,,,,,,,,,,,,,,,,,,,,,,,,,,,,,,,,,,,,,,,,,,,,,,,,,,,,,,,001,29,2020_Jan_30_0958,spring_faces,3.1.5,59.99581301217309,
condition files/Stage0a.xlsx,0a,alpha,none,h,"['h', 'g']","['Chess', 'Go']","[0, 0.5]","[0, 0]",1,0,0,0,0,0,0,0,0,0,,,,,,,,,,,,,,,,,,,,,,,,,,,,,,,,,,,,,,,,,,,,,,,,,,,,,,,,,,,,,123.75949682899954,None,132.0266057209992,None,132.0266057209992,None,132.0266057209992,None,g,0,7.300069836999683,133.59305008299998,None,133.59305008299998,None,133.59305008299998,None,140.95962844199948,None,140.95962844199948,None,140.95962844199948,None,140.95962844199948,None,,,,,,,,,,,,,,,,,,,,,,,,,,,,,,,,,,,,,,,,,,,,001,29,2020_Jan_30_0958,spring_faces,3.1.5,59.99581301217309,
condition files/Stage0a.xlsx,0a,beta,none,g,"['h', 'g']","['Chess', 'Go']","[0, 0.5]","[0, 0]",1,0,0,0,0,0,0,1,1,1,,,,,,,,,,,,,,,,,,,,,,,,,,,,,,,,,,,,,,,,,,,,,,,,,,,,,,,,,,,,,,,142.9086722969996,None,142.9086722969996,None,142.9086722969996,None,g,1,2.5448367789995245,144.4602703949995,None,144.4602703949995,None,144.4602703949995,None,147.0602444369997,None,147.0602444369997,None,147.0602444369997,None,147.0602444369997,None,,,,,,,,,,,,,,,,,,,,,,,,,,,,,,,,,,,,,,,,,,,,001,29,2020_Jan_30_0958,spring_faces,3.1.5,59.99581301217309,
condition files/Stage0a.xlsx,0a,alpha,none,h,"['h', 'g']","['Chess', 'Go']","[0, 0.5]","[0, 0]",1,0,0,1,1,1,0,0,0,0,,,,,,,,,,,,,,,,,,,,,,,,,,,,,,,,,,,,,,,,,,,,,,,,,,,,,,,,,,,,,,,149.04293588899964,None,149.04293588899964,None,149.04293588899964,None,h,1,1.3733764789994893,150.57574440199915,None,150.57574440199915,None,150.57574440199915,None,152.00945766699988,None,152.00945766699988,None,152.00945766699988,None,152.00945766699988,None,,,,,,,,,,,,,,,,,,,,,,,,,,,,,,,,,,,,,,,,,,,,001,29,2020_Jan_30_0958,spring_faces,3.1.5,59.99581301217309,
condition files/Stage0a.xlsx,0a,beta,none,g,"['h', 'g']","['Chess', 'Go']","[0, 0.5]","[0, 0]",1,0,0,1,1,1,0,1,1,1,,,,,,,,,,,,,,,,,,,,,,,,,,,,,,,,,,,,,,,,,,,,,,,,,,,,,,,,,,,,,,,153.9761692989996,None,153.9761692989996,None,153.9761692989996,None,g,1,0.9997371520003071,155.50941381599932,None,155.50941381599932,None,155.50941381599932,None,156.55943983899942,None,156.55943983899942,None,156.55943983899942,None,156.55943983899942,None,,,,,,,,,,,,,,,,,,,,,,,,,,,,,,,,,,,,,,,,,,,,001,29,2020_Jan_30_0958,spring_faces,3.1.5,59.99581301217309,
condition files/Stage0a.xlsx,0a,alpha,none,h,"['h', 'g']","['Chess', 'Go']","[0, 0.5]","[0, 0]",1,0,0,2,2,2,0,0,0,0,,,,,,,,,,,,,,,,,,,,,,,,,,,,,,,,,,,,,,,,,,,,,,,,,,,,,,,,,,,,,,,158.54343949099984,None,158.54343949099984,None,158.54343949099984,None,h,1,1.008761277999838,160.07643801199993,None,160.07643801199993,None,160.07643801199993,None,161.1428862799994,None,161.1428862799994,None,161.1428862799994,None,161.1428862799994,None,,,,,,,,,,,,,,,,,,,,,,,,,,,,,,,,,,,,,,,,,,,,001,29,2020_Jan_30_0958,spring_faces,3.1.5,59.99581301217309,
condition files/Stage0a.xlsx,0a,beta,none,g,"['h', 'g']","['Chess', 'Go']","[0, 0.5]","[0, 0]",1,0,0,2,2,2,0,1,1,1,,,,,,,,,,,,,,,,,,,,,,,,,,,,,,,,,,,,,,,,,,,,,,,,,,,,,,,,,,,,,,,163.10949307699957,None,163.10949307699957,None,163.10949307699957,None,g,1,0.7618472340000153,164.64330657199935,None,164.64330657199935,None,164.64330657199935,None,165.46004092699968,None,165.46004092699968,None,165.46004092699968,None,165.46004092699968,None,,,,,,,,,,,,,,,,,,,,,,,,,,,,,,,,,,,,,,,,,,,,001,29,2020_Jan_30_0958,spring_faces,3.1.5,59.99581301217309,
condition files/Stage0a.xlsx,0a,beta,none,g,"['h', 'g']","['Chess', 'Go']","[0, 0.5]","[0, 0]",1,0,0,3,3,3,0,0,0,1,,,,,,,,,,,,,,,,,,,,,,,,,,,,,,,,,,,,,,,,,,,,,,,,,,,,,,,,,,,,,,,167.44315073399957,None,167.44315073399957,None,167.44315073399957,None,g,1,3.452393690000463,168.9767491829998,None,168.9767491829998,None,168.9767491829998,None,172.49299781099944,None,172.49299781099944,None,172.49299781099944,None,172.49299781099944,None,,,,,,,,,,,,,,,,,,,,,,,,,,,,,,,,,,,,,,,,,,,,001,29,2020_Jan_30_0958,spring_faces,3.1.5,59.99581301217309,
condition files/Stage0a.xlsx,0a,alpha,none,h,"['h', 'g']","['Chess', 'Go']","[0, 0.5]","[0, 0]",1,0,0,3,3,3,0,1,1,0,,,,,,,,,,,,,,,,,,,,,,,,,,,,,,,,,,,,,,,,,,,,,,,,,,,,,,,,,,,,,,,174.45954475899998,None,174.45954475899998,None,174.45954475899998,None,h,1,6.756366857999637,175.99276338099935,None,175.99276338099935,None,175.99276338099935,None,182.81264974699934,None,182.81264974699934,None,182.81264974699934,None,182.81264974699934,None,,,,,,,,,,,,,,,,,,,,,,,,,,,,,,,,,,,,,,,,,,,,001,29,2020_Jan_30_0958,spring_faces,3.1.5,59.99581301217309,
condition files/Stage0a.xlsx,0a,beta,none,g,"['h', 'g']","['Chess', 'Go']","[0, 0.5]","[0, 0]",1,0,0,4,4,4,0,0,0,1,,,,,,,,,,,,,,,,,,,,,,,,,,,,,,,,,,,,,,,,,,,,,,,,,,,,,,,,,,,,,,,184.79286093599967,None,184.79286093599967,None,184.79286093599967,None,g,1,0.6144474160000755,186.32668429099976,None,186.32668429099976,None,186.32668429099976,None,186.99254477899922,None,186.99254477899922,None,186.99254477899922,None,186.99254477899922,None,,,,,,,,,,,,,,,,,,,,,,,,,,,,,,,,,,,,,,,,,,,,001,29,2020_Jan_30_0958,spring_faces,3.1.5,59.99581301217309,
condition files/Stage0a.xlsx,0a,alpha,none,h,"['h', 'g']","['Chess', 'Go']","[0, 0.5]","[0, 0]",1,0,0,4,4,4,0,1,1,0,,,,,,,,,,,,,,,,,,,,,,,,,,,,,,,,,,,,,,,,,,,,,,,,,,,,,,,,,,,,,,,188.95950814799926,None,188.95950814799926,None,188.95950814799926,None,h,1,0.480679882000004,190.49249583299934,None,190.49249583299934,None,190.49249583299934,None,191.0261030269994,None,191.0261030269994,None,191.0261030269994,None,191.0261030269994,None,,,,,,,,,,,,,,,,,,,,,,,,,,,,,,,,,,,,,,,,,,,,001,29,2020_Jan_30_0958,spring_faces,3.1.5,59.99581301217309,
condition files/Stage0a.xlsx,0a,beta,none,g,"['h', 'g']","['Chess', 'Go']","[0, 0.5]","[0, 0]",1,0,0,5,5,5,0,0,0,1,,,,,,,,,,,,,,,,,,,,,,,,,,,,,,,,,,,,,,,,,,,,,,,,,,,,,,,,,,,,,,,193.00978595499964,None,193.00978595499964,None,193.00978595499964,None,g,1,0.8140336989999923,194.5431181899994,None,194.5431181899994,None,194.5431181899994,None,195.40986749999956,None,195.40986749999956,None,195.40986749999956,None,195.40986749999956,None,,,,,,,,,,,,,,,,,,,,,,,,,,,,,,,,,,,,,,,,,,,,001,29,2020_Jan_30_0958,spring_faces,3.1.5,59.99581301217309,
condition files/Stage0a.xlsx,0a,alpha,none,h,"['h', 'g']","['Chess', 'Go']","[0, 0.5]","[0, 0]",1,0,0,5,5,5,0,1,1,0,,,,,,,,,,,,,,,,,,,,,,,,,,,,,,,,,,,,,,,,,,,,,,,,,,,,,,,,,,,,,,,197.37533951499972,None,197.37533951499972,None,197.37533951499972,None,h,1,0.6377643730002092,198.91138319699985,None,198.91138319699985,None,198.91138319699985,None,199.60960928799977,None,199.60960928799977,None,199.60960928799977,None,199.60960928799977,None,,,,,,,,,,,,,,,,,,,,,,,,,,,,,,,,,,,,,,,,,,,,001,29,2020_Jan_30_0958,spring_faces,3.1.5,59.99581301217309,
condition files/Stage0b_1.xlsx,0b,none,beta,g,"['h', 'g']","['Chess', 'Go']","[-0.15, 0.5]","[0.15, 0.5]",0,1,0,6,6,6,0,0,0,1,,,,,,,,,,,,,,,,,,,,,,,,,,,,,,,,,,,,,,,,,,,,,,,,,,,,,,,,,,,,,,,201.59331524499976,None,201.59331524499976,None,201.59331524499976,None,g,1,1.061986137000531,203.14317016299992,None,203.14317016299992,None,203.14317016299992,None,204.27649707599994,None,204.27649707599994,None,204.27649707599994,None,204.27649707599994,None,,,,,,,,,,,,,,,,,,,,,,,,,,,,,,,,,,,,,,,,,,,,001,29,2020_Jan_30_0958,spring_faces,3.1.5,59.99581301217309,
condition files/Stage0b_1.xlsx,0b,alpha,none,h,"['h', 'g']","['Chess', 'Go']","[-0.15, 0.5]","[0.15, 0.5]",1,0,0,6,6,6,0,1,1,0,,,,,,,,,,,,,,,,,,,,,,,,,,,,,,,,,,,,,,,,,,,,,,,,,,,,,,,,,,,,,,,206.22550768199926,None,206.22550768199926,None,206.22550768199926,None,h,1,0.5224669429999267,207.7627296849996,None,207.7627296849996,None,207.7627296849996,None,208.35957116499958,None,208.35957116499958,None,208.35957116499958,None,208.35957116499958,None,,,,,,,,,,,,,,,,,,,,,,,,,,,,,,,,,,,,,,,,,,,,001,29,2020_Jan_30_0958,spring_faces,3.1.5,59.99581301217309,
condition files/Stage0b_2.xlsx,0b,none,alpha,h,"['h', 'g']","['Chess', 'Go']","[-0.15, 0.5]","[0.15, 0.5]",0,1,0,7,7,7,0,0,0,0,,,,,,,,,,,,,,,,,,,,,,,,,,,,,,,,,,,,,,,,,,,,,,,,,,,,,,,,,,,,,,,210.32697153799927,None,210.32697153799927,None,210.32697153799927,None,h,1,1.749962855999911,211.86319568599993,None,211.86319568599993,None,211.86319568599993,None,213.6764210149995,None,213.6764210149995,None,213.6764210149995,None,213.6764210149995,None,,,,,,,,,,,,,,,,,,,,,,,,,,,,,,,,,,,,,,,,,,,,001,29,2020_Jan_30_0958,spring_faces,3.1.5,59.99581301217309,
condition files/Stage0b_2.xlsx,0b,beta,none,g,"['h', 'g']","['Chess', 'Go']","[-0.15, 0.5]","[0.15, 0.5]",1,0,0,7,7,7,0,1,1,1,,,,,,,,,,,,,,,,,,,,,,,,,,,,,,,,,,,,,,,,,,,,,,,,,,,,,,,,,,,,,,,215.64261946999977,None,215.64261946999977,None,215.64261946999977,None,g,1,0.7038556989991775,217.1813369399997,None,217.1813369399997,None,217.1813369399997,None,217.94547974399939,None,217.94547974399939,None,217.94547974399939,None,217.94547974399939,None,,,,,,,,,,,,,,,,,,,,,,,,,,,,,,,,,,,,,,,,,,,,001,29,2020_Jan_30_0958,spring_faces,3.1.5,59.99581301217309,
condition files/Stage0b_1.xlsx,0b,none,beta,g,"['h', 'g']","['Chess', 'Go']","[-0.15, 0.5]","[0.15, 0.5]",0,1,0,8,8,8,0,0,0,1,,,,,,,,,,,,,,,,,,,,,,,,,,,,,,,,,,,,,,,,,,,,,,,,,,,,,,,,,,,,,,,219.92643502099963,None,219.92643502099963,None,219.92643502099963,None,g,1,0.6779419229997075,221.46323831299924,None,221.46323831299924,None,221.46323831299924,None,222.19312005999927,None,222.19312005999927,None,222.19312005999927,None,222.19312005999927,None,,,,,,,,,,,,,,,,,,,,,,,,,,,,,,,,,,,,,,,,,,,,001,29,2020_Jan_30_0958,spring_faces,3.1.5,59.99581301217309,
condition files/Stage0b_1.xlsx,0b,alpha,none,h,"['h', 'g']","['Chess', 'Go']","[-0.15, 0.5]","[0.15, 0.5]",1,0,0,8,8,8,0,1,1,0,,,,,,,,,,,,,,,,,,,,,,,,,,,,,,,,,,,,,,,,,,,,,,,,,,,,,,,,,,,,,,,224.159228902,None,224.159228902,None,224.159228902,None,h,1,0.8294054500001948,225.69574335999914,None,225.69574335999914,None,225.69574335999914,None,226.57807678599966,None,226.57807678599966,None,226.57807678599966,None,226.57807678599966,None,,,,,,,,,,,,,,,,,,,,,,,,,,,,,,,,,,,,,,,,,,,,001,29,2020_Jan_30_0958,spring_faces,3.1.5,59.99581301217309,
condition files/Stage0b_2.xlsx,0b,beta,none,g,"['h', 'g']","['Chess', 'Go']","[-0.15, 0.5]","[0.15, 0.5]",1,0,0,9,9,9,0,0,0,1,,,,,,,,,,,,,,,,,,,,,,,,,,,,,,,,,,,,,,,,,,,,,,,,,,,,,,,,,,,,,,,228.55953128199963,None,228.55953128199963,None,228.55953128199963,None,g,1,1.5524910750000345,230.09266693099926,None,230.09266693099926,None,230.09266693099926,None,231.70935873799954,None,231.70935873799954,None,231.70935873799954,None,231.70935873799954,None,,,,,,,,,,,,,,,,,,,,,,,,,,,,,,,,,,,,,,,,,,,,001,29,2020_Jan_30_0958,spring_faces,3.1.5,59.99581301217309,
condition files/Stage0b_2.xlsx,0b,none,alpha,h,"['h', 'g']","['Chess', 'Go']","[-0.15, 0.5]","[0.15, 0.5]",0,1,0,9,9,9,0,1,1,0,,,,,,,,,,,,,,,,,,,,,,,,,,,,,,,,,,,,,,,,,,,,,,,,,,,,,,,,,,,,,,,233.6761933889993,None,233.6761933889993,None,233.6761933889993,None,h,1,1.1826186739999685,235.214527567,None,235.214527567,None,235.214527567,None,236.47666866999953,None,236.47666866999953,None,236.47666866999953,None,236.47666866999953,None,,,,,,,,,,,,,,,,,,,,,,,,,,,,,,,,,,,,,,,,,,,,001,29,2020_Jan_30_0958,spring_faces,3.1.5,59.99581301217309,
condition files/Stage0b_1.xlsx,0b,none,beta,g,"['h', 'g']","['Chess', 'Go']","[-0.15, 0.5]","[0.15, 0.5]",0,1,0,10,10,10,0,0,0,1,,,,,,,,,,,,,,,,,,,,,,,,,,,,,,,,,,,,,,,,,,,,,,,,,,,,,,,,,,,,,,,238.44302491899998,None,238.44302491899998,None,238.44302491899998,None,g,1,1.668640714000503,239.97652274399934,None,239.97652274399934,None,239.97652274399934,None,241.7097988939995,None,241.7097988939995,None,241.7097988939995,None,241.7097988939995,None,,,,,,,,,,,,,,,,,,,,,,,,,,,,,,,,,,,,,,,,,,,,001,29,2020_Jan_30_0958,spring_faces,3.1.5,59.99581301217309,
condition files/Stage0b_1.xlsx,0b,alpha,none,h,"['h', 'g']","['Chess', 'Go']","[-0.15, 0.5]","[0.15, 0.5]",1,0,0,10,10,10,0,1,1,0,,,,,,,,,,,,,,,,,,,,,,,,,,,,,,,,,,,,,,,,,,,,,,,,,,,,,,,,,,,,,,,243.67611555699932,None,243.67611555699932,None,243.67611555699932,None,h,1,1.3127181229992857,245.2124310929994,None,245.2124310929994,None,245.2124310929994,None,246.58115650999935,None,246.58115650999935,None,246.58115650999935,None,246.58115650999935,None,,,,,,,,,,,,,,,,,,,,,,,,,,,,,,,,,,,,,,,,,,,,001,29,2020_Jan_30_0958,spring_faces,3.1.5,59.99581301217309,
condition files/Stage0b_2.xlsx,0b,none,alpha,h,"['h', 'g']","['Chess', 'Go']","[-0.15, 0.5]","[0.15, 0.5]",0,1,0,11,11,11,0,0,0,0,,,,,,,,,,,,,,,,,,,,,,,,,,,,,,,,,,,,,,,,,,,,,,,,,,,,,,,,,,,,,,,248.55930212099975,None,248.55930212099975,None,248.55930212099975,None,h,1,1.0076758949999203,250.10953846099983,None,250.10953846099983,None,250.10953846099983,None,251.1790120529995,None,251.1790120529995,None,251.1790120529995,None,251.1790120529995,None,,,,,,,,,,,,,,,,,,,,,,,,,,,,,,,,,,,,,,,,,,,,001,29,2020_Jan_30_0958,spring_faces,3.1.5,59.99581301217309,
condition files/Stage0b_2.xlsx,0b,beta,none,g,"['h', 'g']","['Chess', 'Go']","[-0.15, 0.5]","[0.15, 0.5]",1,0,0,11,11,11,0,1,1,1,,,,,,,,,,,,,,,,,,,,,,,,,,,,,,,,,,,,,,,,,,,,,,,,,,,,,,,,,,,,,,,253.14285957499942,None,253.14285957499942,None,253.14285957499942,None,g,1,1.3360573820000354,254.67710354599967,None,254.67710354599967,None,254.67710354599967,None,256.0760186389998,None,256.0760186389998,None,256.0760186389998,None,256.0760186389998,None,,,,,,,,,,,,,,,,,,,,,,,,,,,,,,,,,,,,,,,,,,,,001,29,2020_Jan_30_0958,spring_faces,3.1.5,59.99581301217309,
condition files/Stage0c_1.xlsx,0c,theta,alpha,h,"['h', 'g']","['Chess', 'Go']","[-0.15, 0.5]","[0.15, 0.5]",1,1,0,12,12,12,0,0,0,0,,,,,,,,,,,,,,,,,,,,,,,,,,,,,,,,,,,,,,,,,,,,,,,,,,,,,,,,,,,,,,,258.05929778299924,None,258.05929778299924,None,258.05929778299924,None,h,1,2.772174589000315,259.5929213999998,None,259.5929213999998,None,259.5929213999998,None,262.42614836399935,None,262.42614836399935,None,262.42614836399935,None,262.42614836399935,None,,,,,,,,,,,,,,,,,,,,,,,,,,,,,,,,,,,,,,,,,,,,001,29,2020_Jan_30_0958,spring_faces,3.1.5,59.99581301217309,
condition files/Stage0c_1.xlsx,0c,alpha,phi,h,"['h', 'g']","['Chess', 'Go']","[-0.15, 0.5]","[0.15, 0.5]",1,1,0,12,12,12,0,1,1,1,,,,,,,,,,,,,,,,,,,,,,,,,,,,,,,,,,,,,,,,,,,,,,,,,,,,,,,,,,,,,,,264.3921914099992,None,264.3921914099992,None,264.3921914099992,None,h,1,1.8952340579999145,265.9259146959994,None,265.9259146959994,None,265.9259146959994,None,267.87602396199964,None,267.87602396199964,None,267.87602396199964,None,267.87602396199964,None,,,,,,,,,,,,,,,,,,,,,,,,,,,,,,,,,,,,,,,,,,,,001,29,2020_Jan_30_0958,spring_faces,3.1.5,59.99581301217309,
condition files/Stage0c_1.xlsx,0c,beta,theta,g,"['h', 'g']","['Chess', 'Go']","[-0.15, 0.5]","[0.15, 0.5]",1,1,0,12,12,12,0,2,2,2,,,,,,,,,,,,,,,,,,,,,,,,,,,,,,,,,,,,,,,,,,,,,,,,,,,,,,,,,,,,,,,269.842264248,None,269.842264248,None,269.842264248,None,g,1,1.0208836960000554,271.3762570589997,None,271.3762570589997,None,271.3762570589997,None,272.45946512199953,None,272.45946512199953,None,272.45946512199953,None,272.45946512199953,None,,,,,,,,,,,,,,,,,,,,,,,,,,,,,,,,,,,,,,,,,,,,001,29,2020_Jan_30_0958,spring_faces,3.1.5,59.99581301217309,
condition files/Stage0c_1.xlsx,0c,phi,beta,g,"['h', 'g']","['Chess', 'Go']","[-0.15, 0.5]","[0.15, 0.5]",1,1,0,12,12,12,0,3,3,3,,,,,,,,,,,,,,,,,,,,,,,,,,,,,,,,,,,,,,,,,,,,,,,,,,,,,,,,,,,,,,,274.4255898249994,None,274.4255898249994,None,274.4255898249994,None,g,1,1.221485494999797,275.9596725579995,None,275.9596725579995,None,275.9596725579995,None,277.22807932899923,None,277.22807932899923,None,277.22807932899923,None,277.22807932899923,None,,,,,,,,,,,,,,,,,,,,,,,,,,,,,,,,,,,,,,,,,,,,001,29,2020_Jan_30_0958,spring_faces,3.1.5,59.99581301217309,
condition files/Stage0c_2.xlsx,0c,beta,phi,g,"['h', 'g']","['Chess', 'Go']","[-0.15, 0.5]","[0.15, 0.5]",1,1,0,13,13,13,0,0,0,3,,,,,,,,,,,,,,,,,,,,,,,,,,,,,,,,,,,,,,,,,,,,,,,,,,,,,,,,,,,,,,,279.2264854109999,None,279.2264854109999,None,279.2264854109999,None,g,1,1.7661712899998747,280.7429638959993,None,280.7429638959993,None,280.7429638959993,None,282.5455031769998,None,282.5455031769998,None,282.5455031769998,None,282.5455031769998,None,,,,,,,,,,,,,,,,,,,,,,,,,,,,,,,,,,,,,,,,,,,,001,29,2020_Jan_30_0958,spring_faces,3.1.5,59.99581301217309,
condition files/Stage0c_2.xlsx,0c,phi,alpha,h,"['h', 'g']","['Chess', 'Go']","[-0.15, 0.5]","[0.15, 0.5]",1,1,0,13,13,13,0,1,1,1,,,,,,,,,,,,,,,,,,,,,,,,,,,,,,,,,,,,,,,,,,,,,,,,,,,,,,,,,,,,,,,284.52625752899985,None,284.52625752899985,None,284.52625752899985,None,h,1,0.9136431910001193,286.05953347299965,None,286.05953347299965,None,286.05953347299965,None,287.02633067699935,None,287.02633067699935,None,287.02633067699935,None,287.02633067699935,None,,,,,,,,,,,,,,,,,,,,,,,,,,,,,,,,,,,,,,,,,,,,001,29,2020_Jan_30_0958,spring_faces,3.1.5,59.99581301217309,
condition files/Stage0c_2.xlsx,0c,alpha,theta,h,"['h', 'g']","['Chess', 'Go']","[-0.15, 0.5]","[0.15, 0.5]",1,1,0,13,13,13,0,2,2,0,,,,,,,,,,,,,,,,,,,,,,,,,,,,,,,,,,,,,,,,,,,,,,,,,,,,,,,,,,,,,,,288.99298257099963,None,288.99298257099963,None,288.99298257099963,None,h,1,1.6306816729993443,290.52644769199924,None,290.52644769199924,None,290.52644769199924,None,292.19500240699927,None,292.19500240699927,None,292.19500240699927,None,292.19500240699927,None,,,,,,,,,,,,,,,,,,,,,,,,,,,,,,,,,,,,,,,,,,,,001,29,2020_Jan_30_0958,spring_faces,3.1.5,59.99581301217309,
condition files/Stage0c_2.xlsx,0c,theta,beta,g,"['h', 'g']","['Chess', 'Go']","[-0.15, 0.5]","[0.15, 0.5]",1,1,0,13,13,13,0,3,3,2,,,,,,,,,,,,,,,,,,,,,,,,,,,,,,,,,,,,,,,,,,,,,,,,,,,,,,,,,,,,,,,294.1762090459997,None,294.1762090459997,None,294.1762090459997,None,g,1,1.6952305879995038,295.7098745409994,None,295.7098745409994,None,295.7098745409994,None,297.4598897219994,None,297.4598897219994,None,297.4598897219994,None,297.4598897219994,None,,,,,,,,,,,,,,,,,,,,,,,,,,,,,,,,,,,,,,,,,,,,001,29,2020_Jan_30_0958,spring_faces,3.1.5,59.99581301217309,
condition files/Stage0c_1.xlsx,0c,theta,alpha,h,"['h', 'g']","['Chess', 'Go']","[-0.15, 0.5]","[0.15, 0.5]",1,1,0,14,14,14,0,0,0,0,,,,,,,,,,,,,,,,,,,,,,,,,,,,,,,,,,,,,,,,,,,,,,,,,,,,,,,,,,,,,,,299.442919825,None,299.442919825,None,299.442919825,None,h,1,1.2284799869994458,300.97665106599925,None,300.97665106599925,None,300.97665106599925,None,302.2597445449992,None,302.2597445449992,None,302.2597445449992,None,302.2597445449992,None,,,,,,,,,,,,,,,,,,,,,,,,,,,,,,,,,,,,,,,,,,,,001,29,2020_Jan_30_0958,spring_faces,3.1.5,59.99581301217309,
condition files/Stage0c_1.xlsx,0c,phi,beta,g,"['h', 'g']","['Chess', 'Go']","[-0.15, 0.5]","[0.15, 0.5]",1,1,0,14,14,14,0,1,1,3,,,,,,,,,,,,,,,,,,,,,,,,,,,,,,,,,,,,,,,,,,,,,,,,,,,,,,,,,,,,,,,304.2262202129996,None,304.2262202129996,None,304.2262202129996,None,g,1,1.0215364229998158,305.75961182099945,None,305.75961182099945,None,305.75961182099945,None,306.84305980499994,None,306.84305980499994,None,306.84305980499994,None,306.84305980499994,None,,,,,,,,,,,,,,,,,,,,,,,,,,,,,,,,,,,,,,,,,,,,001,29,2020_Jan_30_0958,spring_faces,3.1.5,59.99581301217309,
condition files/Stage0c_1.xlsx,0c,beta,theta,g,"['h', 'g']","['Chess', 'Go']","[-0.15, 0.5]","[0.15, 0.5]",1,1,0,14,14,14,0,2,2,2,,,,,,,,,,,,,,,,,,,,,,,,,,,,,,,,,,,,,,,,,,,,,,,,,,,,,,,,,,,,,,,308.8095459819997,None,308.8095459819997,None,308.8095459819997,None,g,1,2.5497812630001135,310.34334937099993,None,310.34334937099993,None,310.34334937099993,None,312.9280125759997,None,312.9280125759997,None,312.9280125759997,None,312.9280125759997,None,,,,,,,,,,,,,,,,,,,,,,,,,,,,,,,,,,,,,,,,,,,,001,29,2020_Jan_30_0958,spring_faces,3.1.5,59.99581301217309,
condition files/Stage0c_1.xlsx,0c,alpha,phi,h,"['h', 'g']","['Chess', 'Go']","[-0.15, 0.5]","[0.15, 0.5]",1,1,0,14,14,14,0,3,3,1,,,,,,,,,,,,,,,,,,,,,,,,,,,,,,,,,,,,,,,,,,,,,,,,,,,,,,,,,,,,,,,314.9264056969996,None,314.9264056969996,None,314.9264056969996,None,h,1,0.8504423730000781,316.44262769099987,None,316.44262769099987,None,316.44262769099987,None,317.3428656019996,None,317.3428656019996,None,317.3428656019996,None,317.3428656019996,None,,,,,,,,,,,,,,,,,,,,,,,,,,,,,,,,,,,,,,,,,,,,001,29,2020_Jan_30_0958,spring_faces,3.1.5,59.99581301217309,
condition files/Stage0c_2.xlsx,0c,alpha,theta,h,"['h', 'g']","['Chess', 'Go']","[-0.15, 0.5]","[0.15, 0.5]",1,1,0,15,15,15,0,0,0,0,,,,,,,,,,,,,,,,,,,,,,,,,,,,,,,,,,,,,,,,,,,,,,,,,,,,,,,,,,,,,,,319.3264343179999,None,319.3264343179999,None,319.3264343179999,None,h,1,1.4257057350005198,320.8595073289998,None,320.8595073289998,None,320.8595073289998,None,322.3291929289999,None,322.3291929289999,None,322.3291929289999,None,322.3291929289999,None,,,,,,,,,,,,,,,,,,,,,,,,,,,,,,,,,,,,,,,,,,,,001,29,2020_Jan_30_0958,spring_faces,3.1.5,59.99581301217309,
condition files/Stage0c_2.xlsx,0c,beta,phi,g,"['h', 'g']","['Chess', 'Go']","[-0.15, 0.5]","[0.15, 0.5]",1,1,0,15,15,15,0,1,1,3,,,,,,,,,,,,,,,,,,,,,,,,,,,,,,,,,,,,,,,,,,,,,,,,,,,,,,,,,,,,,,,324.3096008849998,None,324.3096008849998,None,324.3096008849998,None,g,1,0.7778890310000861,325.8432104479998,None,325.8432104479998,None,325.8432104479998,None,326.6761491319994,None,326.6761491319994,None,326.6761491319994,None,326.6761491319994,None,,,,,,,,,,,,,,,,,,,,,,,,,,,,,,,,,,,,,,,,,,,,001,29,2020_Jan_30_0958,spring_faces,3.1.5,59.99581301217309,
condition files/Stage0c_2.xlsx,0c,theta,beta,g,"['h', 'g']","['Chess', 'Go']","[-0.15, 0.5]","[0.15, 0.5]",1,1,0,15,15,15,0,2,2,2,,,,,,,,,,,,,,,,,,,,,,,,,,,,,,,,,,,,,,,,,,,,,,,,,,,,,,,,,,,,,,,328.64250224399984,None,328.64250224399984,None,328.64250224399984,None,g,1,1.70877864600061,330.1764157179996,None,330.1764157179996,None,330.1764157179996,None,331.9271197019998,None,331.9271197019998,None,331.9271197019998,None,331.9271197019998,None,,,,,,,,,,,,,,,,,,,,,,,,,,,,,,,,,,,,,,,,,,,,001,29,2020_Jan_30_0958,spring_faces,3.1.5,59.99581301217309,
condition files/Stage0c_2.xlsx,0c,phi,alpha,h,"['h', 'g']","['Chess', 'Go']","[-0.15, 0.5]","[0.15, 0.5]",1,1,0,15,15,15,0,3,3,1,,,,,,,,,,,,,,,,,,,,,,,,,,,,,,,,,,,,,,,,,,,,,,,,,,,,,,,,,,,,,,,333.90956435799944,None,333.90956435799944,None,333.90956435799944,None,h,1,1.433968319000087,335.4431465769994,None,335.4431465769994,None,335.4431465769994,None,336.94281246399987,None,336.94281246399987,None,336.94281246399987,None,336.94281246399987,None,,,,,,,,,,,,,,,,,,,,,,,,,,,,,,,,,,,,,,,,,,,,001,29,2020_Jan_30_0958,spring_faces,3.1.5,59.99581301217309,
condition files/Stage0c_1.xlsx,0c,theta,alpha,h,"['h', 'g']","['Chess', 'Go']","[-0.15, 0.5]","[0.15, 0.5]",1,1,0,16,16,16,0,0,0,0,,,,,,,,,,,,,,,,,,,,,,,,,,,,,,,,,,,,,,,,,,,,,,,,,,,,,,,,,,,,,,,338.92670018899935,None,338.92670018899935,None,338.92670018899935,None,h,1,4.657454526000038,340.4597562099998,None,340.4597562099998,None,340.4597562099998,None,345.1630628799994,None,345.1630628799994,None,345.1630628799994,None,345.1630628799994,None,,,,,,,,,,,,,,,,,,,,,,,,,,,,,,,,,,,,,,,,,,,,001,29,2020_Jan_30_0958,spring_faces,3.1.5,59.99581301217309,
condition files/Stage0c_1.xlsx,0c,phi,beta,g,"['h', 'g']","['Chess', 'Go']","[-0.15, 0.5]","[0.15, 0.5]",1,1,0,16,16,16,0,1,1,3,,,,,,,,,,,,,,,,,,,,,,,,,,,,,,,,,,,,,,,,,,,,,,,,,,,,,,,,,,,,,,,347.14279051499943,None,347.14279051499943,None,347.14279051499943,None,g,1,2.4247004819999347,348.6765146359994,None,348.6765146359994,None,348.6765146359994,None,351.1597780229995,None,351.1597780229995,None,351.1597780229995,None,351.1597780229995,None,,,,,,,,,,,,,,,,,,,,,,,,,,,,,,,,,,,,,,,,,,,,001,29,2020_Jan_30_0958,spring_faces,3.1.5,59.99581301217309,
condition files/Stage0c_1.xlsx,0c,beta,theta,g,"['h', 'g']","['Chess', 'Go']","[-0.15, 0.5]","[0.15, 0.5]",1,1,0,16,16,16,0,2,2,2,,,,,,,,,,,,,,,,,,,,,,,,,,,,,,,,,,,,,,,,,,,,,,,,,,,,,,,,,,,,,,,353.1262057119993,None,353.1262057119993,None,353.1262057119993,None,g,1,4.121789851999893,354.6593555849995,None,354.6593555849995,None,354.6593555849995,None,358.827744188,None,358.827744188,None,358.827744188,None,358.827744188,None,,,,,,,,,,,,,,,,,,,,,,,,,,,,,,,,,,,,,,,,,,,,001,29,2020_Jan_30_0958,spring_faces,3.1.5,59.99581301217309,
condition files/Stage0c_1.xlsx,0c,alpha,phi,h,"['h', 'g']","['Chess', 'Go']","[-0.15, 0.5]","[0.15, 0.5]",1,1,0,16,16,16,0,3,3,1,,,,,,,,,,,,,,,,,,,,,,,,,,,,,,,,,,,,,,,,,,,,,,,,,,,,,,,,,,,,,,,360.8095394079992,None,360.8095394079992,None,360.8095394079992,None,h,1,0.9659056250002322,362.343226944,None,362.343226944,None,362.343226944,None,363.3596596219995,None,363.3596596219995,None,363.3596596219995,None,363.3596596219995,None,,,,,,,,,,,,,,,,,,,,,,,,,,,,,,,,,,,,,,,,,,,,001,29,2020_Jan_30_0958,spring_faces,3.1.5,59.99581301217309,
condition files/Stage0c_2.xlsx,0c,alpha,theta,h,"['h', 'g']","['Chess', 'Go']","[-0.15, 0.5]","[0.15, 0.5]",1,1,0,17,17,17,0,0,0,0,,,,,,,,,,,,,,,,,,,,,,,,,,,,,,,,,,,,,,,,,,,,,,,,,,,,,,,,,,,,,,,365.34309262199986,None,365.34309262199986,None,365.34309262199986,None,h,1,1.216750509999656,366.8764056889995,None,366.8764056889995,None,366.8764056889995,None,368.12860614999954,None,368.12860614999954,None,368.12860614999954,None,368.12860614999954,None,,,,,,,,,,,,,,,,,,,,,,,,,,,,,,,,,,,,,,,,,,,,001,29,2020_Jan_30_0958,spring_faces,3.1.5,59.99581301217309,
condition files/Stage0c_2.xlsx,0c,theta,beta,g,"['h', 'g']","['Chess', 'Go']","[-0.15, 0.5]","[0.15, 0.5]",1,1,0,17,17,17,0,1,1,2,,,,,,,,,,,,,,,,,,,,,,,,,,,,,,,,,,,,,,,,,,,,,,,,,,,,,,,,,,,,,,,370.10991208999985,None,370.10991208999985,None,370.10991208999985,None,g,1,1.9864000309999028,371.64275250899937,None,371.64275250899937,None,371.64275250899937,None,373.6932727909998,None,373.6932727909998,None,373.6932727909998,None,373.6932727909998,None,,,,,,,,,,,,,,,,,,,,,,,,,,,,,,,,,,,,,,,,,,,,001,29,2020_Jan_30_0958,spring_faces,3.1.5,59.99581301217309,
condition files/Stage0c_2.xlsx,0c,beta,phi,g,"['h', 'g']","['Chess', 'Go']","[-0.15, 0.5]","[0.15, 0.5]",1,1,0,17,17,17,0,2,2,3,,,,,,,,,,,,,,,,,,,,,,,,,,,,,,,,,,,,,,,,,,,,,,,,,,,,,,,,,,,,,,,375.6595404109994,None,375.6595404109994,None,375.6595404109994,None,g,1,0.9961812780002219,377.19295793999936,None,377.19295793999936,None,377.19295793999936,None,378.22819798099954,None,378.22819798099954,None,378.22819798099954,None,378.22819798099954,None,,,,,,,,,,,,,,,,,,,,,,,,,,,,,,,,,,,,,,,,,,,,001,29,2020_Jan_30_0958,spring_faces,3.1.5,59.99581301217309,
condition files/Stage0c_2.xlsx,0c,phi,alpha,h,"['h', 'g']","['Chess', 'Go']","[-0.15, 0.5]","[0.15, 0.5]",1,1,0,17,17,17,0,3,3,1,,,,,,,,,,,,,,,,,,,,,,,,,,,,,,,,,,,,,,,,,,,,,,,,,,,,,,,,,,,,,,,380.20901432899973,None,380.20901432899973,None,380.20901432899973,None,h,1,1.8705950490002579,381.74254680799913,None,381.74254680799913,None,381.74254680799913,None,383.67604336299974,None,383.67604336299974,None,383.67604336299974,None,383.67604336299974,None,,,,,,,,,,,,,,,,,,,,,,,,,,,,,,,,,,,,,,,,,,,,001,29,2020_Jan_30_0958,spring_faces,3.1.5,59.99581301217309,
,,,,,,,,,,,,,,,,,,,,,,,,,,,,,,,,,,,,,,,,,,,,,,,,,,,,,,,,,,,,,,,,,,,,,,,,,,,,,,,,,,,,,,,,,,,,,,,,,,,,,,,,385.65985894299956,None,space,3.3536352709998027,390.6595219489991,None,,,,,,,,,,,,,,,,,,,,,,,,,,,,,,,,,,,,,,001,29,2020_Jan_30_0958,spring_faces,3.1.5,59.99581301217309,
condition files/Stage1_1.xlsx,,T2,B2,m,"['c', 'm']","['Clue', 'Monopoly']","[-0.15, 0.5]","[0.15, 0.5]",1,1,,,,,,,,,0,0,0,0,0,0,0,3,,,,,,,,,,,,,,,,,,,,,,,,,,,,,,,,,,,,,,,,,,,,,,,,,,,,,,,394.07610932699936,None,394.07610932699936,None,394.07610932699936,None,c,0,0.8677549909998561,395.60934163299953,None,395.60934163299953,None,395.60934163299953,None,396.5599240469992,None,396.5599240469992,None,396.5599240469992,None,396.5599240469992,None,,,,,,,390.6595219489991,None,,,,,,,,,,,,,,,,,,,,,,,,,,,,,,,,,,,,001,29,2020_Jan_30_0958,spring_faces,3.1.5,59.99581301217309,
condition files/Stage1_1.xlsx,,B1,T2,c,"['c', 'm']","['Clue', 'Monopoly']","[-0.15, 0.5]","[0.15, 0.5]",1,1,,,,,,,,,0,0,0,0,0,1,1,1,,,,,,,,,,,,,,,,,,,,,,,,,,,,,,,,,,,,,,,,,,,,,,,,,,,,,,,398.5096707439998,None,398.5096707439998,None,398.5096707439998,None,c,1,1.0730672600002436,400.0760898789995,None,400.0760898789995,None,400.0760898789995,None,401.2109597109993,None,401.2109597109993,None,401.2109597109993,None,401.2109597109993,None,,,,,,,,,,,,,,,,,,,,,,,,,,,,,,,,,,,,,,,,,,,,001,29,2020_Jan_30_0958,spring_faces,3.1.5,59.99581301217309,
condition files/Stage1_1.xlsx,,B4,T4,m,"['c', 'm']","['Clue', 'Monopoly']","[-0.15, 0.5]","[0.15, 0.5]",1,1,,,,,,,,,0,0,0,0,0,2,2,7,,,,,,,,,,,,,,,,,,,,,,,,,,,,,,,,,,,,,,,,,,,,,,,,,,,,,,,403.1762396539998,None,403.1762396539998,None,403.1762396539998,None,m,1,2.0870598539995626,404.72608757799935,None,404.72608757799935,None,404.72608757799935,None,406.8932701269996,None,406.8932701269996,None,406.8932701269996,None,406.8932701269996,None,,,,,,,,,,,,,,,,,,,,,,,,,,,,,,,,,,,,,,,,,,,,001,29,2020_Jan_30_0958,spring_faces,3.1.5,59.99581301217309,
condition files/Stage1_1.xlsx,,B3,T3,c,"['c', 'm']","['Clue', 'Monopoly']","[-0.15, 0.5]","[0.15, 0.5]",1,1,,,,,,,,,0,0,0,0,0,3,3,4,,,,,,,,,,,,,,,,,,,,,,,,,,,,,,,,,,,,,,,,,,,,,,,,,,,,,,,408.84244979399955,None,408.84244979399955,None,408.84244979399955,None,c,1,2.75571145899994,410.4094330069993,None,410.4094330069993,None,410.4094330069993,None,413.2273711209991,None,413.2273711209991,None,413.2273711209991,None,413.2273711209991,None,,,,,,,,,,,,,,,,,,,,,,,,,,,,,,,,,,,,,,,,,,,,001,29,2020_Jan_30_0958,spring_faces,3.1.5,59.99581301217309,
condition files/Stage1_1.xlsx,,T1,B1,c,"['c', 'm']","['Clue', 'Monopoly']","[-0.15, 0.5]","[0.15, 0.5]",1,1,,,,,,,,,0,0,0,0,0,4,4,0,,,,,,,,,,,,,,,,,,,,,,,,,,,,,,,,,,,,,,,,,,,,,,,,,,,,,,,415.1928966809992,None,415.1928966809992,None,415.1928966809992,None,c,1,1.5259284800004025,416.7432701889993,None,416.7432701889993,None,416.7432701889993,None,418.3266894929993,None,418.3266894929993,None,418.3266894929993,None,418.3266894929993,None,,,,,,,,,,,,,,,,,,,,,,,,,,,,,,,,,,,,,,,,,,,,001,29,2020_Jan_30_0958,spring_faces,3.1.5,59.99581301217309,
condition files/Stage1_1.xlsx,,B2,T1,m,"['c', 'm']","['Clue', 'Monopoly']","[-0.15, 0.5]","[0.15, 0.5]",1,1,,,,,,,,,0,0,0,0,0,5,5,2,,,,,,,,,,,,,,,,,,,,,,,,,,,,,,,,,,,,,,,,,,,,,,,,,,,,,,,420.29287145499984,None,420.29287145499984,None,420.29287145499984,None,c,0,3.1937856530003046,421.8273058549994,None,421.8273058549994,None,421.8273058549994,None,425.0785045139992,None,425.0785045139992,None,425.0785045139992,None,425.0785045139992,None,,,,,,,,,,,,,,,,,,,,,,,,,,,,,,,,,,,,,,,,,,,,001,29,2020_Jan_30_0958,spring_faces,3.1.5,59.99581301217309,
condition files/Stage1_1.xlsx,,T4,B3,m,"['c', 'm']","['Clue', 'Monopoly']","[-0.15, 0.5]","[0.15, 0.5]",1,1,,,,,,,,,0,0,0,0,0,6,6,6,,,,,,,,,,,,,,,,,,,,,,,,,,,,,,,,,,,,,,,,,,,,,,,,,,,,,,,427.04305375499916,None,427.04305375499916,None,427.04305375499916,None,m,1,1.322437025999534,428.5787913759996,None,428.5787913759996,None,428.5787913759996,None,429.9600343839993,None,429.9600343839993,None,429.9600343839993,None,429.9600343839993,None,,,,,,,,,,,,,,,,,,,,,,,,,,,,,,,,,,,,,,,,,,,,001,29,2020_Jan_30_0958,spring_faces,3.1.5,59.99581301217309,
condition files/Stage1_1.xlsx,,T3,B4,c,"['c', 'm']","['Clue', 'Monopoly']","[-0.15, 0.5]","[0.15, 0.5]",1,1,,,,,,,,,0,0,0,0,0,7,7,5,,,,,,,,,,,,,,,,,,,,,,,,,,,,,,,,,,,,,,,,,,,,,,,,,,,,,,,431.9255991049995,None,431.9255991049995,None,431.9255991049995,None,m,0,1.6070452559997648,433.4621635169997,None,433.4621635169997,None,433.4621635169997,None,435.12621067299915,None,435.12621067299915,None,435.12621067299915,None,435.12621067299915,None,,,,,,,,,,,,,,,,,,,,,,,,,,,,,,,,,,,,,,,,,,,,001,29,2020_Jan_30_0958,spring_faces,3.1.5,59.99581301217309,
condition files/Stage1_2.xlsx,,B4,T3,c,"['c', 'm']","['Clue', 'Monopoly']","[-0.15, 0.5]","[0.15, 0.5]",1,1,,,,,,,,,0,1,1,1,0,0,0,5,,,,,,,,,,,,,,,,,,,,,,,,,,,,,,,,,,,,,,,,,,,,,,,,,,,,,,,437.1099817529994,None,437.1099817529994,None,437.1099817529994,None,c,1,0.9529007690007347,438.64426662499955,None,438.64426662499955,None,438.64426662499955,None,439.65922233499987,None,439.65922233499987,None,439.65922233499987,None,439.65922233499987,None,,,,,,,,,,,,,,,,,,,,,,,,,,,,,,,,,,,,,,,,,,,,001,29,2020_Jan_30_0958,spring_faces,3.1.5,59.99581301217309,
condition files/Stage1_2.xlsx,,T3,B3,c,"['c', 'm']","['Clue', 'Monopoly']","[-0.15, 0.5]","[0.15, 0.5]",1,1,,,,,,,,,0,1,1,1,0,1,1,4,,,,,,,,,,,,,,,,,,,,,,,,,,,,,,,,,,,,,,,,,,,,,,,,,,,,,,,441.6262083779993,None,441.6262083779993,None,441.6262083779993,None,m,0,2.901466481999705,443.15963309499966,None,443.15963309499966,None,443.15963309499966,None,446.12593820299935,None,446.12593820299935,None,446.12593820299935,None,446.12593820299935,None,,,,,,,,,,,,,,,,,,,,,,,,,,,,,,,,,,,,,,,,,,,,001,29,2020_Jan_30_0958,spring_faces,3.1.5,59.99581301217309,
condition files/Stage1_2.xlsx,,T1,B2,m,"['c', 'm']","['Clue', 'Monopoly']","[-0.15, 0.5]","[0.15, 0.5]",1,1,,,,,,,,,0,1,1,1,0,2,2,2,,,,,,,,,,,,,,,,,,,,,,,,,,,,,,,,,,,,,,,,,,,,,,,,,,,,,,,448.0928888419994,None,448.0928888419994,None,448.0928888419994,None,c,0,2.2733263039999656,449.62791252199986,None,449.62791252199986,None,449.62791252199986,None,451.9603554999994,None,451.9603554999994,None,451.9603554999994,None,451.9603554999994,None,,,,,,,,,,,,,,,,,,,,,,,,,,,,,,,,,,,,,,,,,,,,001,29,2020_Jan_30_0958,spring_faces,3.1.5,59.99581301217309,
condition files/Stage1_2.xlsx,,B1,T1,c,"['c', 'm']","['Clue', 'Monopoly']","[-0.15, 0.5]","[0.15, 0.5]",1,1,,,,,,,,,0,1,1,1,0,3,3,0,,,,,,,,,,,,,,,,,,,,,,,,,,,,,,,,,,,,,,,,,,,,,,,,,,,,,,,453.9262241229999,None,453.9262241229999,None,453.9262241229999,None,c,1,1.8656957809998858,455.459458845,None,455.459458845,None,455.459458845,None,457.3931356659996,None,457.3931356659996,None,457.3931356659996,None,457.3931356659996,None,,,,,,,,,,,,,,,,,,,,,,,,,,,,,,,,,,,,,,,,,,,,001,29,2020_Jan_30_0958,spring_faces,3.1.5,59.99581301217309,
condition files/Stage1_2.xlsx,,T2,B1,c,"['c', 'm']","['Clue', 'Monopoly']","[-0.15, 0.5]","[0.15, 0.5]",1,1,,,,,,,,,0,1,1,1,0,4,4,1,,,,,,,,,,,,,,,,,,,,,,,,,,,,,,,,,,,,,,,,,,,,,,,,,,,,,,,459.3431714799999,None,459.3431714799999,None,459.3431714799999,None,c,1,1.8882142760003262,460.8769136609999,None,460.8769136609999,None,460.8769136609999,None,462.82580276499993,None,462.82580276499993,None,462.82580276499993,None,462.82580276499993,None,,,,,,,,,,,,,,,,,,,,,,,,,,,,,,,,,,,,,,,,,,,,001,29,2020_Jan_30_0958,spring_faces,3.1.5,59.99581301217309,
condition files/Stage1_2.xlsx,,T4,B4,m,"['c', 'm']","['Clue', 'Monopoly']","[-0.15, 0.5]","[0.15, 0.5]",1,1,,,,,,,,,0,1,1,1,0,5,5,7,,,,,,,,,,,,,,,,,,,,,,,,,,,,,,,,,,,,,,,,,,,,,,,,,,,,,,,464.79275555799995,None,464.79275555799995,None,464.79275555799995,None,m,1,0.7254390130001411,466.32778536099977,None,466.32778536099977,None,466.32778536099977,None,467.12622434199966,None,467.12622434199966,None,467.12622434199966,None,467.12622434199966,None,,,,,,,,,,,,,,,,,,,,,,,,,,,,,,,,,,,,,,,,,,,,001,29,2020_Jan_30_0958,spring_faces,3.1.5,59.99581301217309,
condition files/Stage1_2.xlsx,,B3,T4,m,"['c', 'm']","['Clue', 'Monopoly']","[-0.15, 0.5]","[0.15, 0.5]",1,1,,,,,,,,,0,1,1,1,0,6,6,6,,,,,,,,,,,,,,,,,,,,,,,,,,,,,,,,,,,,,,,,,,,,,,,,,,,,,,,469.07626018099927,None,469.07626018099927,None,469.07626018099927,None,m,1,1.2104612809998798,470.6266666469992,None,470.6266666469992,None,470.6266666469992,None,471.89311507099956,None,471.89311507099956,None,471.89311507099956,None,471.89311507099956,None,,,,,,,,,,,,,,,,,,,,,,,,,,,,,,,,,,,,,,,,,,,,001,29,2020_Jan_30_0958,spring_faces,3.1.5,59.99581301217309,
condition files/Stage1_2.xlsx,,B2,T2,m,"['c', 'm']","['Clue', 'Monopoly']","[-0.15, 0.5]","[0.15, 0.5]",1,1,,,,,,,,,0,1,1,1,0,7,7,3,,,,,,,,,,,,,,,,,,,,,,,,,,,,,,,,,,,,,,,,,,,,,,,,,,,,,,,473.8597564059992,None,473.8597564059992,None,473.8597564059992,None,m,1,3.227312912999878,475.40982926799916,None,475.40982926799916,None,475.40982926799916,None,478.6925327359995,None,478.6925327359995,None,478.6925327359995,None,478.6925327359995,None,,,,,,,,,,,,,,,,,,,,,,,,,,,,,,,,,,,,,,,,,,,,001,29,2020_Jan_30_0958,spring_faces,3.1.5,59.99581301217309,
condition files/Stage1_1.xlsx,,B4,T4,m,"['c', 'm']","['Clue', 'Monopoly']","[-0.15, 0.5]","[0.15, 0.5]",1,1,,,,,,,,,0,2,2,2,0,0,0,7,,,,,,,,,,,,,,,,,,,,,,,,,,,,,,,,,,,,,,,,,,,,,,,,,,,,,,,480.67656702399927,None,480.67656702399927,None,480.67656702399927,None,m,1,1.5309733320000305,482.210183016,None,482.210183016,None,482.210183016,None,483.793130002,None,483.793130002,None,483.793130002,None,483.793130002,None,,,,,,,,,,,,,,,,,,,,,,,,,,,,,,,,,,,,,,,,,,,,001,29,2020_Jan_30_0958,spring_faces,3.1.5,59.99581301217309,
condition files/Stage1_1.xlsx,,T3,B4,c,"['c', 'm']","['Clue', 'Monopoly']","[-0.15, 0.5]","[0.15, 0.5]",1,1,,,,,,,,,0,2,2,2,0,1,1,5,,,,,,,,,,,,,,,,,,,,,,,,,,,,,,,,,,,,,,,,,,,,,,,,,,,,,,,485.75881021199984,None,485.75881021199984,None,485.75881021199984,None,c,1,3.8874474220001503,487.3097039989998,None,487.3097039989998,None,487.3097039989998,None,491.25917768899944,None,491.25917768899944,None,491.25917768899944,None,491.25917768899944,None,,,,,,,,,,,,,,,,,,,,,,,,,,,,,,,,,,,,,,,,,,,,001,29,2020_Jan_30_0958,spring_faces,3.1.5,59.99581301217309,
condition files/Stage1_1.xlsx,,B1,T2,c,"['c', 'm']","['Clue', 'Monopoly']","[-0.15, 0.5]","[0.15, 0.5]",1,1,,,,,,,,,0,2,2,2,0,2,2,1,,,,,,,,,,,,,,,,,,,,,,,,,,,,,,,,,,,,,,,,,,,,,,,,,,,,,,,493.2255999459994,None,493.2255999459994,None,493.2255999459994,None,c,1,0.8365089690005334,494.76065119399937,None,494.76065119399937,None,494.76065119399937,None,495.65973146799934,None,495.65973146799934,None,495.65973146799934,None,495.65973146799934,None,,,,,,,,,,,,,,,,,,,,,,,,,,,,,,,,,,,,,,,,,,,,001,29,2020_Jan_30_0958,spring_faces,3.1.5,59.99581301217309,
condition files/Stage1_1.xlsx,,T2,B2,m,"['c', 'm']","['Clue', 'Monopoly']","[-0.15, 0.5]","[0.15, 0.5]",1,1,,,,,,,,,0,2,2,2,0,3,3,3,,,,,,,,,,,,,,,,,,,,,,,,,,,,,,,,,,,,,,,,,,,,,,,,,,,,,,,497.6261846409998,None,497.6261846409998,None,497.6261846409998,None,m,1,1.6367167349999363,499.1764248569998,None,499.1764248569998,None,499.1764248569998,None,500.87770511299914,None,500.87770511299914,None,500.87770511299914,None,500.87770511299914,None,,,,,,,,,,,,,,,,,,,,,,,,,,,,,,,,,,,,,,,,,,,,001,29,2020_Jan_30_0958,spring_faces,3.1.5,59.99581301217309,
condition files/Stage1_1.xlsx,,B2,T1,m,"['c', 'm']","['Clue', 'Monopoly']","[-0.15, 0.5]","[0.15, 0.5]",1,1,,,,,,,,,0,2,2,2,0,4,4,2,,,,,,,,,,,,,,,,,,,,,,,,,,,,,,,,,,,,,,,,,,,,,,,,,,,,,,,502.8427318459999,None,502.8427318459999,None,502.8427318459999,None,m,1,4.580529692999335,504.37660749599945,None,504.37660749599945,None,504.37660749599945,None,509.00997699399977,None,509.00997699399977,None,509.00997699399977,None,509.00997699399977,None,,,,,,,,,,,,,,,,,,,,,,,,,,,,,,,,,,,,,,,,,,,,001,29,2020_Jan_30_0958,spring_faces,3.1.5,59.99581301217309,
condition files/Stage1_1.xlsx,,B3,T3,c,"['c', 'm']","['Clue', 'Monopoly']","[-0.15, 0.5]","[0.15, 0.5]",1,1,,,,,,,,,0,2,2,2,0,5,5,4,,,,,,,,,,,,,,,,,,,,,,,,,,,,,,,,,,,,,,,,,,,,,,,,,,,,,,,510.9763639399998,None,510.9763639399998,None,510.9763639399998,None,m,0,1.7757208470002297,512.509492317,None,512.509492317,None,512.509492317,None,514.3426441759993,None,514.3426441759993,None,514.3426441759993,None,514.3426441759993,None,,,,,,,,,,,,,,,,,,,,,,,,,,,,,,,,,,,,,,,,,,,,001,29,2020_Jan_30_0958,spring_faces,3.1.5,59.99581301217309,
condition files/Stage1_1.xlsx,,T1,B1,c,"['c', 'm']","['Clue', 'Monopoly']","[-0.15, 0.5]","[0.15, 0.5]",1,1,,,,,,,,,0,2,2,2,0,6,6,0,,,,,,,,,,,,,,,,,,,,,,,,,,,,,,,,,,,,,,,,,,,,,,,,,,,,,,,516.3095906249991,None,516.3095906249991,None,516.3095906249991,None,c,1,1.113926809000077,517.8432316689996,None,517.8432316689996,None,517.8432316689996,None,519.0099971789996,None,519.0099971789996,None,519.0099971789996,None,519.0099971789996,None,,,,,,,,,,,,,,,,,,,,,,,,,,,,,,,,,,,,,,,,,,,,001,29,2020_Jan_30_0958,spring_faces,3.1.5,59.99581301217309,
condition files/Stage1_1.xlsx,,T4,B3,m,"['c', 'm']","['Clue', 'Monopoly']","[-0.15, 0.5]","[0.15, 0.5]",1,1,,,,,,,,,0,2,2,2,0,7,7,6,,,,,,,,,,,,,,,,,,,,,,,,,,,,,,,,,,,,,,,,,,,,,,,,,,,,,,,520.97566121,None,520.97566121,None,520.97566121,None,m,1,0.9119043540003986,522.5092547409995,None,522.5092547409995,None,522.5092547409995,None,523.4755639619998,None,523.4755639619998,None,523.4755639619998,None,523.4755639619998,None,,,,,,,,,,,,,,,,,,,,,,,,,,,,,,,,,,,,,,,,,,,,001,29,2020_Jan_30_0958,spring_faces,3.1.5,59.99581301217309,
condition files/Stage1_2.xlsx,,T3,B3,c,"['c', 'm']","['Clue', 'Monopoly']","[-0.15, 0.5]","[0.15, 0.5]",1,1,,,,,,,,,0,3,3,3,0,0,0,4,,,,,,,,,,,,,,,,,,,,,,,,,,,,,,,,,,,,,,,,,,,,,,,,,,,,,,,525.4598869459996,None,525.4598869459996,None,525.4598869459996,None,c,1,1.3403223719997186,526.9929136819992,None,526.9929136819992,None,526.9929136819992,None,528.3934759459999,None,528.3934759459999,None,528.3934759459999,None,528.3934759459999,None,,,,,,,,,,,,,,,,,,,,,,,,,,,,,,,,,,,,,,,,,,,,001,29,2020_Jan_30_0958,spring_faces,3.1.5,59.99581301217309,
condition files/Stage1_2.xlsx,,B4,T3,c,"['c', 'm']","['Clue', 'Monopoly']","[-0.15, 0.5]","[0.15, 0.5]",1,1,,,,,,,,,0,3,3,3,0,1,1,5,,,,,,,,,,,,,,,,,,,,,,,,,,,,,,,,,,,,,,,,,,,,,,,,,,,,,,,530.3595507709997,None,530.3595507709997,None,530.3595507709997,None,m,0,1.9439964329994837,531.8931605769994,None,531.8931605769994,None,531.8931605769994,None,533.8925463019996,None,533.8925463019996,None,533.8925463019996,None,533.8925463019996,None,,,,,,,,,,,,,,,,,,,,,,,,,,,,,,,,,,,,,,,,,,,,001,29,2020_Jan_30_0958,spring_faces,3.1.5,59.99581301217309,
condition files/Stage1_2.xlsx,,B2,T2,m,"['c', 'm']","['Clue', 'Monopoly']","[-0.15, 0.5]","[0.15, 0.5]",1,1,,,,,,,,,0,3,3,3,0,2,2,3,,,,,,,,,,,,,,,,,,,,,,,,,,,,,,,,,,,,,,,,,,,,,,,,,,,,,,,535.8594639899993,None,535.8594639899993,None,535.8594639899993,None,c,0,1.77186875300049,537.3932344739997,None,537.3932344739997,None,537.3932344739997,None,539.2279443219995,None,539.2279443219995,None,539.2279443219995,None,539.2279443219995,None,,,,,,,,,,,,,,,,,,,,,,,,,,,,,,,,,,,,,,,,,,,,001,29,2020_Jan_30_0958,spring_faces,3.1.5,59.99581301217309,
condition files/Stage1_2.xlsx,,B1,T1,c,"['c', 'm']","['Clue', 'Monopoly']","[-0.15, 0.5]","[0.15, 0.5]",1,1,,,,,,,,,0,3,3,3,0,3,3,0,,,,,,,,,,,,,,,,,,,,,,,,,,,,,,,,,,,,,,,,,,,,,,,,,,,,,,,541.1926064929994,None,541.1926064929994,None,541.1926064929994,None,c,1,0.9324294480002209,542.7287044139994,None,542.7287044139994,None,542.7287044139994,None,543.7286757889997,None,543.7286757889997,None,543.7286757889997,None,543.7286757889997,None,,,,,,,,,,,,,,,,,,,,,,,,,,,,,,,,,,,,,,,,,,,,001,29,2020_Jan_30_0958,spring_faces,3.1.5,59.99581301217309,
condition files/Stage1_2.xlsx,,T2,B1,c,"['c', 'm']","['Clue', 'Monopoly']","[-0.15, 0.5]","[0.15, 0.5]",1,1,,,,,,,,,0,3,3,3,0,4,4,1,,,,,,,,,,,,,,,,,,,,,,,,,,,,,,,,,,,,,,,,,,,,,,,,,,,,,,,545.6926188169991,None,545.6926188169991,None,545.6926188169991,None,c,1,1.907142887000191,547.2260944789996,None,547.2260944789996,None,547.2260944789996,None,549.192669436,None,549.192669436,None,549.192669436,None,549.192669436,None,,,,,,,,,,,,,,,,,,,,,,,,,,,,,,,,,,,,,,,,,,,,001,29,2020_Jan_30_0958,spring_faces,3.1.5,59.99581301217309,
condition files/Stage1_2.xlsx,,T4,B4,m,"['c', 'm']","['Clue', 'Monopoly']","[-0.15, 0.5]","[0.15, 0.5]",1,1,,,,,,,,,0,3,3,3,0,5,5,7,,,,,,,,,,,,,,,,,,,,,,,,,,,,,,,,,,,,,,,,,,,,,,,,,,,,,,,551.1593270889998,None,551.1593270889998,None,551.1593270889998,None,m,1,1.8474354740001218,552.6937189829996,None,552.6937189829996,None,552.6937189829996,None,554.5936660619991,None,554.5936660619991,None,554.5936660619991,None,554.5936660619991,None,,,,,,,,,,,,,,,,,,,,,,,,,,,,,,,,,,,,,,,,,,,,001,29,2020_Jan_30_0958,spring_faces,3.1.5,59.99581301217309,
condition files/Stage1_2.xlsx,,T1,B2,m,"['c', 'm']","['Clue', 'Monopoly']","[-0.15, 0.5]","[0.15, 0.5]",1,1,,,,,,,,,0,3,3,3,0,6,6,2,,,,,,,,,,,,,,,,,,,,,,,,,,,,,,,,,,,,,,,,,,,,,,,,,,,,,,,556.5597691679995,None,556.5597691679995,None,556.5597691679995,None,c,0,1.230258228000821,558.0948944249994,None,558.0948944249994,None,558.0948944249994,None,559.3762647279991,None,559.3762647279991,None,559.3762647279991,None,559.3762647279991,None,,,,,,,,,,,,,,,,,,,,,,,,,,,,,,,,,,,,,,,,,,,,001,29,2020_Jan_30_0958,spring_faces,3.1.5,59.99581301217309,
condition files/Stage1_2.xlsx,,B3,T4,m,"['c', 'm']","['Clue', 'Monopoly']","[-0.15, 0.5]","[0.15, 0.5]",1,1,,,,,,,,,0,3,3,3,0,7,7,6,,,,,,,,,,,,,,,,,,,,,,,,,,,,,,,,,,,,,,,,,,,,,,,,,,,,,,,561.3428371739992,None,561.3428371739992,None,561.3428371739992,None,m,1,3.9838580430005095,562.8932307329997,None,562.8932307329997,None,562.8932307329997,None,566.9432575859992,None,566.9432575859992,None,566.9432575859992,None,566.9432575859992,None,,,,,,,,,,,,,,,,,,,,,,,,,,,,,,,,,,,,,,,,,,,,001,29,2020_Jan_30_0958,spring_faces,3.1.5,59.99581301217309,
condition files/Stage1_1.xlsx,,B3,T3,c,"['c', 'm']","['Clue', 'Monopoly']","[-0.15, 0.5]","[0.15, 0.5]",1,1,,,,,,,,,0,4,4,4,0,0,0,4,,,,,,,,,,,,,,,,,,,,,,,,,,,,,,,,,,,,,,,,,,,,,,,,,,,,,,,568.9266039409995,None,568.9266039409995,None,568.9266039409995,None,c,1,2.8168521870002223,570.4762622769995,None,570.4762622769995,None,570.4762622769995,None,573.343197745,None,573.343197745,None,573.343197745,None,573.343197745,None,,,,,,,,,,,,,,,,,,,,,,,,,,,,,,,,,,,,,,,,,,,,001,29,2020_Jan_30_0958,spring_faces,3.1.5,59.99581301217309,
condition files/Stage1_1.xlsx,,T1,B1,c,"['c', 'm']","['Clue', 'Monopoly']","[-0.15, 0.5]","[0.15, 0.5]",1,1,,,,,,,,,0,4,4,4,0,1,1,0,,,,,,,,,,,,,,,,,,,,,,,,,,,,,,,,,,,,,,,,,,,,,,,,,,,,,,,575.3093300749997,None,575.3093300749997,None,575.3093300749997,None,c,1,3.1527071569998952,576.8444581509993,None,576.8444581509993,None,576.8444581509993,None,580.0598104749997,None,580.0598104749997,None,580.0598104749997,None,580.0598104749997,None,,,,,,,,,,,,,,,,,,,,,,,,,,,,,,,,,,,,,,,,,,,,001,29,2020_Jan_30_0958,spring_faces,3.1.5,59.99581301217309,
condition files/Stage1_1.xlsx,,B2,T1,m,"['c', 'm']","['Clue', 'Monopoly']","[-0.15, 0.5]","[0.15, 0.5]",1,1,,,,,,,,,0,4,4,4,0,2,2,2,,,,,,,,,,,,,,,,,,,,,,,,,,,,,,,,,,,,,,,,,,,,,,,,,,,,,,,582.0262578459997,None,582.0262578459997,None,582.0262578459997,None,c,0,1.8928607649995683,583.5603706399997,None,583.5603706399997,None,583.5603706399997,None,585.5262378729994,None,585.5262378729994,None,585.5262378729994,None,585.5262378729994,None,,,,,,,,,,,,,,,,,,,,,,,,,,,,,,,,,,,,,,,,,,,,001,29,2020_Jan_30_0958,spring_faces,3.1.5,59.99581301217309,
condition files/Stage1_1.xlsx,,T4,B3,m,"['c', 'm']","['Clue', 'Monopoly']","[-0.15, 0.5]","[0.15, 0.5]",1,1,,,,,,,,,0,4,4,4,0,3,3,6,,,,,,,,,,,,,,,,,,,,,,,,,,,,,,,,,,,,,,,,,,,,,,,,,,,,,,,587.4762893769994,None,587.4762893769994,None,587.4762893769994,None,m,1,0.7463365419998809,589.0108221169994,None,589.0108221169994,None,589.0108221169994,None,589.8095600369998,None,589.8095600369998,None,589.8095600369998,None,589.8095600369998,None,,,,,,,,,,,,,,,,,,,,,,,,,,,,,,,,,,,,,,,,,,,,001,29,2020_Jan_30_0958,spring_faces,3.1.5,59.99581301217309,
condition files/Stage1_1.xlsx,,T3,B4,c,"['c', 'm']","['Clue', 'Monopoly']","[-0.15, 0.5]","[0.15, 0.5]",1,1,,,,,,,,,0,4,4,4,0,4,4,5,,,,,,,,,,,,,,,,,,,,,,,,,,,,,,,,,,,,,,,,,,,,,,,,,,,,,,,591.7756537809992,None,591.7756537809992,None,591.7756537809992,None,m,0,3.9836097799998242,593.3095084939996,None,593.3095084939996,None,593.3095084939996,None,597.359783205,None,597.359783205,None,597.359783205,None,597.359783205,None,,,,,,,,,,,,,,,,,,,,,,,,,,,,,,,,,,,,,,,,,,,,001,29,2020_Jan_30_0958,spring_faces,3.1.5,59.99581301217309,
condition files/Stage1_1.xlsx,,T2,B2,m,"['c', 'm']","['Clue', 'Monopoly']","[-0.15, 0.5]","[0.15, 0.5]",1,1,,,,,,,,,0,4,4,4,0,5,5,3,,,,,,,,,,,,,,,,,,,,,,,,,,,,,,,,,,,,,,,,,,,,,,,,,,,,,,,599.3264321029992,None,599.3264321029992,None,599.3264321029992,None,m,1,1.537259393999193,600.8599111639996,None,600.8599111639996,None,600.8599111639996,None,602.4761883149995,None,602.4761883149995,None,602.4761883149995,None,602.4761883149995,None,,,,,,,,,,,,,,,,,,,,,,,,,,,,,,,,,,,,,,,,,,,,001,29,2020_Jan_30_0958,spring_faces,3.1.5,59.99581301217309,
condition files/Stage1_1.xlsx,,B1,T2,c,"['c', 'm']","['Clue', 'Monopoly']","[-0.15, 0.5]","[0.15, 0.5]",1,1,,,,,,,,,0,4,4,4,0,6,6,1,,,,,,,,,,,,,,,,,,,,,,,,,,,,,,,,,,,,,,,,,,,,,,,,,,,,,,,604.4262956289995,None,604.4262956289995,None,604.4262956289995,None,c,1,3.3019569039997805,605.9591482649994,None,605.9591482649994,None,605.9591482649994,None,609.3265293439999,None,609.3265293439999,None,609.3265293439999,None,609.3265293439999,None,,,,,,,,,,,,,,,,,,,,,,,,,,,,,,,,,,,,,,,,,,,,001,29,2020_Jan_30_0958,spring_faces,3.1.5,59.99581301217309,
condition files/Stage1_1.xlsx,,B4,T4,m,"['c', 'm']","['Clue', 'Monopoly']","[-0.15, 0.5]","[0.15, 0.5]",1,1,,,,,,,,,0,4,4,4,0,7,7,7,,,,,,,,,,,,,,,,,,,,,,,,,,,,,,,,,,,,,,,,,,,,,,,,,,,,,,,611.2929679529998,None,611.2929679529998,None,611.2929679529998,None,m,1,3.2832022559996403,612.8259536269998,None,612.8259536269998,None,612.8259536269998,None,616.1599423549997,None,616.1599423549997,None,616.1599423549997,None,616.1599423549997,None,,,,,,,,,,,,,,,,,,,,,,,,,,,,,,,,,,,,,,,,,,,,001,29,2020_Jan_30_0958,spring_faces,3.1.5,59.99581301217309,
condition files/Stage1_2.xlsx,,B4,T3,c,"['c', 'm']","['Clue', 'Monopoly']","[-0.15, 0.5]","[0.15, 0.5]",1,1,,,,,,,,,0,5,5,5,0,0,0,5,,,,,,,,,,,,,,,,,,,,,,,,,,,,,,,,,,,,,,,,,,,,,,,,,,,,,,,618.143076761,None,618.143076761,None,618.143076761,None,c,1,4.62525076699967,619.6759933119993,None,619.6759933119993,None,619.6759933119993,None,624.3598081799992,None,624.3598081799992,None,624.3598081799992,None,624.3598081799992,None,,,,,,,,,,,,,,,,,,,,,,,,,,,,,,,,,,,,,,,,,,,,001,29,2020_Jan_30_0958,spring_faces,3.1.5,59.99581301217309,
condition files/Stage1_2.xlsx,,T1,B2,m,"['c', 'm']","['Clue', 'Monopoly']","[-0.15, 0.5]","[0.15, 0.5]",1,1,,,,,,,,,0,5,5,5,0,1,1,2,,,,,,,,,,,,,,,,,,,,,,,,,,,,,,,,,,,,,,,,,,,,,,,,,,,,,,,626.3261493029995,None,626.3261493029995,None,626.3261493029995,None,m,1,1.0013886689994251,627.8597026939997,None,627.8597026939997,None,627.8597026939997,None,628.9270786489997,None,628.9270786489997,None,628.9270786489997,None,628.9270786489997,None,,,,,,,,,,,,,,,,,,,,,,,,,,,,,,,,,,,,,,,,,,,,001,29,2020_Jan_30_0958,spring_faces,3.1.5,59.99581301217309,
condition files/Stage1_2.xlsx,,T2,B1,c,"['c', 'm']","['Clue', 'Monopoly']","[-0.15, 0.5]","[0.15, 0.5]",1,1,,,,,,,,,0,5,5,5,0,2,2,1,,,,,,,,,,,,,,,,,,,,,,,,,,,,,,,,,,,,,,,,,,,,,,,,,,,,,,,630.8923336659991,None,630.8923336659991,None,630.8923336659991,None,c,1,1.2350403529999312,632.4260786549994,None,632.4260786549994,None,632.4260786549994,None,633.7290998139997,None,633.7290998139997,None,633.7290998139997,None,633.7290998139997,None,,,,,,,,,,,,,,,,,,,,,,,,,,,,,,,,,,,,,,,,,,,,001,29,2020_Jan_30_0958,spring_faces,3.1.5,59.99581301217309,
condition files/Stage1_2.xlsx,,B1,T1,c,"['c', 'm']","['Clue', 'Monopoly']","[-0.15, 0.5]","[0.15, 0.5]",1,1,,,,,,,,,0,5,5,5,0,3,3,0,,,,,,,,,,,,,,,,,,,,,,,,,,,,,,,,,,,,,,,,,,,,,,,,,,,,,,,635.6929806249991,None,635.6929806249991,None,635.6929806249991,None,c,1,1.4263070699998934,637.2269255369993,None,637.2269255369993,None,637.2269255369993,None,638.7091581159993,None,638.7091581159993,None,638.7091581159993,None,638.7091581159993,None,,,,,,,,,,,,,,,,,,,,,,,,,,,,,,,,,,,,,,,,,,,,001,29,2020_Jan_30_0958,spring_faces,3.1.5,59.99581301217309,
condition files/Stage1_2.xlsx,,B3,T4,m,"['c', 'm']","['Clue', 'Monopoly']","[-0.15, 0.5]","[0.15, 0.5]",1,1,,,,,,,,,0,5,5,5,0,4,4,6,,,,,,,,,,,,,,,,,,,,,,,,,,,,,,,,,,,,,,,,,,,,,,,,,,,,,,,640.6756008709999,None,640.6756008709999,None,640.6756008709999,None,m,1,0.6018048480000289,642.2113582359998,None,642.2113582359998,None,642.2113582359998,None,642.8929528679992,None,642.8929528679992,None,642.8929528679992,None,642.8929528679992,None,,,,,,,,,,,,,,,,,,,,,,,,,,,,,,,,,,,,,,,,,,,,001,29,2020_Jan_30_0958,spring_faces,3.1.5,59.99581301217309,
condition files/Stage1_2.xlsx,,T3,B3,c,"['c', 'm']","['Clue', 'Monopoly']","[-0.15, 0.5]","[0.15, 0.5]",1,1,,,,,,,,,0,5,5,5,0,5,5,4,,,,,,,,,,,,,,,,,,,,,,,,,,,,,,,,,,,,,,,,,,,,,,,,,,,,,,,644.8433979469992,None,644.8433979469992,None,644.8433979469992,None,c,1,1.3968517379998957,646.3923037749992,None,646.3923037749992,None,646.3923037749992,None,647.8435972399993,None,647.8435972399993,None,647.8435972399993,None,647.8435972399993,None,,,,,,,,,,,,,,,,,,,,,,,,,,,,,,,,,,,,,,,,,,,,001,29,2020_Jan_30_0958,spring_faces,3.1.5,59.99581301217309,
condition files/Stage1_2.xlsx,,B2,T2,m,"['c', 'm']","['Clue', 'Monopoly']","[-0.15, 0.5]","[0.15, 0.5]",1,1,,,,,,,,,0,5,5,5,0,6,6,3,,,,,,,,,,,,,,,,,,,,,,,,,,,,,,,,,,,,,,,,,,,,,,,,,,,,,,,649.8088746369995,None,649.8088746369995,None,649.8088746369995,None,m,1,1.4375538549993507,651.3596044889991,None,651.3596044889991,None,651.3596044889991,None,652.875843586,None,652.875843586,None,652.875843586,None,652.875843586,None,,,,,,,,,,,,,,,,,,,,,,,,,,,,,,,,,,,,,,,,,,,,001,29,2020_Jan_30_0958,spring_faces,3.1.5,59.99581301217309,
condition files/Stage1_2.xlsx,,T4,B4,m,"['c', 'm']","['Clue', 'Monopoly']","[-0.15, 0.5]","[0.15, 0.5]",1,1,,,,,,,,,0,5,5,5,0,7,7,7,,,,,,,,,,,,,,,,,,,,,,,,,,,,,,,,,,,,,,,,,,,,,,,,,,,,,,,654.8262272139991,None,654.8262272139991,None,654.8262272139991,None,c,0,4.0372708900004,656.3758737119997,None,656.3758737119997,None,656.3758737119997,None,660.476174206,None,660.476174206,None,660.476174206,None,660.476174206,None,,,,,,,,,,,,,,,,,,,,,,,,,,,,,,,,,,,,,,,,,,,,001,29,2020_Jan_30_0958,spring_faces,3.1.5,59.99581301217309,
condition files/Stage1_1.xlsx,,B1,T2,c,"['c', 'm']","['Clue', 'Monopoly']","[-0.15, 0.5]","[0.15, 0.5]",1,1,,,,,,,,,0,6,6,6,0,0,0,1,,,,,,,,,,,,,,,,,,,,,,,,,,,,,,,,,,,,,,,,,,,,,,,,,,,,,,,662.4594607929994,None,662.4594607929994,None,662.4594607929994,None,c,1,1.539779169999747,664.0094356149993,None,664.0094356149993,None,664.0094356149993,None,665.6263249879994,None,665.6263249879994,None,665.6263249879994,None,665.6263249879994,None,,,,,,,,,,,,,,,,,,,,,,,,,,,,,,,,,,,,,,,,,,,,001,29,2020_Jan_30_0958,spring_faces,3.1.5,59.99581301217309,
condition files/Stage1_1.xlsx,,T3,B4,c,"['c', 'm']","['Clue', 'Monopoly']","[-0.15, 0.5]","[0.15, 0.5]",1,1,,,,,,,,,0,6,6,6,0,1,1,5,,,,,,,,,,,,,,,,,,,,,,,,,,,,,,,,,,,,,,,,,,,,,,,,,,,,,,,667.5761695869996,None,667.5761695869996,None,667.5761695869996,None,c,1,1.7987411989997781,669.110408261,None,669.110408261,None,669.110408261,None,670.9593883599991,None,670.9593883599991,None,670.9593883599991,None,670.9593883599991,None,,,,,,,,,,,,,,,,,,,,,,,,,,,,,,,,,,,,,,,,,,,,001,29,2020_Jan_30_0958,spring_faces,3.1.5,59.99581301217309,
condition files/Stage1_1.xlsx,,T1,B1,c,"['c', 'm']","['Clue', 'Monopoly']","[-0.15, 0.5]","[0.15, 0.5]",1,1,,,,,,,,,0,6,6,6,0,2,2,0,,,,,,,,,,,,,,,,,,,,,,,,,,,,,,,,,,,,,,,,,,,,,,,,,,,,,,,672.9259146609993,None,672.9259146609993,None,672.9259146609993,None,c,1,1.7448985880000691,674.4602620309997,None,674.4602620309997,None,674.4602620309997,None,676.2594099589996,None,676.2594099589996,None,676.2594099589996,None,676.2594099589996,None,,,,,,,,,,,,,,,,,,,,,,,,,,,,,,,,,,,,,,,,,,,,001,29,2020_Jan_30_0958,spring_faces,3.1.5,59.99581301217309,
condition files/Stage1_1.xlsx,,T2,B2,m,"['c', 'm']","['Clue', 'Monopoly']","[-0.15, 0.5]","[0.15, 0.5]",1,1,,,,,,,,,0,6,6,6,0,3,3,3,,,,,,,,,,,,,,,,,,,,,,,,,,,,,,,,,,,,,,,,,,,,,,,,,,,,,,,678.2256467249999,None,678.2256467249999,None,678.2256467249999,None,m,1,1.5952998520006076,679.7618629969993,None,679.7618629969993,None,679.7618629969993,None,681.4265774099995,None,681.4265774099995,None,681.4265774099995,None,681.4265774099995,None,,,,,,,,,,,,,,,,,,,,,,,,,,,,,,,,,,,,,,,,,,,,001,29,2020_Jan_30_0958,spring_faces,3.1.5,59.99581301217309,
condition files/Stage1_1.xlsx,,B3,T3,c,"['c', 'm']","['Clue', 'Monopoly']","[-0.15, 0.5]","[0.15, 0.5]",1,1,,,,,,,,,0,6,6,6,0,4,4,4,,,,,,,,,,,,,,,,,,,,,,,,,,,,,,,,,,,,,,,,,,,,,,,,,,,,,,,683.3763482239992,None,683.3763482239992,None,683.3763482239992,None,c,1,1.950916313999187,684.9261889139998,None,684.9261889139998,None,684.9261889139998,None,686.9427226939997,None,686.9427226939997,None,686.9427226939997,None,686.9427226939997,None,,,,,,,,,,,,,,,,,,,,,,,,,,,,,,,,,,,,,,,,,,,,001,29,2020_Jan_30_0958,spring_faces,3.1.5,59.99581301217309,
condition files/Stage1_1.xlsx,,T4,B3,m,"['c', 'm']","['Clue', 'Monopoly']","[-0.15, 0.5]","[0.15, 0.5]",1,1,,,,,,,,,0,6,6,6,0,5,5,6,,,,,,,,,,,,,,,,,,,,,,,,,,,,,,,,,,,,,,,,,,,,,,,,,,,,,,,688.9095801429994,None,688.9095801429994,None,688.9095801429994,None,m,1,2.417059601000801,690.4440978149996,None,690.4440978149996,None,690.4440978149996,None,692.9430168739991,None,692.9430168739991,None,692.9430168739991,None,692.9430168739991,None,,,,,,,,,,,,,,,,,,,,,,,,,,,,,,,,,,,,,,,,,,,,001,29,2020_Jan_30_0958,spring_faces,3.1.5,59.99581301217309,
condition files/Stage1_1.xlsx,,B2,T1,m,"['c', 'm']","['Clue', 'Monopoly']","[-0.15, 0.5]","[0.15, 0.5]",1,1,,,,,,,,,0,6,6,6,0,6,6,2,,,,,,,,,,,,,,,,,,,,,,,,,,,,,,,,,,,,,,,,,,,,,,,,,,,,,,,694.8928855919994,None,694.8928855919994,None,694.8928855919994,None,m,1,2.8021264859999064,696.4430210399996,None,696.4430210399996,None,696.4430210399996,None,699.3102344459994,None,699.3102344459994,None,699.3102344459994,None,699.3102344459994,None,,,,,,,,,,,,,,,,,,,,,,,,,,,,,,,,,,,,,,,,,,,,001,29,2020_Jan_30_0958,spring_faces,3.1.5,59.99581301217309,
condition files/Stage1_1.xlsx,,B4,T4,m,"['c', 'm']","['Clue', 'Monopoly']","[-0.15, 0.5]","[0.15, 0.5]",1,1,,,,,,,,,0,6,6,6,0,7,7,7,,,,,,,,,,,,,,,,,,,,,,,,,,,,,,,,,,,,,,,,,,,,,,,,,,,,,,,701.2759248379998,None,701.2759248379998,None,701.2759248379998,None,m,1,1.7475473280001097,702.8096026459998,None,702.8096026459998,None,702.8096026459998,None,704.6098014639992,None,704.6098014639992,None,704.6098014639992,None,704.6098014639992,None,,,,,,,,,,,,,,,,,,,,,,,,,,,,,,,,,,,,,,,,,,,,001,29,2020_Jan_30_0958,spring_faces,3.1.5,59.99581301217309,
condition files/Stage1_2.xlsx,,T1,B2,m,"['c', 'm']","['Clue', 'Monopoly']","[-0.15, 0.5]","[0.15, 0.5]",1,1,,,,,,,,,0,7,7,7,0,0,0,2,,,,,,,,,,,,,,,,,,,,,,,,,,,,,,,,,,,,,,,,,,,,,,,,,,,,,,,706.5930963629999,None,706.5930963629999,None,706.5930963629999,None,m,1,1.9653869419998955,708.1277746039996,None,708.1277746039996,None,708.1277746039996,None,710.1432263779998,None,710.1432263779998,None,710.1432263779998,None,710.1432263779998,None,,,,,,,,,,,,,,,,,,,,,,,,,,,,,,,,,,,,,,,,,,,,001,29,2020_Jan_30_0958,spring_faces,3.1.5,59.99581301217309,
condition files/Stage1_2.xlsx,,B2,T2,m,"['c', 'm']","['Clue', 'Monopoly']","[-0.15, 0.5]","[0.15, 0.5]",1,1,,,,,,,,,0,7,7,7,0,1,1,3,,,,,,,,,,,,,,,,,,,,,,,,,,,,,,,,,,,,,,,,,,,,,,,,,,,,,,,712.1095320909999,None,712.1095320909999,None,712.1095320909999,None,m,1,2.06532678900021,713.65981526,None,713.65981526,None,713.65981526,None,715.7765990969992,None,715.7765990969992,None,715.7765990969992,None,715.7765990969992,None,,,,,,,,,,,,,,,,,,,,,,,,,,,,,,,,,,,,,,,,,,,,001,29,2020_Jan_30_0958,spring_faces,3.1.5,59.99581301217309,
condition files/Stage1_2.xlsx,,B3,T4,m,"['c', 'm']","['Clue', 'Monopoly']","[-0.15, 0.5]","[0.15, 0.5]",1,1,,,,,,,,,0,7,7,7,0,2,2,6,,,,,,,,,,,,,,,,,,,,,,,,,,,,,,,,,,,,,,,,,,,,,,,,,,,,,,,717.7429570979994,None,717.7429570979994,None,717.7429570979994,None,m,1,1.6479123789995356,719.2932351639993,None,719.2932351639993,None,719.2932351639993,None,720.9934499769997,None,720.9934499769997,None,720.9934499769997,None,720.9934499769997,None,,,,,,,,,,,,,,,,,,,,,,,,,,,,,,,,,,,,,,,,,,,,001,29,2020_Jan_30_0958,spring_faces,3.1.5,59.99581301217309,
condition files/Stage1_2.xlsx,,T3,B3,c,"['c', 'm']","['Clue', 'Monopoly']","[-0.15, 0.5]","[0.15, 0.5]",1,1,,,,,,,,,0,7,7,7,0,3,3,4,,,,,,,,,,,,,,,,,,,,,,,,,,,,,,,,,,,,,,,,,,,,,,,,,,,,,,,722.9592627499997,None,722.9592627499997,None,722.9592627499997,None,c,1,1.389891759999955,724.4953462429994,None,724.4953462429994,None,724.4953462429994,None,725.9424176459997,None,725.9424176459997,None,725.9424176459997,None,725.9424176459997,None,,,,,,,,,,,,,,,,,,,,,,,,,,,,,,,,,,,,,,,,,,,,001,29,2020_Jan_30_0958,spring_faces,3.1.5,59.99581301217309,
condition files/Stage1_2.xlsx,,T2,B1,c,"['c', 'm']","['Clue', 'Monopoly']","[-0.15, 0.5]","[0.15, 0.5]",1,1,,,,,,,,,0,7,7,7,0,4,4,1,,,,,,,,,,,,,,,,,,,,,,,,,,,,,,,,,,,,,,,,,,,,,,,,,,,,,,,727.9098339109996,None,727.9098339109996,None,727.9098339109996,None,c,1,1.0982282309996663,729.44293707,None,729.44293707,None,729.44293707,None,730.5924535149998,None,730.5924535149998,None,730.5924535149998,None,730.5924535149998,None,,,,,,,,,,,,,,,,,,,,,,,,,,,,,,,,,,,,,,,,,,,,001,29,2020_Jan_30_0958,spring_faces,3.1.5,59.99581301217309,
condition files/Stage1_2.xlsx,,B4,T3,c,"['c', 'm']","['Clue', 'Monopoly']","[-0.15, 0.5]","[0.15, 0.5]",1,1,,,,,,,,,0,7,7,7,0,5,5,5,,,,,,,,,,,,,,,,,,,,,,,,,,,,,,,,,,,,,,,,,,,,,,,,,,,,,,,732.5594441149997,None,732.5594441149997,None,732.5594441149997,None,c,1,1.4562164760000087,734.0930103399996,None,734.0930103399996,None,734.0930103399996,None,735.6096515929994,None,735.6096515929994,None,735.6096515929994,None,735.6096515929994,None,,,,,,,,,,,,,,,,,,,,,,,,,,,,,,,,,,,,,,,,,,,,001,29,2020_Jan_30_0958,spring_faces,3.1.5,59.99581301217309,
condition files/Stage1_2.xlsx,,B1,T1,c,"['c', 'm']","['Clue', 'Monopoly']","[-0.15, 0.5]","[0.15, 0.5]",1,1,,,,,,,,,0,7,7,7,0,6,6,0,,,,,,,,,,,,,,,,,,,,,,,,,,,,,,,,,,,,,,,,,,,,,,,,,,,,,,,737.5763402129996,None,737.5763402129996,None,737.5763402129996,None,c,1,1.239818223999464,739.1093273699998,None,739.1093273699998,None,739.1093273699998,None,740.4097224269999,None,740.4097224269999,None,740.4097224269999,None,740.4097224269999,None,,,,,,,,,,,,,,,,,,,,,,,,,,,,,,,,,,,,,,,,,,,,001,29,2020_Jan_30_0958,spring_faces,3.1.5,59.99581301217309,
condition files/Stage1_2.xlsx,,T4,B4,m,"['c', 'm']","['Clue', 'Monopoly']","[-0.15, 0.5]","[0.15, 0.5]",1,1,,,,,,,,,0,7,7,7,0,7,7,7,,,,,,,,,,,,,,,,,,,,,,,,,,,,,,,,,,,,,,,,,,,,,,,,,,,,,,,742.3762427859992,None,742.3762427859992,None,742.3762427859992,None,m,1,1.5110915919995023,743.9260264839995,None,743.9260264839995,None,743.9260264839995,None,745.5096128039995,None,745.5096128039995,None,745.5096128039995,None,745.5096128039995,None,,,,,,,,,,,,,,,,,,,,,,,,,,,,,,,,,,,,,,,,,,,,001,29,2020_Jan_30_0958,spring_faces,3.1.5,59.99581301217309,
condition files/Stage1_1.xlsx,,B3,T3,c,"['c', 'm']","['Clue', 'Monopoly']","[-0.15, 0.5]","[0.15, 0.5]",1,1,,,,,,,,,0,8,8,8,0,0,0,4,,,,,,,,,,,,,,,,,,,,,,,,,,,,,,,,,,,,,,,,,,,,,,,,,,,,,,,747.4763052839999,None,747.4763052839999,None,747.4763052839999,None,c,1,3.7699347040006614,749.0112448699992,None,749.0112448699992,None,749.0112448699992,None,752.8428452159997,None,752.8428452159997,None,752.8428452159997,None,752.8428452159997,None,,,,,,,,,,,,,,,,,,,,,,,,,,,,,,,,,,,,,,,,,,,,001,29,2020_Jan_30_0958,spring_faces,3.1.5,59.99581301217309,
condition files/Stage1_1.xlsx,,T1,B1,c,"['c', 'm']","['Clue', 'Monopoly']","[-0.15, 0.5]","[0.15, 0.5]",1,1,,,,,,,,,0,8,8,8,0,1,1,0,,,,,,,,,,,,,,,,,,,,,,,,,,,,,,,,,,,,,,,,,,,,,,,,,,,,,,,754.8094560629997,None,754.8094560629997,None,754.8094560629997,None,c,1,1.9256340860001728,756.3435769919997,None,756.3435769919997,None,756.3435769919997,None,758.3261855899991,None,758.3261855899991,None,758.3261855899991,None,758.3261855899991,None,,,,,,,,,,,,,,,,,,,,,,,,,,,,,,,,,,,,,,,,,,,,001,29,2020_Jan_30_0958,spring_faces,3.1.5,59.99581301217309,
condition files/Stage1_1.xlsx,,T4,B3,m,"['c', 'm']","['Clue', 'Monopoly']","[-0.15, 0.5]","[0.15, 0.5]",1,1,,,,,,,,,0,8,8,8,0,2,2,6,,,,,,,,,,,,,,,,,,,,,,,,,,,,,,,,,,,,,,,,,,,,,,,,,,,,,,,760.2928112349991,None,760.2928112349991,None,760.2928112349991,None,m,1,3.1138851790001354,761.8432630459993,None,761.8432630459993,None,761.8432630459993,None,765.0115756969999,None,765.0115756969999,None,765.0115756969999,None,765.0115756969999,None,,,,,,,,,,,,,,,,,,,,,,,,,,,,,,,,,,,,,,,,,,,,001,29,2020_Jan_30_0958,spring_faces,3.1.5,59.99581301217309,
condition files/Stage1_1.xlsx,,B2,T1,m,"['c', 'm']","['Clue', 'Monopoly']","[-0.15, 0.5]","[0.15, 0.5]",1,1,,,,,,,,,0,8,8,8,0,3,3,2,,,,,,,,,,,,,,,,,,,,,,,,,,,,,,,,,,,,,,,,,,,,,,,,,,,,,,,766.9761993129996,None,766.9761993129996,None,766.9761993129996,None,m,1,3.3747960509999757,768.5104373439999,None,768.5104373439999,None,768.5104373439999,None,771.9431443489993,None,771.9431443489993,None,771.9431443489993,None,771.9431443489993,None,,,,,,,,,,,,,,,,,,,,,,,,,,,,,,,,,,,,,,,,,,,,001,29,2020_Jan_30_0958,spring_faces,3.1.5,59.99581301217309,
condition files/Stage1_1.xlsx,,T2,B2,m,"['c', 'm']","['Clue', 'Monopoly']","[-0.15, 0.5]","[0.15, 0.5]",1,1,,,,,,,,,0,8,8,8,0,4,4,3,,,,,,,,,,,,,,,,,,,,,,,,,,,,,,,,,,,,,,,,,,,,,,,,,,,,,,,773.9089466099995,None,773.9089466099995,None,773.9089466099995,None,m,1,1.0024430479998045,775.4427077219998,None,775.4427077219998,None,775.4427077219998,None,776.509240032,None,776.509240032,None,776.509240032,None,776.509240032,None,,,,,,,,,,,,,,,,,,,,,,,,,,,,,,,,,,,,,,,,,,,,001,29,2020_Jan_30_0958,spring_faces,3.1.5,59.99581301217309,
condition files/Stage1_1.xlsx,,B4,T4,m,"['c', 'm']","['Clue', 'Monopoly']","[-0.15, 0.5]","[0.15, 0.5]",1,1,,,,,,,,,0,8,8,8,0,5,5,7,,,,,,,,,,,,,,,,,,,,,,,,,,,,,,,,,,,,,,,,,,,,,,,,,,,,,,,778.4761464519997,None,778.4761464519997,None,778.4761464519997,None,m,1,2.354896925000503,780.0102676809993,None,780.0102676809993,None,780.0102676809993,None,782.4259303569997,None,782.4259303569997,None,782.4259303569997,None,782.4259303569997,None,,,,,,,,,,,,,,,,,,,,,,,,,,,,,,,,,,,,,,,,,,,,001,29,2020_Jan_30_0958,spring_faces,3.1.5,59.99581301217309,
condition files/Stage1_1.xlsx,,B1,T2,c,"['c', 'm']","['Clue', 'Monopoly']","[-0.15, 0.5]","[0.15, 0.5]",1,1,,,,,,,,,0,8,8,8,0,6,6,1,,,,,,,,,,,,,,,,,,,,,,,,,,,,,,,,,,,,,,,,,,,,,,,,,,,,,,,784.3927038969996,None,784.3927038969996,None,784.3927038969996,None,c,1,1.332652138999947,785.9284357799997,None,785.9284357799997,None,785.9284357799997,None,787.3260325589999,None,787.3260325589999,None,787.3260325589999,None,787.3260325589999,None,,,,,,,,,,,,,,,,,,,,,,,,,,,,,,,,,,,,,,,,,,,,001,29,2020_Jan_30_0958,spring_faces,3.1.5,59.99581301217309,
condition files/Stage1_1.xlsx,,T3,B4,c,"['c', 'm']","['Clue', 'Monopoly']","[-0.15, 0.5]","[0.15, 0.5]",1,1,,,,,,,,,0,8,8,8,0,7,7,5,,,,,,,,,,,,,,,,,,,,,,,,,,,,,,,,,,,,,,,,,,,,,,,,,,,,,,,789.2925371079991,None,789.2925371079991,None,789.2925371079991,None,c,1,1.1537767889994939,790.8274042319999,None,790.8274042319999,None,790.8274042319999,None,792.0430433239999,None,792.0430433239999,None,792.0430433239999,None,792.0430433239999,None,,,,,,,,,,,,,,,,,,,,,,,,,,,,,,,,,,,,,,,,,,,,001,29,2020_Jan_30_0958,spring_faces,3.1.5,59.99581301217309,
condition files/Stage1_2.xlsx,,B1,T1,c,"['c', 'm']","['Clue', 'Monopoly']","[-0.15, 0.5]","[0.15, 0.5]",1,1,,,,,,,,,0,9,9,9,0,0,0,0,,,,,,,,,,,,,,,,,,,,,,,,,,,,,,,,,,,,,,,,,,,,,,,,,,,,,,,794.0258055739996,None,794.0258055739996,None,794.0258055739996,None,c,1,1.060562979999304,795.5765699739995,None,795.5765699739995,None,795.5765699739995,None,796.693046636,None,796.693046636,None,796.693046636,None,796.693046636,None,,,,,,,,,,,,,,,,,,,,,,,,,,,,,,,,,,,,,,,,,,,,001,29,2020_Jan_30_0958,spring_faces,3.1.5,59.99581301217309,
condition files/Stage1_2.xlsx,,T2,B1,c,"['c', 'm']","['Clue', 'Monopoly']","[-0.15, 0.5]","[0.15, 0.5]",1,1,,,,,,,,,0,9,9,9,0,1,1,1,,,,,,,,,,,,,,,,,,,,,,,,,,,,,,,,,,,,,,,,,,,,,,,,,,,,,,,798.6596274009999,None,798.6596274009999,None,798.6596274009999,None,c,1,0.9241249639999296,800.1931153209998,None,800.1931153209998,None,800.1931153209998,None,801.176475196,None,801.176475196,None,801.176475196,None,801.176475196,None,,,,,,,,,,,,,,,,,,,,,,,,,,,,,,,,,,,,,,,,,,,,001,29,2020_Jan_30_0958,spring_faces,3.1.5,59.99581301217309,
condition files/Stage1_2.xlsx,,B4,T3,c,"['c', 'm']","['Clue', 'Monopoly']","[-0.15, 0.5]","[0.15, 0.5]",1,1,,,,,,,,,0,9,9,9,0,2,2,5,,,,,,,,,,,,,,,,,,,,,,,,,,,,,,,,,,,,,,,,,,,,,,,,,,,,,,,803.1430268609993,None,803.1430268609993,None,803.1430268609993,None,c,1,1.4809816570004841,804.6761839979999,None,804.6761839979999,None,804.6761839979999,None,806.209776144,None,806.209776144,None,806.209776144,None,806.209776144,None,,,,,,,,,,,,,,,,,,,,,,,,,,,,,,,,,,,,,,,,,,,,001,29,2020_Jan_30_0958,spring_faces,3.1.5,59.99581301217309,
condition files/Stage1_2.xlsx,,T4,B4,m,"['c', 'm']","['Clue', 'Monopoly']","[-0.15, 0.5]","[0.15, 0.5]",1,1,,,,,,,,,0,9,9,9,0,3,3,7,,,,,,,,,,,,,,,,,,,,,,,,,,,,,,,,,,,,,,,,,,,,,,,,,,,,,,,808.17573318,None,808.17573318,None,808.17573318,None,m,1,4.463055214000633,809.7101853599997,None,809.7101853599997,None,809.7101853599997,None,814.2430438509991,None,814.2430438509991,None,814.2430438509991,None,814.2430438509991,None,,,,,,,,,,,,,,,,,,,,,,,,,,,,,,,,,,,,,,,,,,,,001,29,2020_Jan_30_0958,spring_faces,3.1.5,59.99581301217309,
condition files/Stage1_2.xlsx,,B3,T4,m,"['c', 'm']","['Clue', 'Monopoly']","[-0.15, 0.5]","[0.15, 0.5]",1,1,,,,,,,,,0,9,9,9,0,4,4,6,,,,,,,,,,,,,,,,,,,,,,,,,,,,,,,,,,,,,,,,,,,,,,,,,,,,,,,816.1929173629997,None,816.1929173629997,None,816.1929173629997,None,m,1,5.358913194999332,817.7263266619993,None,817.7263266619993,None,817.7263266619993,None,823.1428600199997,None,823.1428600199997,None,823.1428600199997,None,823.1428600199997,None,,,,,,,,,,,,,,,,,,,,,,,,,,,,,,,,,,,,,,,,,,,,001,29,2020_Jan_30_0958,spring_faces,3.1.5,59.99581301217309,
condition files/Stage1_2.xlsx,,T1,B2,m,"['c', 'm']","['Clue', 'Monopoly']","[-0.15, 0.5]","[0.15, 0.5]",1,1,,,,,,,,,0,9,9,9,0,5,5,2,,,,,,,,,,,,,,,,,,,,,,,,,,,,,,,,,,,,,,,,,,,,,,,,,,,,,,,825.1096940449997,None,825.1096940449997,None,825.1096940449997,None,m,1,1.7381057249995138,826.6430772489994,None,826.6430772489994,None,826.6430772489994,None,828.4425200959995,None,828.4425200959995,None,828.4425200959995,None,828.4425200959995,None,,,,,,,,,,,,,,,,,,,,,,,,,,,,,,,,,,,,,,,,,,,,001,29,2020_Jan_30_0958,spring_faces,3.1.5,59.99581301217309,
condition files/Stage1_2.xlsx,,B2,T2,m,"['c', 'm']","['Clue', 'Monopoly']","[-0.15, 0.5]","[0.15, 0.5]",1,1,,,,,,,,,0,9,9,9,0,6,6,3,,,,,,,,,,,,,,,,,,,,,,,,,,,,,,,,,,,,,,,,,,,,,,,,,,,,,,,830.4094681899996,None,830.4094681899996,None,830.4094681899996,None,m,1,5.638523130000067,831.9426504859994,None,831.9426504859994,None,831.9426504859994,None,837.6428629659995,None,837.6428629659995,None,837.6428629659995,None,837.6428629659995,None,,,,,,,,,,,,,,,,,,,,,,,,,,,,,,,,,,,,,,,,,,,,001,29,2020_Jan_30_0958,spring_faces,3.1.5,59.99581301217309,
condition files/Stage1_2.xlsx,,T3,B3,c,"['c', 'm']","['Clue', 'Monopoly']","[-0.15, 0.5]","[0.15, 0.5]",1,1,,,,,,,,,0,9,9,9,0,7,7,4,,,,,,,,,,,,,,,,,,,,,,,,,,,,,,,,,,,,,,,,,,,,,,,,,,,,,,,839.6090047089992,None,839.6090047089992,None,839.6090047089992,None,c,1,2.9343787800007703,841.1427301279991,None,841.1427301279991,None,841.1427301279991,None,844.1597822549993,None,844.1597822549993,None,844.1597822549993,None,844.1597822549993,None,,,,,,,,,,,,,,,,,,,,,,,,,,,,,,,,,,,,,,,,,,,,001,29,2020_Jan_30_0958,spring_faces,3.1.5,59.99581301217309,
condition files/Stage1_1.xlsx,,B4,T4,m,"['c', 'm']","['Clue', 'Monopoly']","[-0.15, 0.5]","[0.15, 0.5]",1,1,,,,,,,,,0,10,10,10,0,0,0,7,,,,,,,,,,,,,,,,,,,,,,,,,,,,,,,,,,,,,,,,,,,,,,,,,,,,,,,846.1265226559999,None,846.1265226559999,None,846.1265226559999,None,m,1,0.9608909990001848,847.6762717189995,None,847.6762717189995,None,847.6762717189995,None,848.7100376809994,None,848.7100376809994,None,848.7100376809994,None,848.7100376809994,None,,,,,,,,,,,,,,,,,,,,,,,,,,,,,,,,,,,,,,,,,,,,001,29,2020_Jan_30_0958,spring_faces,3.1.5,59.99581301217309,
condition files/Stage1_1.xlsx,,B3,T3,c,"['c', 'm']","['Clue', 'Monopoly']","[-0.15, 0.5]","[0.15, 0.5]",1,1,,,,,,,,,0,10,10,10,0,1,1,4,,,,,,,,,,,,,,,,,,,,,,,,,,,,,,,,,,,,,,,,,,,,,,,,,,,,,,,850.6599505779996,None,850.6599505779996,None,850.6599505779996,None,c,1,4.060163703999933,852.1930821659998,None,852.1930821659998,None,852.1930821659998,None,856.3260100699999,None,856.3260100699999,None,856.3260100699999,None,856.3260100699999,None,,,,,,,,,,,,,,,,,,,,,,,,,,,,,,,,,,,,,,,,,,,,001,29,2020_Jan_30_0958,spring_faces,3.1.5,59.99581301217309,
condition files/Stage1_1.xlsx,,T4,B3,m,"['c', 'm']","['Clue', 'Monopoly']","[-0.15, 0.5]","[0.15, 0.5]",1,1,,,,,,,,,0,10,10,10,0,2,2,6,,,,,,,,,,,,,,,,,,,,,,,,,,,,,,,,,,,,,,,,,,,,,,,,,,,,,,,858.2761926669991,None,858.2761926669991,None,858.2761926669991,None,m,1,5.2271716690001995,859.8099796939996,None,859.8099796939996,None,859.8099796939996,None,865.1091312979997,None,865.1091312979997,None,865.1091312979997,None,865.1091312979997,None,,,,,,,,,,,,,,,,,,,,,,,,,,,,,,,,,,,,,,,,,,,,001,29,2020_Jan_30_0958,spring_faces,3.1.5,59.99581301217309,
condition files/Stage1_1.xlsx,,T1,B1,c,"['c', 'm']","['Clue', 'Monopoly']","[-0.15, 0.5]","[0.15, 0.5]",1,1,,,,,,,,,0,10,10,10,0,3,3,0,,,,,,,,,,,,,,,,,,,,,,,,,,,,,,,,,,,,,,,,,,,,,,,,,,,,,,,867.0590396389998,None,867.0590396389998,None,867.0590396389998,None,c,1,1.9314039310002045,868.6097428699995,None,868.6097428699995,None,868.6097428699995,None,870.5956358949998,None,870.5956358949998,None,870.5956358949998,None,870.5956358949998,None,,,,,,,,,,,,,,,,,,,,,,,,,,,,,,,,,,,,,,,,,,,,001,29,2020_Jan_30_0958,spring_faces,3.1.5,59.99581301217309,
condition files/Stage1_1.xlsx,,T3,B4,c,"['c', 'm']","['Clue', 'Monopoly']","[-0.15, 0.5]","[0.15, 0.5]",1,1,,,,,,,,,0,10,10,10,0,4,4,5,,,,,,,,,,,,,,,,,,,,,,,,,,,,,,,,,,,,,,,,,,,,,,,,,,,,,,,872.5596261859992,None,872.5596261859992,None,872.5596261859992,None,c,1,4.623525171999972,874.1095569039999,None,874.1095569039999,None,874.1095569039999,None,878.7928341989991,None,878.7928341989991,None,878.7928341989991,None,878.7928341989991,None,,,,,,,,,,,,,,,,,,,,,,,,,,,,,,,,,,,,,,,,,,,,001,29,2020_Jan_30_0958,spring_faces,3.1.5,59.99581301217309,
condition files/Stage1_1.xlsx,,T2,B2,m,"['c', 'm']","['Clue', 'Monopoly']","[-0.15, 0.5]","[0.15, 0.5]",1,1,,,,,,,,,0,10,10,10,0,5,5,3,,,,,,,,,,,,,,,,,,,,,,,,,,,,,,,,,,,,,,,,,,,,,,,,,,,,,,,880.7595034919996,None,880.7595034919996,None,880.7595034919996,None,m,1,19.557861899000272,882.2953690199993,None,882.2953690199993,None,882.2953690199993,None,901.9261899419998,None,901.9261899419998,None,901.9261899419998,None,901.9261899419998,None,,,,,,,,,,,,,,,,,,,,,,,,,,,,,,,,,,,,,,,,,,,,001,29,2020_Jan_30_0958,spring_faces,3.1.5,59.99581301217309,
condition files/Stage1_1.xlsx,,B2,T1,m,"['c', 'm']","['Clue', 'Monopoly']","[-0.15, 0.5]","[0.15, 0.5]",1,1,,,,,,,,,0,10,10,10,0,6,6,2,,,,,,,,,,,,,,,,,,,,,,,,,,,,,,,,,,,,,,,,,,,,,,,,,,,,,,,903.8762913769997,None,903.8762913769997,None,903.8762913769997,None,m,1,6.7617928600002415,905.4113271089991,None,905.4113271089991,None,905.4113271089991,None,912.2261508369993,None,912.2261508369993,None,912.2261508369993,None,912.2261508369993,None,,,,,,,,,,,,,,,,,,,,,,,,,,,,,,,,,,,,,,,,,,,,001,29,2020_Jan_30_0958,spring_faces,3.1.5,59.99581301217309,
condition files/Stage1_1.xlsx,,B1,T2,c,"['c', 'm']","['Clue', 'Monopoly']","[-0.15, 0.5]","[0.15, 0.5]",1,1,,,,,,,,,0,10,10,10,0,7,7,1,,,,,,,,,,,,,,,,,,,,,,,,,,,,,,,,,,,,,,,,,,,,,,,,,,,,,,,914.1924086239997,None,914.1924086239997,None,914.1924086239997,None,c,1,1.7726589649992093,915.7285841599996,None,915.7285841599996,None,915.7285841599996,None,917.5615486899997,None,917.5615486899997,None,917.5615486899997,None,917.5615486899997,None,,,,,,,,,,,,,,,,,,,,,,,,,,,,,,,,,,,,,,,,,,,,001,29,2020_Jan_30_0958,spring_faces,3.1.5,59.99581301217309,
condition files/Stage1_2.xlsx,,B4,T3,c,"['c', 'm']","['Clue', 'Monopoly']","[-0.15, 0.5]","[0.15, 0.5]",1,1,,,,,,,,,0,11,11,11,0,0,0,5,,,,,,,,,,,,,,,,,,,,,,,,,,,,,,,,,,,,,,,,,,,,,,,,,,,,,,,919.5431013839998,None,919.5431013839998,None,919.5431013839998,None,c,1,7.831767456999842,921.0933899639995,None,921.0933899639995,None,921.0933899639995,None,928.9767968509996,None,928.9767968509996,None,928.9767968509996,None,928.9767968509996,None,,,,,,,,,,,,,,,,,,,,,,,,,,,,,,,,,,,,,,,,,,,,001,29,2020_Jan_30_0958,spring_faces,3.1.5,59.99581301217309,
condition files/Stage1_2.xlsx,,B2,T2,m,"['c', 'm']","['Clue', 'Monopoly']","[-0.15, 0.5]","[0.15, 0.5]",1,1,,,,,,,,,0,11,11,11,0,1,1,3,,,,,,,,,,,,,,,,,,,,,,,,,,,,,,,,,,,,,,,,,,,,,,,,,,,,,,,930.9427867519998,None,930.9427867519998,None,930.9427867519998,None,m,1,1.2798856549998163,932.4772666479994,None,932.4772666479994,None,932.4772666479994,None,933.8264769459993,None,933.8264769459993,None,933.8264769459993,None,933.8264769459993,None,,,,,,,,,,,,,,,,,,,,,,,,,,,,,,,,,,,,,,,,,,,,001,29,2020_Jan_30_0958,spring_faces,3.1.5,59.99581301217309,
condition files/Stage1_2.xlsx,,B1,T1,c,"['c', 'm']","['Clue', 'Monopoly']","[-0.15, 0.5]","[0.15, 0.5]",1,1,,,,,,,,,0,11,11,11,0,2,2,0,,,,,,,,,,,,,,,,,,,,,,,,,,,,,,,,,,,,,,,,,,,,,,,,,,,,,,,935.7761897729997,None,935.7761897729997,None,935.7761897729997,None,c,1,0.8465430490005019,937.3106240599991,None,937.3106240599991,None,937.3106240599991,None,938.2264550629998,None,938.2264550629998,None,938.2264550629998,None,938.2264550629998,None,,,,,,,,,,,,,,,,,,,,,,,,,,,,,,,,,,,,,,,,,,,,001,29,2020_Jan_30_0958,spring_faces,3.1.5,59.99581301217309,
condition files/Stage1_2.xlsx,,T3,B3,c,"['c', 'm']","['Clue', 'Monopoly']","[-0.15, 0.5]","[0.15, 0.5]",1,1,,,,,,,,,0,11,11,11,0,3,3,4,,,,,,,,,,,,,,,,,,,,,,,,,,,,,,,,,,,,,,,,,,,,,,,,,,,,,,,940.1763362499996,None,940.1763362499996,None,940.1763362499996,None,c,1,1.4696182180005053,941.7115564749993,None,941.7115564749993,None,941.7115564749993,None,943.2428784229996,None,943.2428784229996,None,943.2428784229996,None,943.2428784229996,None,,,,,,,,,,,,,,,,,,,,,,,,,,,,,,,,,,,,,,,,,,,,001,29,2020_Jan_30_0958,spring_faces,3.1.5,59.99581301217309,
condition files/Stage1_2.xlsx,,T4,B4,m,"['c', 'm']","['Clue', 'Monopoly']","[-0.15, 0.5]","[0.15, 0.5]",1,1,,,,,,,,,0,11,11,11,0,4,4,7,,,,,,,,,,,,,,,,,,,,,,,,,,,,,,,,,,,,,,,,,,,,,,,,,,,,,,,945.2093026029997,None,945.2093026029997,None,945.2093026029997,None,m,1,1.06117884699961,946.7599463279994,None,946.7599463279994,None,946.7599463279994,None,947.8931228609999,None,947.8931228609999,None,947.8931228609999,None,947.8931228609999,None,,,,,,,,,,,,,,,,,,,,,,,,,,,,,,,,,,,,,,,,,,,,001,29,2020_Jan_30_0958,spring_faces,3.1.5,59.99581301217309,
condition files/Stage1_2.xlsx,,T1,B2,m,"['c', 'm']","['Clue', 'Monopoly']","[-0.15, 0.5]","[0.15, 0.5]",1,1,,,,,,,,,0,11,11,11,0,5,5,2,,,,,,,,,,,,,,,,,,,,,,,,,,,,,,,,,,,,,,,,,,,,,,,,,,,,,,,949.8430318599994,None,949.8430318599994,None,949.8430318599994,None,c,0,2.1077635990004637,951.3774785669993,None,951.3774785669993,None,951.3774785669993,None,953.5433524179998,None,953.5433524179998,None,953.5433524179998,None,953.5433524179998,None,,,,,,,,,,,,,,,,,,,,,,,,,,,,,,,,,,,,,,,,,,,,001,29,2020_Jan_30_0958,spring_faces,3.1.5,59.99581301217309,
condition files/Stage1_2.xlsx,,T2,B1,c,"['c', 'm']","['Clue', 'Monopoly']","[-0.15, 0.5]","[0.15, 0.5]",1,1,,,,,,,,,0,11,11,11,0,6,6,1,,,,,,,,,,,,,,,,,,,,,,,,,,,,,,,,,,,,,,,,,,,,,,,,,,,,,,,955.5099472719994,None,955.5099472719994,None,955.5099472719994,None,c,1,1.0983036440002252,957.0428645669999,None,957.0428645669999,None,957.0428645669999,None,958.2092042939994,None,958.2092042939994,None,958.2092042939994,None,958.2092042939994,None,,,,,,,,,,,,,,,,,,,,,,,,,,,,,,,,,,,,,,,,,,,,001,29,2020_Jan_30_0958,spring_faces,3.1.5,59.99581301217309,
condition files/Stage1_2.xlsx,,B3,T4,m,"['c', 'm']","['Clue', 'Monopoly']","[-0.15, 0.5]","[0.15, 0.5]",1,1,,,,,,,,,0,11,11,11,0,7,7,6,,,,,,,,,,,,,,,,,,,,,,,,,,,,,,,,,,,,,,,,,,,,,,,,,,,,,,,960.1595544429993,None,960.1595544429993,None,960.1595544429993,None,m,1,0.9900519459997668,961.6951955729992,None,961.6951955729992,None,961.6951955729992,None,962.7444455309997,None,962.7444455309997,None,962.7444455309997,None,962.7444455309997,None,,,,,,,,,,,,,,,,,,,,,,,,,,,,,,,,,,,,,,,,,,,,001,29,2020_Jan_30_0958,spring_faces,3.1.5,59.99581301217309,
,,,,,,,,,,,,,,,,,,,,,,,,,,,,,,,,,,,,,,,,,,,,,,,,,,,,,,,,,,,,,,,,,,,,,,,,,,,,,,,,,,,,,,,,,,,,,,,,,,,,,,,,,,,,,,,,964.7261276759991,None,space,7.550821249000364,969.7263147219992,None,,,,,,,,,,,,,,,,,,,,,,,,,,,,,,001,29,2020_Jan_30_0958,spring_faces,3.1.5,59.99581301217309,
condition files/Stage2_1.xlsx,,B6,T6,r,"['s', 'r']","['Stratego', 'Risk']","[-0.15, 0.5]","[0.15, 0.5]",1,1,,,,,,,,,,,,,,,,,0,0,0,0,0,0,0,1,,,,,,,,,,,,,,,,,,,,,,,,,,,,,,,,,,,,,,,,,,,,,,,977.3430293939991,None,977.3430293939991,None,977.3430293939991,None,s,0,0.9425188130007882,978.9266867919996,None,978.9266867919996,None,978.9266867919996,None,979.9290700889997,None,979.9290700889997,None,979.9290700889997,None,979.9290700889997,None,,,,,,,,,,,,,,,969.7263147219992,None,,,,,,,,,,,,,,,,,,,,,,,,,,,,001,29,2020_Jan_30_0958,spring_faces,3.1.5,59.99581301217309,
condition files/Stage2_1.xlsx,,B2,T2,r,"['s', 'r']","['Stratego', 'Risk']","[-0.15, 0.5]","[0.15, 0.5]",1,1,,,,,,,,,,,,,,,,,0,0,0,0,0,1,1,3,,,,,,,,,,,,,,,,,,,,,,,,,,,,,,,,,,,,,,,,,,,,,,,981.8927547609992,None,981.8927547609992,None,981.8927547609992,None,s,0,1.2730477700006304,983.4281970779994,None,983.4281970779994,None,983.4281970779994,None,984.7599252159998,None,984.7599252159998,None,984.7599252159998,None,984.7599252159998,None,,,,,,,,,,,,,,,,,,,,,,,,,,,,,,,,,,,,,,,,,,,,001,29,2020_Jan_30_0958,spring_faces,3.1.5,59.99581301217309,
condition files/Stage2_1.xlsx,,B4,T4,r,"['s', 'r']","['Stratego', 'Risk']","[-0.15, 0.5]","[0.15, 0.5]",1,1,,,,,,,,,,,,,,,,,0,0,0,0,0,2,2,5,,,,,,,,,,,,,,,,,,,,,,,,,,,,,,,,,,,,,,,,,,,,,,,986.7258937479992,None,986.7258937479992,None,986.7258937479992,None,s,0,0.6315753449998738,988.2615463999991,None,988.2615463999991,None,988.2615463999991,None,988.9436327579997,None,988.9436327579997,None,988.9436327579997,None,988.9436327579997,None,,,,,,,,,,,,,,,,,,,,,,,,,,,,,,,,,,,,,,,,,,,,001,29,2020_Jan_30_0958,spring_faces,3.1.5,59.99581301217309,
condition files/Stage2_1.xlsx,,T5,B5,s,"['s', 'r']","['Stratego', 'Risk']","[-0.15, 0.5]","[0.15, 0.5]",1,1,,,,,,,,,,,,,,,,,0,0,0,0,0,3,3,0,,,,,,,,,,,,,,,,,,,,,,,,,,,,,,,,,,,,,,,,,,,,,,,990.909616035,None,990.909616035,None,990.909616035,None,s,1,0.5299296610000965,992.4431575439994,None,992.4431575439994,None,992.4431575439994,None,993.0279835839992,None,993.0279835839992,None,993.0279835839992,None,993.0279835839992,None,,,,,,,,,,,,,,,,,,,,,,,,,,,,,,,,,,,,,,,,,,,,001,29,2020_Jan_30_0958,spring_faces,3.1.5,59.99581301217309,
condition files/Stage2_1.xlsx,,T1,B1,s,"['s', 'r']","['Stratego', 'Risk']","[-0.15, 0.5]","[0.15, 0.5]",1,1,,,,,,,,,,,,,,,,,0,0,0,0,0,4,4,2,,,,,,,,,,,,,,,,,,,,,,,,,,,,,,,,,,,,,,,,,,,,,,,994.9928668879993,None,994.9928668879993,None,994.9928668879993,None,r,0,0.8310482910001156,996.5261089279993,None,996.5261089279993,None,996.5261089279993,None,997.4093458919997,None,997.4093458919997,None,997.4093458919997,None,997.4093458919997,None,,,,,,,,,,,,,,,,,,,,,,,,,,,,,,,,,,,,,,,,,,,,001,29,2020_Jan_30_0958,spring_faces,3.1.5,59.99581301217309,
condition files/Stage2_1.xlsx,,T3,B3,s,"['s', 'r']","['Stratego', 'Risk']","[-0.15, 0.5]","[0.15, 0.5]",1,1,,,,,,,,,,,,,,,,,0,0,0,0,0,5,5,4,,,,,,,,,,,,,,,,,,,,,,,,,,,,,,,,,,,,,,,,,,,,,,,999.3763579069991,None,999.3763579069991,None,999.3763579069991,None,s,1,0.8162634959999195,1000.9089007429993,None,1000.9089007429993,None,1000.9089007429993,None,1001.7764805329998,None,1001.7764805329998,None,1001.7764805329998,None,1001.7764805329998,None,,,,,,,,,,,,,,,,,,,,,,,,,,,,,,,,,,,,,,,,,,,,001,29,2020_Jan_30_0958,spring_faces,3.1.5,59.99581301217309,
condition files/Stage2_2.xlsx,,T2,B2,r,"['s', 'r']","['Stratego', 'Risk']","[-0.15, 0.5]","[0.15, 0.5]",1,1,,,,,,,,,,,,,,,,,0,1,1,1,0,0,0,3,,,,,,,,,,,,,,,,,,,,,,,,,,,,,,,,,,,,,,,,,,,,,,,1003.7599079529991,None,1003.7599079529991,None,1003.7599079529991,None,s,0,1.760405955999886,1005.2928372259994,None,1005.2928372259994,None,1005.2928372259994,None,1007.1266250879999,None,1007.1266250879999,None,1007.1266250879999,None,1007.1266250879999,None,,,,,,,,,,,,,,,,,,,,,,,,,,,,,,,,,,,,,,,,,,,,001,29,2020_Jan_30_0958,spring_faces,3.1.5,59.99581301217309,
condition files/Stage2_2.xlsx,,T4,B4,r,"['s', 'r']","['Stratego', 'Risk']","[-0.15, 0.5]","[0.15, 0.5]",1,1,,,,,,,,,,,,,,,,,0,1,1,1,0,1,1,5,,,,,,,,,,,,,,,,,,,,,,,,,,,,,,,,,,,,,,,,,,,,,,,1009.0758036179996,None,1009.0758036179996,None,1009.0758036179996,None,r,1,1.2587864400002218,1010.6264315119997,None,1010.6264315119997,None,1010.6264315119997,None,1011.9426886019992,None,1011.9426886019992,None,1011.9426886019992,None,1011.9426886019992,None,,,,,,,,,,,,,,,,,,,,,,,,,,,,,,,,,,,,,,,,,,,,001,29,2020_Jan_30_0958,spring_faces,3.1.5,59.99581301217309,
condition files/Stage2_2.xlsx,,B1,T1,s,"['s', 'r']","['Stratego', 'Risk']","[-0.15, 0.5]","[0.15, 0.5]",1,1,,,,,,,,,,,,,,,,,0,1,1,1,0,2,2,2,,,,,,,,,,,,,,,,,,,,,,,,,,,,,,,,,,,,,,,,,,,,,,,1013.9096892489997,None,1013.9096892489997,None,1013.9096892489997,None,s,1,2.794723637000061,1015.4425177739995,None,1015.4425177739995,None,1015.4425177739995,None,1018.2954911859997,None,1018.2954911859997,None,1018.2954911859997,None,1018.2954911859997,None,,,,,,,,,,,,,,,,,,,,,,,,,,,,,,,,,,,,,,,,,,,,001,29,2020_Jan_30_0958,spring_faces,3.1.5,59.99581301217309,
condition files/Stage2_2.xlsx,,T6,B6,r,"['s', 'r']","['Stratego', 'Risk']","[-0.15, 0.5]","[0.15, 0.5]",1,1,,,,,,,,,,,,,,,,,0,1,1,1,0,3,3,1,,,,,,,,,,,,,,,,,,,,,,,,,,,,,,,,,,,,,,,,,,,,,,,1020.2593189829995,None,1020.2593189829995,None,1020.2593189829995,None,r,1,1.3871700979998423,1021.8099913349997,None,1021.8099913349997,None,1021.8099913349997,None,1023.2606957599992,None,1023.2606957599992,None,1023.2606957599992,None,1023.2606957599992,None,,,,,,,,,,,,,,,,,,,,,,,,,,,,,,,,,,,,,,,,,,,,001,29,2020_Jan_30_0958,spring_faces,3.1.5,59.99581301217309,
condition files/Stage2_2.xlsx,,B3,T3,s,"['s', 'r']","['Stratego', 'Risk']","[-0.15, 0.5]","[0.15, 0.5]",1,1,,,,,,,,,,,,,,,,,0,1,1,1,0,4,4,4,,,,,,,,,,,,,,,,,,,,,,,,,,,,,,,,,,,,,,,,,,,,,,,1025.2256823509997,None,1025.2256823509997,None,1025.2256823509997,None,s,1,1.908996838999883,1026.7602035279997,None,1026.7602035279997,None,1026.7602035279997,None,1028.7430592659994,None,1028.7430592659994,None,1028.7430592659994,None,1028.7430592659994,None,,,,,,,,,,,,,,,,,,,,,,,,,,,,,,,,,,,,,,,,,,,,001,29,2020_Jan_30_0958,spring_faces,3.1.5,59.99581301217309,
condition files/Stage2_2.xlsx,,B5,T5,s,"['s', 'r']","['Stratego', 'Risk']","[-0.15, 0.5]","[0.15, 0.5]",1,1,,,,,,,,,,,,,,,,,0,1,1,1,0,5,5,0,,,,,,,,,,,,,,,,,,,,,,,,,,,,,,,,,,,,,,,,,,,,,,,1030.6931658869999,None,1030.6931658869999,None,1030.6931658869999,None,s,1,3.1630861289995664,1032.226083566,None,1032.226083566,None,1032.226083566,None,1035.442680313,None,1035.442680313,None,1035.442680313,None,1035.442680313,None,,,,,,,,,,,,,,,,,,,,,,,,,,,,,,,,,,,,,,,,,,,,001,29,2020_Jan_30_0958,spring_faces,3.1.5,59.99581301217309,
condition files/Stage2_1.xlsx,,B6,T6,r,"['s', 'r']","['Stratego', 'Risk']","[-0.15, 0.5]","[0.15, 0.5]",1,1,,,,,,,,,,,,,,,,,0,2,2,2,0,0,0,1,,,,,,,,,,,,,,,,,,,,,,,,,,,,,,,,,,,,,,,,,,,,,,,1037.4263107869992,None,1037.4263107869992,None,1037.4263107869992,None,r,1,2.285401869999987,1038.959758518,None,1038.959758518,None,1038.959758518,None,1041.3267911139992,None,1041.3267911139992,None,1041.3267911139992,None,1041.3267911139992,None,,,,,,,,,,,,,,,,,,,,,,,,,,,,,,,,,,,,,,,,,,,,001,29,2020_Jan_30_0958,spring_faces,3.1.5,59.99581301217309,
condition files/Stage2_1.xlsx,,B2,T2,r,"['s', 'r']","['Stratego', 'Risk']","[-0.15, 0.5]","[0.15, 0.5]",1,1,,,,,,,,,,,,,,,,,0,2,2,2,0,1,1,3,,,,,,,,,,,,,,,,,,,,,,,,,,,,,,,,,,,,,,,,,,,,,,,1043.2761792909996,None,1043.2761792909996,None,1043.2761792909996,None,r,1,1.1854006419998768,1044.8117814609996,None,1044.8117814609996,None,1044.8117814609996,None,1046.0592382199993,None,1046.0592382199993,None,1046.0592382199993,None,1046.0592382199993,None,,,,,,,,,,,,,,,,,,,,,,,,,,,,,,,,,,,,,,,,,,,,001,29,2020_Jan_30_0958,spring_faces,3.1.5,59.99581301217309,
condition files/Stage2_1.xlsx,,T1,B1,s,"['s', 'r']","['Stratego', 'Risk']","[-0.15, 0.5]","[0.15, 0.5]",1,1,,,,,,,,,,,,,,,,,0,2,2,2,0,2,2,2,,,,,,,,,,,,,,,,,,,,,,,,,,,,,,,,,,,,,,,,,,,,,,,1048.0261613739995,None,1048.0261613739995,None,1048.0261613739995,None,s,1,1.2849437810000381,1049.5761695389992,None,1049.5761695389992,None,1049.5761695389992,None,1050.9289065129997,None,1050.9289065129997,None,1050.9289065129997,None,1050.9289065129997,None,,,,,,,,,,,,,,,,,,,,,,,,,,,,,,,,,,,,,,,,,,,,001,29,2020_Jan_30_0958,spring_faces,3.1.5,59.99581301217309,
condition files/Stage2_1.xlsx,,T5,B5,s,"['s', 'r']","['Stratego', 'Risk']","[-0.15, 0.5]","[0.15, 0.5]",1,1,,,,,,,,,,,,,,,,,0,2,2,2,0,3,3,0,,,,,,,,,,,,,,,,,,,,,,,,,,,,,,,,,,,,,,,,,,,,,,,1052.8925900369995,None,1052.8925900369995,None,1052.8925900369995,None,s,1,1.170252800999151,1054.4429020609996,None,1054.4429020609996,None,1054.4429020609996,None,1055.6766739489995,None,1055.6766739489995,None,1055.6766739489995,None,1055.6766739489995,None,,,,,,,,,,,,,,,,,,,,,,,,,,,,,,,,,,,,,,,,,,,,001,29,2020_Jan_30_0958,spring_faces,3.1.5,59.99581301217309,
condition files/Stage2_1.xlsx,,B4,T4,r,"['s', 'r']","['Stratego', 'Risk']","[-0.15, 0.5]","[0.15, 0.5]",1,1,,,,,,,,,,,,,,,,,0,2,2,2,0,4,4,5,,,,,,,,,,,,,,,,,,,,,,,,,,,,,,,,,,,,,,,,,,,,,,,1057.6433627429997,None,1057.6433627429997,None,1057.6433627429997,None,r,1,1.9563314310007627,1059.1928895269994,None,1059.1928895269994,None,1059.1928895269994,None,1061.2259715819991,None,1061.2259715819991,None,1061.2259715819991,None,1061.2259715819991,None,,,,,,,,,,,,,,,,,,,,,,,,,,,,,,,,,,,,,,,,,,,,001,29,2020_Jan_30_0958,spring_faces,3.1.5,59.99581301217309,
condition files/Stage2_1.xlsx,,T3,B3,s,"['s', 'r']","['Stratego', 'Risk']","[-0.15, 0.5]","[0.15, 0.5]",1,1,,,,,,,,,,,,,,,,,0,2,2,2,0,5,5,4,,,,,,,,,,,,,,,,,,,,,,,,,,,,,,,,,,,,,,,,,,,,,,,1063.1762533029996,None,1063.1762533029996,None,1063.1762533029996,None,s,1,4.711222652000288,1064.7259985329993,None,1064.7259985329993,None,1064.7259985329993,None,1069.5092193189994,None,1069.5092193189994,None,1069.5092193189994,None,1069.5092193189994,None,,,,,,,,,,,,,,,,,,,,,,,,,,,,,,,,,,,,,,,,,,,,001,29,2020_Jan_30_0958,spring_faces,3.1.5,59.99581301217309,
condition files/Stage2_2.xlsx,,B1,T1,s,"['s', 'r']","['Stratego', 'Risk']","[-0.15, 0.5]","[0.15, 0.5]",1,1,,,,,,,,,,,,,,,,,0,3,3,3,0,0,0,2,,,,,,,,,,,,,,,,,,,,,,,,,,,,,,,,,,,,,,,,,,,,,,,1071.476358764,None,1071.476358764,None,1071.476358764,None,s,1,5.130230343999756,1073.0109489009992,None,1073.0109489009992,None,1073.0109489009992,None,1078.1926411239992,None,1078.1926411239992,None,1078.1926411239992,None,1078.1926411239992,None,,,,,,,,,,,,,,,,,,,,,,,,,,,,,,,,,,,,,,,,,,,,001,29,2020_Jan_30_0958,spring_faces,3.1.5,59.99581301217309,
condition files/Stage2_2.xlsx,,B5,T5,s,"['s', 'r']","['Stratego', 'Risk']","[-0.15, 0.5]","[0.15, 0.5]",1,1,,,,,,,,,,,,,,,,,0,3,3,3,0,1,1,0,,,,,,,,,,,,,,,,,,,,,,,,,,,,,,,,,,,,,,,,,,,,,,,1080.1595460359995,None,1080.1595460359995,None,1080.1595460359995,None,r,0,0.8953116100001353,1081.7097877409997,None,1081.7097877409997,None,1081.7097877409997,None,1082.6602102519992,None,1082.6602102519992,None,1082.6602102519992,None,1082.6602102519992,None,,,,,,,,,,,,,,,,,,,,,,,,,,,,,,,,,,,,,,,,,,,,001,29,2020_Jan_30_0958,spring_faces,3.1.5,59.99581301217309,
condition files/Stage2_2.xlsx,,T6,B6,r,"['s', 'r']","['Stratego', 'Risk']","[-0.15, 0.5]","[0.15, 0.5]",1,1,,,,,,,,,,,,,,,,,0,3,3,3,0,2,2,1,,,,,,,,,,,,,,,,,,,,,,,,,,,,,,,,,,,,,,,,,,,,,,,1084.6262385439995,None,1084.6262385439995,None,1084.6262385439995,None,r,1,1.6601814649993685,1086.1609538989997,None,1086.1609538989997,None,1086.1609538989997,None,1087.8788642259997,None,1087.8788642259997,None,1087.8788642259997,None,1087.8788642259997,None,,,,,,,,,,,,,,,,,,,,,,,,,,,,,,,,,,,,,,,,,,,,001,29,2020_Jan_30_0958,spring_faces,3.1.5,59.99581301217309,
condition files/Stage2_2.xlsx,,T4,B4,r,"['s', 'r']","['Stratego', 'Risk']","[-0.15, 0.5]","[0.15, 0.5]",1,1,,,,,,,,,,,,,,,,,0,3,3,3,0,3,3,5,,,,,,,,,,,,,,,,,,,,,,,,,,,,,,,,,,,,,,,,,,,,,,,1089.8423876239995,None,1089.8423876239995,None,1089.8423876239995,None,r,1,2.140453456000614,1091.3767790429993,None,1091.3767790429993,None,1091.3767790429993,None,1093.5759894149996,None,1093.5759894149996,None,1093.5759894149996,None,1093.5759894149996,None,,,,,,,,,,,,,,,,,,,,,,,,,,,,,,,,,,,,,,,,,,,,001,29,2020_Jan_30_0958,spring_faces,3.1.5,59.99581301217309,
condition files/Stage2_2.xlsx,,T2,B2,r,"['s', 'r']","['Stratego', 'Risk']","[-0.15, 0.5]","[0.15, 0.5]",1,1,,,,,,,,,,,,,,,,,0,3,3,3,0,4,4,3,,,,,,,,,,,,,,,,,,,,,,,,,,,,,,,,,,,,,,,,,,,,,,,1095.5431817889994,None,1095.5431817889994,None,1095.5431817889994,None,r,1,1.400618963000852,1097.0764988069996,None,1097.0764988069996,None,1097.0764988069996,None,1098.5431650019991,None,1098.5431650019991,None,1098.5431650019991,None,1098.5431650019991,None,,,,,,,,,,,,,,,,,,,,,,,,,,,,,,,,,,,,,,,,,,,,001,29,2020_Jan_30_0958,spring_faces,3.1.5,59.99581301217309,
condition files/Stage2_2.xlsx,,B3,T3,s,"['s', 'r']","['Stratego', 'Risk']","[-0.15, 0.5]","[0.15, 0.5]",1,1,,,,,,,,,,,,,,,,,0,3,3,3,0,5,5,4,,,,,,,,,,,,,,,,,,,,,,,,,,,,,,,,,,,,,,,,,,,,,,,1100.5096014279998,None,1100.5096014279998,None,1100.5096014279998,None,s,1,5.168988592999995,1102.044186532,None,1102.044186532,None,1102.044186532,None,1107.2778252659991,None,1107.2778252659991,None,1107.2778252659991,None,1107.2778252659991,None,,,,,,,,,,,,,,,,,,,,,,,,,,,,,,,,,,,,,,,,,,,,001,29,2020_Jan_30_0958,spring_faces,3.1.5,59.99581301217309,
condition files/Stage2_1.xlsx,,T1,B1,s,"['s', 'r']","['Stratego', 'Risk']","[-0.15, 0.5]","[0.15, 0.5]",1,1,,,,,,,,,,,,,,,,,0,4,4,4,0,0,0,2,,,,,,,,,,,,,,,,,,,,,,,,,,,,,,,,,,,,,,,,,,,,,,,1109.2597794999992,None,1109.2597794999992,None,1109.2597794999992,None,s,1,1.891406303999247,1110.7938428159996,None,1110.7938428159996,None,1110.7938428159996,None,1112.7432451139994,None,1112.7432451139994,None,1112.7432451139994,None,1112.7432451139994,None,,,,,,,,,,,,,,,,,,,,,,,,,,,,,,,,,,,,,,,,,,,,001,29,2020_Jan_30_0958,spring_faces,3.1.5,59.99581301217309,
condition files/Stage2_1.xlsx,,T3,B3,s,"['s', 'r']","['Stratego', 'Risk']","[-0.15, 0.5]","[0.15, 0.5]",1,1,,,,,,,,,,,,,,,,,0,4,4,4,0,1,1,4,,,,,,,,,,,,,,,,,,,,,,,,,,,,,,,,,,,,,,,,,,,,,,,1114.708909817,None,1114.708909817,None,1114.708909817,None,s,1,4.889854519999972,1116.259369683,None,1116.259369683,None,1116.259369683,None,1121.2090230909998,None,1121.2090230909998,None,1121.2090230909998,None,1121.2090230909998,None,,,,,,,,,,,,,,,,,,,,,,,,,,,,,,,,,,,,,,,,,,,,001,29,2020_Jan_30_0958,spring_faces,3.1.5,59.99581301217309,
condition files/Stage2_1.xlsx,,B4,T4,r,"['s', 'r']","['Stratego', 'Risk']","[-0.15, 0.5]","[0.15, 0.5]",1,1,,,,,,,,,,,,,,,,,0,4,4,4,0,2,2,5,,,,,,,,,,,,,,,,,,,,,,,,,,,,,,,,,,,,,,,,,,,,,,,1123.1762521849996,None,1123.1762521849996,None,1123.1762521849996,None,r,1,1.3337782770004196,1124.7113953129992,None,1124.7113953129992,None,1124.7113953129992,None,1126.1110055549998,None,1126.1110055549998,None,1126.1110055549998,None,1126.1110055549998,None,,,,,,,,,,,,,,,,,,,,,,,,,,,,,,,,,,,,,,,,,,,,001,29,2020_Jan_30_0958,spring_faces,3.1.5,59.99581301217309,
