condsFile,subStage,cue1,cue2,correct,responseKeys,responseNames,cue1Position,cue2Position,cue1Opacity,cue2Opacity,stageLoop0.thisRepN,stageLoop0.thisTrialN,stageLoop0.thisN,stageLoop0.thisIndex,blockLoop0.thisRepN,blockLoop0.thisTrialN,blockLoop0.thisN,blockLoop0.thisIndex,stage1Loop.thisRepN,stage1Loop.thisTrialN,stage1Loop.thisN,stage1Loop.thisIndex,blockLoop1.thisRepN,blockLoop1.thisTrialN,blockLoop1.thisN,blockLoop1.thisIndex,stage2Loop.thisRepN,stage2Loop.thisTrialN,stage2Loop.thisN,stage2Loop.thisIndex,blockLoop2.thisRepN,blockLoop2.thisTrialN,blockLoop2.thisN,blockLoop2.thisIndex,testLoop.thisRepN,testLoop.thisTrialN,testLoop.thisN,testLoop.thisIndex,blockLoopTest.thisRepN,blockLoopTest.thisTrialN,blockLoopTest.thisN,blockLoopTest.thisIndex,cuePics,id_instr_text.started,id_instr_text.stopped,space_to_continue_2.started,space_to_continue_2.stopped,end_instructions_resp_3.keys,end_instructions_resp_3.rt,end_instructions_resp_3.started,end_instructions_resp_3.stopped,id_input_instr.started,id_input_instr.stopped,id_input_rect.started,id_input_rect.stopped,id_input_resp.keys,id_input_resp.rt,id_input_resp.started,id_input_resp.stopped,sonaID,id_input_text.started,id_input_text.stopped,final_text.started,final_text.stopped,instructions.started,instructions.stopped,end_instructions_resp.keys,end_instructions_resp.rt,end_instructions_resp.started,end_instructions_resp.stopped,space_to_continue.started,space_to_continue.stopped,instructions_stage0.started,instructions_stage0.stopped,end_instructions_resp_stage0.keys,end_instructions_resp_stage0.rt,end_instructions_resp_stage0.started,end_instructions_resp_stage0.stopped,space_to_continue_stage0.started,space_to_continue_stage0.stopped,text.started,text.stopped,resp_text1.started,resp_text1.stopped,resp_text2.started,resp_text2.stopped,trial_resp.keys,trial_resp.corr,trial_resp.rt,trial_resp.started,trial_resp.stopped,cue1Image.started,cue1Image.stopped,cue2Image.started,cue2Image.stopped,cue1Image_fb.started,cue1Image_fb.stopped,cue2Image_fb.started,cue2Image_fb.stopped,fb_text_answer.started,fb_text_answer.stopped,feedback_image.started,feedback_image.stopped,instructions_stage1.started,instructions_stage1.stopped,end_instructions_resp_stage1.keys,end_instructions_resp_stage1.rt,end_instructions_resp_stage1.started,end_instructions_resp_stage1.stopped,space_to_continue_stage1.started,space_to_continue_stage1.stopped,instructions_2.started,instructions_2.stopped,end_instructions_resp_2.keys,end_instructions_resp_2.rt,end_instructions_resp_2.started,end_instructions_resp_2.stopped,press_space_to_continue_stage2.started,press_space_to_continue_stage2.stopped,instructions_testStage1.started,instructions_testStage1.stopped,end_instructions_resp_test1.keys,end_instructions_resp_test1.rt,end_instructions_resp_test1.started,end_instructions_resp_test1.stopped,press_space_to_continue_test1.started,press_space_to_continue_test1.stopped,cue1Image_testChoice.started,cue1Image_testChoice.stopped,cue2Image_testChoice.started,cue2Image_testChoice.stopped,test_resp.keys,test_resp.corr,test_resp.rt,test_resp.started,test_resp.stopped,cue1Image_testConf.started,cue1Image_testConf.stopped,cue2Image_testConf.started,cue2Image_testConf.stopped,conf_reminder.started,conf_reminder.stopped,conf_rating.response,conf_rating.rt,conf_rating.started,conf_rating.stopped,session,participant,date,expName,psychopyVersion,frameRate,
,,,,,,,,,,,,,,,,,,,,,,,,,,,,,,,,,,,,,,,,,,,"{'none': 'pictures/20M_AN_C.png', 'alpha': 'pictures/SHINEd_pepper.png', 'beta': 'pictures/SHINEd_pear.png', 'theta': 'pictures/SHINEd_melon.png', 'phi': 'pictures/SHINEd_apple.png', 'T1': 'pictures/26M_AN_C.png', 'T2': 'pictures/38M_AN_C.png', 'T3': 'pictures/37M_AN_C.png', 'T4': 'pictures/23M_AN_C.png', 'T5': 'pictures/36M_AN_C.png', 'T6': 'pictures/32M_AN_C.png', 'B1': 'pictures/33M_NE_C.png', 'B2': 'pictures/25M_NE_C.png', 'B3': 'pictures/31M_NE_C.png', 'B4': 'pictures/22M_NE_C.png', 'B5': 'pictures/20M_NE_C.png', 'B6': 'pictures/34M_NE_C.png'}",9.794223486999726,None,14.777420895999967,None,space,11.853199988999222,14.777420895999967,None,,,,,,,,,,,,,,,,,,,,,,,,,,,,,,,,,,,,,,,,,,,,,,,,,,,,,,,,,,,,,,,,,,,,,,,,,,,,,,,,,,,,,,,,,,,,,,,,001,30,2020_Jan_30_1032,spring_faces,3.2.3,60.02663946246979,
,,,,,,,,,,,,,,,,,,,,,,,,,,,,,,,,,,,,,,,,,,,,,,,,,,,,27.060895249999703,None,27.060895249999703,None,"['1', '1', '1', '1', 'j', 'a', 'l', 'a', 'k']","[10.193777656999373, 10.62577457899988, 15.633699274999344, 15.953731773999607, 20.353732290999687, 20.673752008999145, 25.36177429199961, 25.553727994999463, 25.793784094999864]",27.060895249999703,None,,,,,,,,,,,,,,,,,,,,,,,,,,,,,,,,,,,,,,,,,,,,,,,,,,,,,,,,,,,,,,,,,,,,,,,,,,,,,,,,,,,,,,,,001,30,2020_Jan_30_1032,spring_faces,3.2.3,60.02663946246979,
,,,,,,,,,,,,,,,,,,,,,,,,,,,,,,,,,,,,,,,,,,,,,,,,,,,,,,,,,,,,1111jalak,27.060895249999703,None,27.060895249999703,None,57.91087150899966,None,space,10.728311618000589,62.89425527899948,None,,,,,,,,,,,,,,,,,,,,,,,,,,,,,,,,,,,,,,,,,,,,,,,,,,,,,,,,,,,,,,,,,,,,,,,,,,,,,001,30,2020_Jan_30_1032,spring_faces,3.2.3,60.02663946246979,
,,,,,,,,,,,,,,,,,,,,,,,,,,,,,,,,,,,,,,,,,,,,,,,,,,,,,,,,,,,,,,,,,,,,,,,62.89425527899948,None,73.64422618699973,None,space,5.139094586999818,78.62756126899967,None,,,,,,,,,,,,,,,,,,,,,,,,,,,,,,,,,,,,,,,,,,,,,,,,,,,,,,,,,,,,,,,,,,,,,001,30,2020_Jan_30_1032,spring_faces,3.2.3,60.02663946246979,
condition files/Stage0a.xlsx,0a,beta,none,g,"['h', 'g']","['Chess', 'Go']","[0, 0.5]","[0, 0]",1,0,0,0,0,0,0,0,0,1,,,,,,,,,,,,,,,,,,,,,,,,,,,,,,,,,,,,,,,,,,,,,,,,,,,,,,,,,,,,,78.62756126899967,None,83.82755439599987,None,83.82755439599987,None,83.82755439599987,None,h,0,2.579824135999843,85.41087722100019,None,85.41087722100019,None,85.41087722100019,None,88.06079546099954,None,88.06079546099954,None,88.06079546099954,None,88.06079546099954,None,,,,,,,,,,,,,,,,,,,,,,,,,,,,,,,,,,,,,,,,,,,,001,30,2020_Jan_30_1032,spring_faces,3.2.3,60.02663946246979,
condition files/Stage0a.xlsx,0a,alpha,none,h,"['h', 'g']","['Chess', 'Go']","[0, 0.5]","[0, 0]",1,0,0,0,0,0,0,1,1,0,,,,,,,,,,,,,,,,,,,,,,,,,,,,,,,,,,,,,,,,,,,,,,,,,,,,,,,,,,,,,,,90.02757812300024,None,90.02757812300024,None,90.02757812300024,None,g,0,1.5498728570000821,91.56087737599955,None,91.56087737599955,None,91.56087737599955,None,93.17747778299963,None,93.17747778299963,None,93.17747778299963,None,93.17747778299963,None,,,,,,,,,,,,,,,,,,,,,,,,,,,,,,,,,,,,,,,,,,,,001,30,2020_Jan_30_1032,spring_faces,3.2.3,60.02663946246979,
condition files/Stage0a.xlsx,0a,beta,none,g,"['h', 'g']","['Chess', 'Go']","[0, 0.5]","[0, 0]",1,0,0,1,1,1,0,0,0,1,,,,,,,,,,,,,,,,,,,,,,,,,,,,,,,,,,,,,,,,,,,,,,,,,,,,,,,,,,,,,,,95.16082151899991,None,95.16082151899991,None,95.16082151899991,None,h,0,0.8645262520003598,96.69421932000023,None,96.69421932000023,None,96.69421932000023,None,97.62755359199946,None,97.62755359199946,None,97.62755359199946,None,97.62755359199946,None,,,,,,,,,,,,,,,,,,,,,,,,,,,,,,,,,,,,,,,,,,,,001,30,2020_Jan_30_1032,spring_faces,3.2.3,60.02663946246979,
condition files/Stage0a.xlsx,0a,alpha,none,h,"['h', 'g']","['Chess', 'Go']","[0, 0.5]","[0, 0]",1,0,0,1,1,1,0,1,1,0,,,,,,,,,,,,,,,,,,,,,,,,,,,,,,,,,,,,,,,,,,,,,,,,,,,,,,,,,,,,,,,99.59414622199984,None,99.59414622199984,None,99.59414622199984,None,h,1,1.631171488000291,101.12756862300012,None,101.12756862300012,None,101.12756862300012,None,102.81080423899948,None,102.81080423899948,None,102.81080423899948,None,102.81080423899948,None,,,,,,,,,,,,,,,,,,,,,,,,,,,,,,,,,,,,,,,,,,,,001,30,2020_Jan_30_1032,spring_faces,3.2.3,60.02663946246979,
condition files/Stage0a.xlsx,0a,beta,none,g,"['h', 'g']","['Chess', 'Go']","[0, 0.5]","[0, 0]",1,0,0,2,2,2,0,0,0,1,,,,,,,,,,,,,,,,,,,,,,,,,,,,,,,,,,,,,,,,,,,,,,,,,,,,,,,,,,,,,,,104.81091356999968,None,104.81091356999968,None,104.81091356999968,None,g,1,0.6864868910006408,106.34418762699988,None,106.34418762699988,None,106.34418762699988,None,107.11094307700023,None,107.11094307700023,None,107.11094307700023,None,107.11094307700023,None,,,,,,,,,,,,,,,,,,,,,,,,,,,,,,,,,,,,,,,,,,,,001,30,2020_Jan_30_1032,spring_faces,3.2.3,60.02663946246979,
condition files/Stage0a.xlsx,0a,alpha,none,h,"['h', 'g']","['Chess', 'Go']","[0, 0.5]","[0, 0]",1,0,0,2,2,2,0,1,1,0,,,,,,,,,,,,,,,,,,,,,,,,,,,,,,,,,,,,,,,,,,,,,,,,,,,,,,,,,,,,,,,109.07756932800021,None,109.07756932800021,None,109.07756932800021,None,h,1,1.251700334999441,110.61088076899978,None,110.61088076899978,None,110.61088076899978,None,111.94423888500023,None,111.94423888500023,None,111.94423888500023,None,111.94423888500023,None,,,,,,,,,,,,,,,,,,,,,,,,,,,,,,,,,,,,,,,,,,,,001,30,2020_Jan_30_1032,spring_faces,3.2.3,60.02663946246979,
condition files/Stage0a.xlsx,0a,beta,none,g,"['h', 'g']","['Chess', 'Go']","[0, 0.5]","[0, 0]",1,0,0,3,3,3,0,0,0,1,,,,,,,,,,,,,,,,,,,,,,,,,,,,,,,,,,,,,,,,,,,,,,,,,,,,,,,,,,,,,,,113.92751159299951,None,113.92751159299951,None,113.92751159299951,None,g,1,0.6257895790004113,115.46089859099993,None,115.46089859099993,None,115.46089859099993,None,116.14421003699954,None,116.14421003699954,None,116.14421003699954,None,116.14421003699954,None,,,,,,,,,,,,,,,,,,,,,,,,,,,,,,,,,,,,,,,,,,,,001,30,2020_Jan_30_1032,spring_faces,3.2.3,60.02663946246979,
condition files/Stage0a.xlsx,0a,alpha,none,h,"['h', 'g']","['Chess', 'Go']","[0, 0.5]","[0, 0]",1,0,0,3,3,3,0,1,1,0,,,,,,,,,,,,,,,,,,,,,,,,,,,,,,,,,,,,,,,,,,,,,,,,,,,,,,,,,,,,,,,118.12758482000027,None,118.12758482000027,None,118.12758482000027,None,h,1,0.6016762019999078,119.6609003450003,None,119.6609003450003,None,119.6609003450003,None,120.34421820099942,None,120.34421820099942,None,120.34421820099942,None,120.34421820099942,None,,,,,,,,,,,,,,,,,,,,,,,,,,,,,,,,,,,,,,,,,,,,001,30,2020_Jan_30_1032,spring_faces,3.2.3,60.02663946246979,
condition files/Stage0a.xlsx,0a,beta,none,g,"['h', 'g']","['Chess', 'Go']","[0, 0.5]","[0, 0]",1,0,0,4,4,4,0,0,0,1,,,,,,,,,,,,,,,,,,,,,,,,,,,,,,,,,,,,,,,,,,,,,,,,,,,,,,,,,,,,,,,122.32741280899972,None,122.32741280899972,None,122.32741280899972,None,g,1,0.9937849929992808,123.86088984399976,None,123.86088984399976,None,123.86088984399976,None,124.91079360099957,None,124.91079360099957,None,124.91079360099957,None,124.91079360099957,None,,,,,,,,,,,,,,,,,,,,,,,,,,,,,,,,,,,,,,,,,,,,001,30,2020_Jan_30_1032,spring_faces,3.2.3,60.02663946246979,
condition files/Stage0a.xlsx,0a,alpha,none,h,"['h', 'g']","['Chess', 'Go']","[0, 0.5]","[0, 0]",1,0,0,4,4,4,0,1,1,0,,,,,,,,,,,,,,,,,,,,,,,,,,,,,,,,,,,,,,,,,,,,,,,,,,,,,,,,,,,,,,,126.89423007799996,None,126.89423007799996,None,126.89423007799996,None,h,1,0.5070922289996815,128.42757076599992,None,128.42757076599992,None,128.42757076599992,None,128.99412562399993,None,128.99412562399993,None,128.99412562399993,None,128.99412562399993,None,,,,,,,,,,,,,,,,,,,,,,,,,,,,,,,,,,,,,,,,,,,,001,30,2020_Jan_30_1032,spring_faces,3.2.3,60.02663946246979,
condition files/Stage0a.xlsx,0a,alpha,none,h,"['h', 'g']","['Chess', 'Go']","[0, 0.5]","[0, 0]",1,0,0,5,5,5,0,0,0,0,,,,,,,,,,,,,,,,,,,,,,,,,,,,,,,,,,,,,,,,,,,,,,,,,,,,,,,,,,,,,,,130.99421009399975,None,130.99421009399975,None,130.99421009399975,None,h,1,0.775148791999527,132.52753961899998,None,132.52753961899998,None,132.52753961899998,None,133.36089676499978,None,133.36089676499978,None,133.36089676499978,None,133.36089676499978,None,,,,,,,,,,,,,,,,,,,,,,,,,,,,,,,,,,,,,,,,,,,,001,30,2020_Jan_30_1032,spring_faces,3.2.3,60.02663946246979,
condition files/Stage0a.xlsx,0a,beta,none,g,"['h', 'g']","['Chess', 'Go']","[0, 0.5]","[0, 0]",1,0,0,5,5,5,0,1,1,1,,,,,,,,,,,,,,,,,,,,,,,,,,,,,,,,,,,,,,,,,,,,,,,,,,,,,,,,,,,,,,,135.3442445159999,None,135.3442445159999,None,135.3442445159999,None,g,1,0.6331729419998737,136.87757827699988,None,136.87757827699988,None,136.87757827699988,None,137.5774887489997,None,137.5774887489997,None,137.5774887489997,None,137.5774887489997,None,,,,,,,,,,,,,,,,,,,,,,,,,,,,,,,,,,,,,,,,,,,,001,30,2020_Jan_30_1032,spring_faces,3.2.3,60.02663946246979,
condition files/Stage0b_1.xlsx,0b,none,beta,g,"['h', 'g']","['Chess', 'Go']","[-0.15, 0.5]","[0.15, 0.5]",0,1,0,6,6,6,0,0,0,1,,,,,,,,,,,,,,,,,,,,,,,,,,,,,,,,,,,,,,,,,,,,,,,,,,,,,,,,,,,,,,,139.56087968500015,None,139.56087968500015,None,139.56087968500015,None,g,1,0.7359497779998492,141.1106452389995,None,141.1106452389995,None,141.1106452389995,None,141.9274597980002,None,141.9274597980002,None,141.9274597980002,None,141.9274597980002,None,,,,,,,,,,,,,,,,,,,,,,,,,,,,,,,,,,,,,,,,,,,,001,30,2020_Jan_30_1032,spring_faces,3.2.3,60.02663946246979,
condition files/Stage0b_1.xlsx,0b,alpha,none,h,"['h', 'g']","['Chess', 'Go']","[-0.15, 0.5]","[0.15, 0.5]",1,0,0,6,6,6,0,1,1,0,,,,,,,,,,,,,,,,,,,,,,,,,,,,,,,,,,,,,,,,,,,,,,,,,,,,,,,,,,,,,,,143.89401162899958,None,143.89401162899958,None,143.89401162899958,None,h,1,0.7233066909993795,145.42735873499987,None,145.42735873499987,None,145.42735873499987,None,146.22757987299974,None,146.22757987299974,None,146.22757987299974,None,146.22757987299974,None,,,,,,,,,,,,,,,,,,,,,,,,,,,,,,,,,,,,,,,,,,,,001,30,2020_Jan_30_1032,spring_faces,3.2.3,60.02663946246979,
condition files/Stage0b_2.xlsx,0b,none,alpha,h,"['h', 'g']","['Chess', 'Go']","[-0.15, 0.5]","[0.15, 0.5]",0,1,0,7,7,7,0,0,0,0,,,,,,,,,,,,,,,,,,,,,,,,,,,,,,,,,,,,,,,,,,,,,,,,,,,,,,,,,,,,,,,148.2109102940003,None,148.2109102940003,None,148.2109102940003,None,h,1,1.0145079829999304,149.74424340799942,None,149.74424340799942,None,149.74424340799942,None,150.8108786519997,None,150.8108786519997,None,150.8108786519997,None,150.8108786519997,None,,,,,,,,,,,,,,,,,,,,,,,,,,,,,,,,,,,,,,,,,,,,001,30,2020_Jan_30_1032,spring_faces,3.2.3,60.02663946246979,
condition files/Stage0b_2.xlsx,0b,beta,none,g,"['h', 'g']","['Chess', 'Go']","[-0.15, 0.5]","[0.15, 0.5]",1,0,0,7,7,7,0,1,1,1,,,,,,,,,,,,,,,,,,,,,,,,,,,,,,,,,,,,,,,,,,,,,,,,,,,,,,,,,,,,,,,152.79411523599993,None,152.79411523599993,None,152.79411523599993,None,g,1,0.8312636159998874,154.32747268999992,None,154.32747268999992,None,154.32747268999992,None,155.22756307799955,None,155.22756307799955,None,155.22756307799955,None,155.22756307799955,None,,,,,,,,,,,,,,,,,,,,,,,,,,,,,,,,,,,,,,,,,,,,001,30,2020_Jan_30_1032,spring_faces,3.2.3,60.02663946246979,
condition files/Stage0b_1.xlsx,0b,none,beta,g,"['h', 'g']","['Chess', 'Go']","[-0.15, 0.5]","[0.15, 0.5]",0,1,0,8,8,8,0,0,0,1,,,,,,,,,,,,,,,,,,,,,,,,,,,,,,,,,,,,,,,,,,,,,,,,,,,,,,,,,,,,,,,157.21090085000014,None,157.21090085000014,None,157.21090085000014,None,g,1,0.8145709610007543,158.74419468199994,None,158.74419468199994,None,158.74419468199994,None,159.61092925100002,None,159.61092925100002,None,159.61092925100002,None,159.61092925100002,None,,,,,,,,,,,,,,,,,,,,,,,,,,,,,,,,,,,,,,,,,,,,001,30,2020_Jan_30_1032,spring_faces,3.2.3,60.02663946246979,
condition files/Stage0b_1.xlsx,0b,alpha,none,h,"['h', 'g']","['Chess', 'Go']","[-0.15, 0.5]","[0.15, 0.5]",1,0,0,8,8,8,0,1,1,0,,,,,,,,,,,,,,,,,,,,,,,,,,,,,,,,,,,,,,,,,,,,,,,,,,,,,,,,,,,,,,,161.59412091099966,None,161.59412091099966,None,161.59412091099966,None,h,1,0.7995480919998954,163.12721746399984,None,163.12721746399984,None,163.12721746399984,None,163.99415545099964,None,163.99415545099964,None,163.99415545099964,None,163.99415545099964,None,,,,,,,,,,,,,,,,,,,,,,,,,,,,,,,,,,,,,,,,,,,,001,30,2020_Jan_30_1032,spring_faces,3.2.3,60.02663946246979,
condition files/Stage0b_2.xlsx,0b,beta,none,g,"['h', 'g']","['Chess', 'Go']","[-0.15, 0.5]","[0.15, 0.5]",1,0,0,9,9,9,0,0,0,1,,,,,,,,,,,,,,,,,,,,,,,,,,,,,,,,,,,,,,,,,,,,,,,,,,,,,,,,,,,,,,,165.97750935000022,None,165.97750935000022,None,165.97750935000022,None,g,1,0.8317956650007545,167.51096279600006,None,167.51096279600006,None,167.51096279600006,None,168.41088246900017,None,168.41088246900017,None,168.41088246900017,None,168.41088246900017,None,,,,,,,,,,,,,,,,,,,,,,,,,,,,,,,,,,,,,,,,,,,,001,30,2020_Jan_30_1032,spring_faces,3.2.3,60.02663946246979,
condition files/Stage0b_2.xlsx,0b,none,alpha,h,"['h', 'g']","['Chess', 'Go']","[-0.15, 0.5]","[0.15, 0.5]",0,1,0,9,9,9,0,1,1,0,,,,,,,,,,,,,,,,,,,,,,,,,,,,,,,,,,,,,,,,,,,,,,,,,,,,,,,,,,,,,,,170.37757847899957,None,170.37757847899957,None,170.37757847899957,None,h,1,0.5272966270003963,171.92743943000005,None,171.92743943000005,None,171.92743943000005,None,172.52757341300003,None,172.52757341300003,None,172.52757341300003,None,172.52757341300003,None,,,,,,,,,,,,,,,,,,,,,,,,,,,,,,,,,,,,,,,,,,,,001,30,2020_Jan_30_1032,spring_faces,3.2.3,60.02663946246979,
condition files/Stage0b_1.xlsx,0b,none,beta,g,"['h', 'g']","['Chess', 'Go']","[-0.15, 0.5]","[0.15, 0.5]",0,1,0,10,10,10,0,0,0,1,,,,,,,,,,,,,,,,,,,,,,,,,,,,,,,,,,,,,,,,,,,,,,,,,,,,,,,,,,,,,,,174.51091231699957,None,174.51091231699957,None,174.51091231699957,None,g,1,0.6985455329995602,176.04422795400023,None,176.04422795400023,None,176.04422795400023,None,176.81088792099945,None,176.81088792099945,None,176.81088792099945,None,176.81088792099945,None,,,,,,,,,,,,,,,,,,,,,,,,,,,,,,,,,,,,,,,,,,,,001,30,2020_Jan_30_1032,spring_faces,3.2.3,60.02663946246979,
condition files/Stage0b_1.xlsx,0b,alpha,none,h,"['h', 'g']","['Chess', 'Go']","[-0.15, 0.5]","[0.15, 0.5]",1,0,0,10,10,10,0,1,1,0,,,,,,,,,,,,,,,,,,,,,,,,,,,,,,,,,,,,,,,,,,,,,,,,,,,,,,,,,,,,,,,178.7774708959996,None,178.7774708959996,None,178.7774708959996,None,h,1,0.655878933999702,180.31078584399984,None,180.31078584399984,None,180.31078584399984,None,181.04423101599969,None,181.04423101599969,None,181.04423101599969,None,181.04423101599969,None,,,,,,,,,,,,,,,,,,,,,,,,,,,,,,,,,,,,,,,,,,,,001,30,2020_Jan_30_1032,spring_faces,3.2.3,60.02663946246979,
condition files/Stage0b_2.xlsx,0b,beta,none,g,"['h', 'g']","['Chess', 'Go']","[-0.15, 0.5]","[0.15, 0.5]",1,0,0,11,11,11,0,0,0,1,,,,,,,,,,,,,,,,,,,,,,,,,,,,,,,,,,,,,,,,,,,,,,,,,,,,,,,,,,,,,,,183.0275564630001,None,183.0275564630001,None,183.0275564630001,None,g,1,0.5818485390000205,184.56091477399968,None,184.56091477399968,None,184.56091477399968,None,185.21091130100012,None,185.21091130100012,None,185.21091130100012,None,185.21091130100012,None,,,,,,,,,,,,,,,,,,,,,,,,,,,,,,,,,,,,,,,,,,,,001,30,2020_Jan_30_1032,spring_faces,3.2.3,60.02663946246979,
condition files/Stage0b_2.xlsx,0b,none,alpha,h,"['h', 'g']","['Chess', 'Go']","[-0.15, 0.5]","[0.15, 0.5]",0,1,0,11,11,11,0,1,1,0,,,,,,,,,,,,,,,,,,,,,,,,,,,,,,,,,,,,,,,,,,,,,,,,,,,,,,,,,,,,,,,187.17759331599973,None,187.17759331599973,None,187.17759331599973,None,h,1,0.36761114000000816,188.71096341300017,None,188.71096341300017,None,188.71096341300017,None,189.16089879900028,None,189.16089879900028,None,189.16089879900028,None,189.16089879900028,None,,,,,,,,,,,,,,,,,,,,,,,,,,,,,,,,,,,,,,,,,,,,001,30,2020_Jan_30_1032,spring_faces,3.2.3,60.02663946246979,
condition files/Stage0c_1.xlsx,0c,theta,alpha,h,"['h', 'g']","['Chess', 'Go']","[-0.15, 0.5]","[0.15, 0.5]",1,1,0,12,12,12,0,0,0,0,,,,,,,,,,,,,,,,,,,,,,,,,,,,,,,,,,,,,,,,,,,,,,,,,,,,,,,,,,,,,,,191.14422255299996,None,191.14422255299996,None,191.14422255299996,None,g,0,3.137230903999807,192.67744867599959,None,192.67744867599959,None,192.67744867599959,None,195.8774438319997,None,195.8774438319997,None,195.8774438319997,None,195.8774438319997,None,,,,,,,,,,,,,,,,,,,,,,,,,,,,,,,,,,,,,,,,,,,,001,30,2020_Jan_30_1032,spring_faces,3.2.3,60.02663946246979,
condition files/Stage0c_1.xlsx,0c,alpha,phi,h,"['h', 'g']","['Chess', 'Go']","[-0.15, 0.5]","[0.15, 0.5]",1,1,0,12,12,12,0,1,1,1,,,,,,,,,,,,,,,,,,,,,,,,,,,,,,,,,,,,,,,,,,,,,,,,,,,,,,,,,,,,,,,197.86090340699957,None,197.86090340699957,None,197.86090340699957,None,h,1,1.5724332740001046,199.3942105219994,None,199.3942105219994,None,199.3942105219994,None,201.02755847200024,None,201.02755847200024,None,201.02755847200024,None,201.02755847200024,None,,,,,,,,,,,,,,,,,,,,,,,,,,,,,,,,,,,,,,,,,,,,001,30,2020_Jan_30_1032,spring_faces,3.2.3,60.02663946246979,
condition files/Stage0c_1.xlsx,0c,beta,theta,g,"['h', 'g']","['Chess', 'Go']","[-0.15, 0.5]","[0.15, 0.5]",1,1,0,12,12,12,0,2,2,2,,,,,,,,,,,,,,,,,,,,,,,,,,,,,,,,,,,,,,,,,,,,,,,,,,,,,,,,,,,,,,,203.0109223190002,None,203.0109223190002,None,203.0109223190002,None,g,1,0.8864177559999007,204.5442285479994,None,204.5442285479994,None,204.5442285479994,None,205.4942065739997,None,205.4942065739997,None,205.4942065739997,None,205.4942065739997,None,,,,,,,,,,,,,,,,,,,,,,,,,,,,,,,,,,,,,,,,,,,,001,30,2020_Jan_30_1032,spring_faces,3.2.3,60.02663946246979,
condition files/Stage0c_1.xlsx,0c,phi,beta,g,"['h', 'g']","['Chess', 'Go']","[-0.15, 0.5]","[0.15, 0.5]",1,1,0,12,12,12,0,3,3,3,,,,,,,,,,,,,,,,,,,,,,,,,,,,,,,,,,,,,,,,,,,,,,,,,,,,,,,,,,,,,,,207.47758297899964,None,207.47758297899964,None,207.47758297899964,None,g,1,1.5717521369997485,209.01089950499954,None,209.01089950499954,None,209.01089950499954,None,210.64423784300016,None,210.64423784300016,None,210.64423784300016,None,210.64423784300016,None,,,,,,,,,,,,,,,,,,,,,,,,,,,,,,,,,,,,,,,,,,,,001,30,2020_Jan_30_1032,spring_faces,3.2.3,60.02663946246979,
condition files/Stage0c_2.xlsx,0c,theta,beta,g,"['h', 'g']","['Chess', 'Go']","[-0.15, 0.5]","[0.15, 0.5]",1,1,0,13,13,13,0,0,0,2,,,,,,,,,,,,,,,,,,,,,,,,,,,,,,,,,,,,,,,,,,,,,,,,,,,,,,,,,,,,,,,212.64423861700016,None,212.64423861700016,None,212.64423861700016,None,g,1,1.2531035270003485,214.1775517320002,None,214.1775517320002,None,214.1775517320002,None,215.49423549199946,None,215.49423549199946,None,215.49423549199946,None,215.49423549199946,None,,,,,,,,,,,,,,,,,,,,,,,,,,,,,,,,,,,,,,,,,,,,001,30,2020_Jan_30_1032,spring_faces,3.2.3,60.02663946246979,
condition files/Stage0c_2.xlsx,0c,beta,phi,g,"['h', 'g']","['Chess', 'Go']","[-0.15, 0.5]","[0.15, 0.5]",1,1,0,13,13,13,0,1,1,3,,,,,,,,,,,,,,,,,,,,,,,,,,,,,,,,,,,,,,,,,,,,,,,,,,,,,,,,,,,,,,,217.47740816799978,None,217.47740816799978,None,217.47740816799978,None,g,1,0.9798261550004099,219.01089170700016,None,219.01089170700016,None,219.01089170700016,None,220.04421842800002,None,220.04421842800002,None,220.04421842800002,None,220.04421842800002,None,,,,,,,,,,,,,,,,,,,,,,,,,,,,,,,,,,,,,,,,,,,,001,30,2020_Jan_30_1032,spring_faces,3.2.3,60.02663946246979,
condition files/Stage0c_2.xlsx,0c,alpha,theta,h,"['h', 'g']","['Chess', 'Go']","[-0.15, 0.5]","[0.15, 0.5]",1,1,0,13,13,13,0,2,2,0,,,,,,,,,,,,,,,,,,,,,,,,,,,,,,,,,,,,,,,,,,,,,,,,,,,,,,,,,,,,,,,222.02759866899942,None,222.02759866899942,None,222.02759866899942,None,h,1,0.6704737740001292,223.54417659699993,None,223.54417659699993,None,223.54417659699993,None,224.2776048249998,None,224.2776048249998,None,224.2776048249998,None,224.2776048249998,None,,,,,,,,,,,,,,,,,,,,,,,,,,,,,,,,,,,,,,,,,,,,001,30,2020_Jan_30_1032,spring_faces,3.2.3,60.02663946246979,
condition files/Stage0c_2.xlsx,0c,phi,alpha,h,"['h', 'g']","['Chess', 'Go']","[-0.15, 0.5]","[0.15, 0.5]",1,1,0,13,13,13,0,3,3,1,,,,,,,,,,,,,,,,,,,,,,,,,,,,,,,,,,,,,,,,,,,,,,,,,,,,,,,,,,,,,,,226.26088681599958,None,226.26088681599958,None,226.26088681599958,None,h,1,1.0615869940002085,227.7770959919999,None,227.7770959919999,None,227.7770959919999,None,228.89423500999965,None,228.89423500999965,None,228.89423500999965,None,228.89423500999965,None,,,,,,,,,,,,,,,,,,,,,,,,,,,,,,,,,,,,,,,,,,,,001,30,2020_Jan_30_1032,spring_faces,3.2.3,60.02663946246979,
condition files/Stage0c_1.xlsx,0c,phi,beta,g,"['h', 'g']","['Chess', 'Go']","[-0.15, 0.5]","[0.15, 0.5]",1,1,0,14,14,14,0,0,0,3,,,,,,,,,,,,,,,,,,,,,,,,,,,,,,,,,,,,,,,,,,,,,,,,,,,,,,,,,,,,,,,230.8942046359998,None,230.8942046359998,None,230.8942046359998,None,g,1,1.035052025999903,232.42754688100013,None,232.42754688100013,None,232.42754688100013,None,233.52749257199957,None,233.52749257199957,None,233.52749257199957,None,233.52749257199957,None,,,,,,,,,,,,,,,,,,,,,,,,,,,,,,,,,,,,,,,,,,,,001,30,2020_Jan_30_1032,spring_faces,3.2.3,60.02663946246979,
condition files/Stage0c_1.xlsx,0c,beta,theta,g,"['h', 'g']","['Chess', 'Go']","[-0.15, 0.5]","[0.15, 0.5]",1,1,0,14,14,14,0,1,1,2,,,,,,,,,,,,,,,,,,,,,,,,,,,,,,,,,,,,,,,,,,,,,,,,,,,,,,,,,,,,,,,235.51096300900008,None,235.51096300900008,None,235.51096300900008,None,g,1,0.659206968000035,237.02747488000023,None,237.02747488000023,None,237.02747488000023,None,237.74421045399959,None,237.74421045399959,None,237.74421045399959,None,237.74421045399959,None,,,,,,,,,,,,,,,,,,,,,,,,,,,,,,,,,,,,,,,,,,,,001,30,2020_Jan_30_1032,spring_faces,3.2.3,60.02663946246979,
condition files/Stage0c_1.xlsx,0c,theta,alpha,h,"['h', 'g']","['Chess', 'Go']","[-0.15, 0.5]","[0.15, 0.5]",1,1,0,14,14,14,0,2,2,0,,,,,,,,,,,,,,,,,,,,,,,,,,,,,,,,,,,,,,,,,,,,,,,,,,,,,,,,,,,,,,,239.727590728,None,239.727590728,None,239.727590728,None,h,1,0.3308657019997554,241.24390441099968,None,241.24390441099968,None,241.24390441099968,None,241.62753551700007,None,241.62753551700007,None,241.62753551700007,None,241.62753551700007,None,,,,,,,,,,,,,,,,,,,,,,,,,,,,,,,,,,,,,,,,,,,,001,30,2020_Jan_30_1032,spring_faces,3.2.3,60.02663946246979,
condition files/Stage0c_1.xlsx,0c,alpha,phi,h,"['h', 'g']","['Chess', 'Go']","[-0.15, 0.5]","[0.15, 0.5]",1,1,0,14,14,14,0,3,3,1,,,,,,,,,,,,,,,,,,,,,,,,,,,,,,,,,,,,,,,,,,,,,,,,,,,,,,,,,,,,,,,243.61088695199942,None,243.61088695199942,None,243.61088695199942,None,h,1,0.7032316849999916,245.12741149900012,None,245.12741149900012,None,245.12741149900012,None,245.8942502789996,None,245.8942502789996,None,245.8942502789996,None,245.8942502789996,None,,,,,,,,,,,,,,,,,,,,,,,,,,,,,,,,,,,,,,,,,,,,001,30,2020_Jan_30_1032,spring_faces,3.2.3,60.02663946246979,
condition files/Stage0c_2.xlsx,0c,theta,beta,g,"['h', 'g']","['Chess', 'Go']","[-0.15, 0.5]","[0.15, 0.5]",1,1,0,15,15,15,0,0,0,2,,,,,,,,,,,,,,,,,,,,,,,,,,,,,,,,,,,,,,,,,,,,,,,,,,,,,,,,,,,,,,,247.8942085059998,None,247.8942085059998,None,247.8942085059998,None,h,0,0.6751442940003471,249.42754192099983,None,249.42754192099983,None,249.42754192099983,None,250.1608775679997,None,250.1608775679997,None,250.1608775679997,None,250.1608775679997,None,,,,,,,,,,,,,,,,,,,,,,,,,,,,,,,,,,,,,,,,,,,,001,30,2020_Jan_30_1032,spring_faces,3.2.3,60.02663946246979,
condition files/Stage0c_2.xlsx,0c,phi,alpha,h,"['h', 'g']","['Chess', 'Go']","[-0.15, 0.5]","[0.15, 0.5]",1,1,0,15,15,15,0,1,1,1,,,,,,,,,,,,,,,,,,,,,,,,,,,,,,,,,,,,,,,,,,,,,,,,,,,,,,,,,,,,,,,252.14422061299956,None,252.14422061299956,None,252.14422061299956,None,h,1,1.002108218000103,253.6605045770002,None,253.6605045770002,None,253.6605045770002,None,254.72752028299965,None,254.72752028299965,None,254.72752028299965,None,254.72752028299965,None,,,,,,,,,,,,,,,,,,,,,,,,,,,,,,,,,,,,,,,,,,,,001,30,2020_Jan_30_1032,spring_faces,3.2.3,60.02663946246979,
condition files/Stage0c_2.xlsx,0c,beta,phi,g,"['h', 'g']","['Chess', 'Go']","[-0.15, 0.5]","[0.15, 0.5]",1,1,0,15,15,15,0,2,2,3,,,,,,,,,,,,,,,,,,,,,,,,,,,,,,,,,,,,,,,,,,,,,,,,,,,,,,,,,,,,,,,256.7108553749995,None,256.7108553749995,None,256.7108553749995,None,g,1,0.931338002999837,258.2273898599997,None,258.2273898599997,None,258.2273898599997,None,259.21092080200015,None,259.21092080200015,None,259.21092080200015,None,259.21092080200015,None,,,,,,,,,,,,,,,,,,,,,,,,,,,,,,,,,,,,,,,,,,,,001,30,2020_Jan_30_1032,spring_faces,3.2.3,60.02663946246979,
condition files/Stage0c_2.xlsx,0c,alpha,theta,h,"['h', 'g']","['Chess', 'Go']","[-0.15, 0.5]","[0.15, 0.5]",1,1,0,15,15,15,0,3,3,0,,,,,,,,,,,,,,,,,,,,,,,,,,,,,,,,,,,,,,,,,,,,,,,,,,,,,,,,,,,,,,,261.1942452590001,None,261.1942452590001,None,261.1942452590001,None,h,1,0.7042675329994381,262.71039815899985,None,262.71039815899985,None,262.71039815899985,None,263.47755437199976,None,263.47755437199976,None,263.47755437199976,None,263.47755437199976,None,,,,,,,,,,,,,,,,,,,,,,,,,,,,,,,,,,,,,,,,,,,,001,30,2020_Jan_30_1032,spring_faces,3.2.3,60.02663946246979,
condition files/Stage0c_1.xlsx,0c,beta,theta,g,"['h', 'g']","['Chess', 'Go']","[-0.15, 0.5]","[0.15, 0.5]",1,1,0,16,16,16,0,0,0,2,,,,,,,,,,,,,,,,,,,,,,,,,,,,,,,,,,,,,,,,,,,,,,,,,,,,,,,,,,,,,,,265.4774419989999,None,265.4774419989999,None,265.4774419989999,None,g,1,0.7877637849996972,267.0108999539998,None,267.0108999539998,None,267.0108999539998,None,267.8608774149998,None,267.8608774149998,None,267.8608774149998,None,267.8608774149998,None,,,,,,,,,,,,,,,,,,,,,,,,,,,,,,,,,,,,,,,,,,,,001,30,2020_Jan_30_1032,spring_faces,3.2.3,60.02663946246979,
condition files/Stage0c_1.xlsx,0c,alpha,phi,h,"['h', 'g']","['Chess', 'Go']","[-0.15, 0.5]","[0.15, 0.5]",1,1,0,16,16,16,0,1,1,1,,,,,,,,,,,,,,,,,,,,,,,,,,,,,,,,,,,,,,,,,,,,,,,,,,,,,,,,,,,,,,,269.84426205899945,None,269.84426205899945,None,269.84426205899945,None,h,1,0.806057492999571,271.360592862,None,271.360592862,None,271.360592862,None,272.2275729490002,None,272.2275729490002,None,272.2275729490002,None,272.2275729490002,None,,,,,,,,,,,,,,,,,,,,,,,,,,,,,,,,,,,,,,,,,,,,001,30,2020_Jan_30_1032,spring_faces,3.2.3,60.02663946246979,
condition files/Stage0c_1.xlsx,0c,theta,alpha,h,"['h', 'g']","['Chess', 'Go']","[-0.15, 0.5]","[0.15, 0.5]",1,1,0,16,16,16,0,2,2,0,,,,,,,,,,,,,,,,,,,,,,,,,,,,,,,,,,,,,,,,,,,,,,,,,,,,,,,,,,,,,,,274.21091101099955,None,274.21091101099955,None,274.21091101099955,None,h,1,0.7431025790001513,275.7275806769994,None,275.7275806769994,None,275.7275806769994,None,276.52754712299975,None,276.52754712299975,None,276.52754712299975,None,276.52754712299975,None,,,,,,,,,,,,,,,,,,,,,,,,,,,,,,,,,,,,,,,,,,,,001,30,2020_Jan_30_1032,spring_faces,3.2.3,60.02663946246979,
condition files/Stage0c_1.xlsx,0c,phi,beta,g,"['h', 'g']","['Chess', 'Go']","[-0.15, 0.5]","[0.15, 0.5]",1,1,0,16,16,16,0,3,3,3,,,,,,,,,,,,,,,,,,,,,,,,,,,,,,,,,,,,,,,,,,,,,,,,,,,,,,,,,,,,,,,278.5109276439998,None,278.5109276439998,None,278.5109276439998,None,g,1,0.763176657999793,280.027521946,None,280.027521946,None,280.027521946,None,280.84416478099956,None,280.84416478099956,None,280.84416478099956,None,280.84416478099956,None,,,,,,,,,,,,,,,,,,,,,,,,,,,,,,,,,,,,,,,,,,,,001,30,2020_Jan_30_1032,spring_faces,3.2.3,60.02663946246979,
condition files/Stage0c_2.xlsx,0c,phi,alpha,h,"['h', 'g']","['Chess', 'Go']","[-0.15, 0.5]","[0.15, 0.5]",1,1,0,17,17,17,0,0,0,1,,,,,,,,,,,,,,,,,,,,,,,,,,,,,,,,,,,,,,,,,,,,,,,,,,,,,,,,,,,,,,,282.844229929,None,282.844229929,None,282.844229929,None,h,1,0.5578191559998231,284.36086371700003,None,284.36086371700003,None,284.36086371700003,None,284.97756619400025,None,284.97756619400025,None,284.97756619400025,None,284.97756619400025,None,,,,,,,,,,,,,,,,,,,,,,,,,,,,,,,,,,,,,,,,,,,,001,30,2020_Jan_30_1032,spring_faces,3.2.3,60.02663946246979,
condition files/Stage0c_2.xlsx,0c,alpha,theta,h,"['h', 'g']","['Chess', 'Go']","[-0.15, 0.5]","[0.15, 0.5]",1,1,0,17,17,17,0,1,1,0,,,,,,,,,,,,,,,,,,,,,,,,,,,,,,,,,,,,,,,,,,,,,,,,,,,,,,,,,,,,,,,286.9775828669999,None,286.9775828669999,None,286.9775828669999,None,h,1,0.6326006909994248,288.49417897999956,None,288.49417897999956,None,288.49417897999956,None,289.1775132439998,None,289.1775132439998,None,289.1775132439998,None,289.1775132439998,None,,,,,,,,,,,,,,,,,,,,,,,,,,,,,,,,,,,,,,,,,,,,001,30,2020_Jan_30_1032,spring_faces,3.2.3,60.02663946246979,
condition files/Stage0c_2.xlsx,0c,beta,phi,g,"['h', 'g']","['Chess', 'Go']","[-0.15, 0.5]","[0.15, 0.5]",1,1,0,17,17,17,0,2,2,3,,,,,,,,,,,,,,,,,,,,,,,,,,,,,,,,,,,,,,,,,,,,,,,,,,,,,,,,,,,,,,,291.160845765,None,291.160845765,None,291.160845765,None,g,1,0.5772038029999749,292.67746247499963,None,292.67746247499963,None,292.67746247499963,None,293.3108999819997,None,293.3108999819997,None,293.3108999819997,None,293.3108999819997,None,,,,,,,,,,,,,,,,,,,,,,,,,,,,,,,,,,,,,,,,,,,,001,30,2020_Jan_30_1032,spring_faces,3.2.3,60.02663946246979,
condition files/Stage0c_2.xlsx,0c,theta,beta,g,"['h', 'g']","['Chess', 'Go']","[-0.15, 0.5]","[0.15, 0.5]",1,1,0,17,17,17,0,3,3,2,,,,,,,,,,,,,,,,,,,,,,,,,,,,,,,,,,,,,,,,,,,,,,,,,,,,,,,,,,,,,,,295.2942120380003,None,295.2942120380003,None,295.2942120380003,None,g,1,0.9878844889999527,296.810737025,None,296.810737025,None,296.810737025,None,297.86089305099995,None,297.86089305099995,None,297.86089305099995,None,297.86089305099995,None,,,,,,,,,,,,,,,,,,,,,,,,,,,,,,,,,,,,,,,,,,,,001,30,2020_Jan_30_1032,spring_faces,3.2.3,60.02663946246979,
,,,,,,,,,,,,,,,,,,,,,,,,,,,,,,,,,,,,,,,,,,,,,,,,,,,,,,,,,,,,,,,,,,,,,,,,,,,,,,,,,,,,,,,,,,,,,,,,,,,,,,,,299.8442095370001,None,space,5.899224315000538,304.82755065499987,None,,,,,,,,,,,,,,,,,,,,,,,,,,,,,,,,,,,,,,001,30,2020_Jan_30_1032,spring_faces,3.2.3,60.02663946246979,
condition files/Stage1_1.xlsx,,B4,T4,m,"['c', 'm']","['Clue', 'Monopoly']","[-0.15, 0.5]","[0.15, 0.5]",1,1,,,,,,,,,0,0,0,0,0,0,0,7,,,,,,,,,,,,,,,,,,,,,,,,,,,,,,,,,,,,,,,,,,,,,,,,,,,,,,,310.7941599019996,None,310.7941599019996,None,310.7941599019996,None,c,0,1.0065960929996436,312.3440191029995,None,312.3440191029995,None,312.3440191029995,None,313.4439718369995,None,313.4439718369995,None,313.4439718369995,None,313.4439718369995,None,,,,,,,304.82755065499987,None,,,,,,,,,,,,,,,,,,,,,,,,,,,,,,,,,,,,001,30,2020_Jan_30_1032,spring_faces,3.2.3,60.02663946246979,
condition files/Stage1_1.xlsx,,B3,T3,c,"['c', 'm']","['Clue', 'Monopoly']","[-0.15, 0.5]","[0.15, 0.5]",1,1,,,,,,,,,0,0,0,0,0,1,1,4,,,,,,,,,,,,,,,,,,,,,,,,,,,,,,,,,,,,,,,,,,,,,,,,,,,,,,,315.39426800399997,None,315.39426800399997,None,315.39426800399997,None,c,1,0.8530659130001368,316.97758528600025,None,316.97758528600025,None,316.97758528600025,None,317.9108879539999,None,317.9108879539999,None,317.9108879539999,None,317.9108879539999,None,,,,,,,,,,,,,,,,,,,,,,,,,,,,,,,,,,,,,,,,,,,,001,30,2020_Jan_30_1032,spring_faces,3.2.3,60.02663946246979,
condition files/Stage1_1.xlsx,,T1,B1,c,"['c', 'm']","['Clue', 'Monopoly']","[-0.15, 0.5]","[0.15, 0.5]",1,1,,,,,,,,,0,0,0,0,0,2,2,0,,,,,,,,,,,,,,,,,,,,,,,,,,,,,,,,,,,,,,,,,,,,,,,,,,,,,,,319.87756621300014,None,319.87756621300014,None,319.87756621300014,None,m,0,0.8337156240004333,321.4608793259995,None,321.4608793259995,None,321.4608793259995,None,322.36083169799986,None,322.36083169799986,None,322.36083169799986,None,322.36083169799986,None,,,,,,,,,,,,,,,,,,,,,,,,,,,,,,,,,,,,,,,,,,,,001,30,2020_Jan_30_1032,spring_faces,3.2.3,60.02663946246979,
condition files/Stage1_1.xlsx,,B1,T2,c,"['c', 'm']","['Clue', 'Monopoly']","[-0.15, 0.5]","[0.15, 0.5]",1,1,,,,,,,,,0,0,0,0,0,3,3,1,,,,,,,,,,,,,,,,,,,,,,,,,,,,,,,,,,,,,,,,,,,,,,,,,,,,,,,324.3441637369997,None,324.3441637369997,None,324.3441637369997,None,c,1,1.6970230650003941,325.8775702369994,None,325.8775702369994,None,325.8775702369994,None,327.62754020899956,None,327.62754020899956,None,327.62754020899956,None,327.62754020899956,None,,,,,,,,,,,,,,,,,,,,,,,,,,,,,,,,,,,,,,,,,,,,001,30,2020_Jan_30_1032,spring_faces,3.2.3,60.02663946246979,
condition files/Stage1_1.xlsx,,T2,B2,m,"['c', 'm']","['Clue', 'Monopoly']","[-0.15, 0.5]","[0.15, 0.5]",1,1,,,,,,,,,0,0,0,0,0,4,4,3,,,,,,,,,,,,,,,,,,,,,,,,,,,,,,,,,,,,,,,,,,,,,,,,,,,,,,,329.6109355839999,None,329.6109355839999,None,329.6109355839999,None,c,0,1.038474392000353,331.14417938599945,None,331.14417938599945,None,331.14417938599945,None,332.2609048590002,None,332.2609048590002,None,332.2609048590002,None,332.2609048590002,None,,,,,,,,,,,,,,,,,,,,,,,,,,,,,,,,,,,,,,,,,,,,001,30,2020_Jan_30_1032,spring_faces,3.2.3,60.02663946246979,
condition files/Stage1_1.xlsx,,T3,B4,c,"['c', 'm']","['Clue', 'Monopoly']","[-0.15, 0.5]","[0.15, 0.5]",1,1,,,,,,,,,0,0,0,0,0,5,5,5,,,,,,,,,,,,,,,,,,,,,,,,,,,,,,,,,,,,,,,,,,,,,,,,,,,,,,,334.2275967659998,None,334.2275967659998,None,334.2275967659998,None,m,0,2.597827397000401,335.76090891900003,None,335.76090891900003,None,335.76090891900003,None,338.4275404680002,None,338.4275404680002,None,338.4275404680002,None,338.4275404680002,None,,,,,,,,,,,,,,,,,,,,,,,,,,,,,,,,,,,,,,,,,,,,001,30,2020_Jan_30_1032,spring_faces,3.2.3,60.02663946246979,
condition files/Stage1_1.xlsx,,T4,B3,m,"['c', 'm']","['Clue', 'Monopoly']","[-0.15, 0.5]","[0.15, 0.5]",1,1,,,,,,,,,0,0,0,0,0,6,6,6,,,,,,,,,,,,,,,,,,,,,,,,,,,,,,,,,,,,,,,,,,,,,,,,,,,,,,,340.39425051299986,None,340.39425051299986,None,340.39425051299986,None,m,1,2.223156844999721,341.92752030999964,None,341.92752030999964,None,341.92752030999964,None,344.22760260299947,None,344.22760260299947,None,344.22760260299947,None,344.22760260299947,None,,,,,,,,,,,,,,,,,,,,,,,,,,,,,,,,,,,,,,,,,,,,001,30,2020_Jan_30_1032,spring_faces,3.2.3,60.02663946246979,
condition files/Stage1_1.xlsx,,B2,T1,m,"['c', 'm']","['Clue', 'Monopoly']","[-0.15, 0.5]","[0.15, 0.5]",1,1,,,,,,,,,0,0,0,0,0,7,7,2,,,,,,,,,,,,,,,,,,,,,,,,,,,,,,,,,,,,,,,,,,,,,,,,,,,,,,,346.19428985099967,None,346.19428985099967,None,346.19428985099967,None,c,0,1.143114035000508,347.7275686459998,None,347.7275686459998,None,347.7275686459998,None,348.9276075580001,None,348.9276075580001,None,348.9276075580001,None,348.9276075580001,None,,,,,,,,,,,,,,,,,,,,,,,,,,,,,,,,,,,,,,,,,,,,001,30,2020_Jan_30_1032,spring_faces,3.2.3,60.02663946246979,
condition files/Stage1_2.xlsx,,B2,T2,m,"['c', 'm']","['Clue', 'Monopoly']","[-0.15, 0.5]","[0.15, 0.5]",1,1,,,,,,,,,0,1,1,1,0,0,0,3,,,,,,,,,,,,,,,,,,,,,,,,,,,,,,,,,,,,,,,,,,,,,,,,,,,,,,,350.9275027189997,None,350.9275027189997,None,350.9275027189997,None,c,0,1.1779528769993703,352.46074094100004,None,352.46074094100004,None,352.46074094100004,None,353.7108882849998,None,353.7108882849998,None,353.7108882849998,None,353.7108882849998,None,,,,,,,,,,,,,,,,,,,,,,,,,,,,,,,,,,,,,,,,,,,,001,30,2020_Jan_30_1032,spring_faces,3.2.3,60.02663946246979,
condition files/Stage1_2.xlsx,,B3,T4,m,"['c', 'm']","['Clue', 'Monopoly']","[-0.15, 0.5]","[0.15, 0.5]",1,1,,,,,,,,,0,1,1,1,0,1,1,6,,,,,,,,,,,,,,,,,,,,,,,,,,,,,,,,,,,,,,,,,,,,,,,,,,,,,,,355.6775792560002,None,355.6775792560002,None,355.6775792560002,None,m,1,1.2119062800002212,357.2107941630002,None,357.2107941630002,None,357.2107941630002,None,358.49421473500024,None,358.49421473500024,None,358.49421473500024,None,358.49421473500024,None,,,,,,,,,,,,,,,,,,,,,,,,,,,,,,,,,,,,,,,,,,,,001,30,2020_Jan_30_1032,spring_faces,3.2.3,60.02663946246979,
condition files/Stage1_2.xlsx,,B4,T3,c,"['c', 'm']","['Clue', 'Monopoly']","[-0.15, 0.5]","[0.15, 0.5]",1,1,,,,,,,,,0,1,1,1,0,2,2,5,,,,,,,,,,,,,,,,,,,,,,,,,,,,,,,,,,,,,,,,,,,,,,,,,,,,,,,360.46090894699955,None,360.46090894699955,None,360.46090894699955,None,m,0,1.724540416000309,361.994158728,None,361.994158728,None,361.994158728,None,363.7942006839994,None,363.7942006839994,None,363.7942006839994,None,363.7942006839994,None,,,,,,,,,,,,,,,,,,,,,,,,,,,,,,,,,,,,,,,,,,,,001,30,2020_Jan_30_1032,spring_faces,3.2.3,60.02663946246979,
condition files/Stage1_2.xlsx,,T1,B2,m,"['c', 'm']","['Clue', 'Monopoly']","[-0.15, 0.5]","[0.15, 0.5]",1,1,,,,,,,,,0,1,1,1,0,3,3,2,,,,,,,,,,,,,,,,,,,,,,,,,,,,,,,,,,,,,,,,,,,,,,,,,,,,,,,365.7609199389999,None,365.7609199389999,None,365.7609199389999,None,m,1,1.608463431999553,367.2942186959999,None,367.2942186959999,None,367.2942186959999,None,368.9775058280002,None,368.9775058280002,None,368.9775058280002,None,368.9775058280002,None,,,,,,,,,,,,,,,,,,,,,,,,,,,,,,,,,,,,,,,,,,,,001,30,2020_Jan_30_1032,spring_faces,3.2.3,60.02663946246979,
condition files/Stage1_2.xlsx,,B1,T1,c,"['c', 'm']","['Clue', 'Monopoly']","[-0.15, 0.5]","[0.15, 0.5]",1,1,,,,,,,,,0,1,1,1,0,4,4,0,,,,,,,,,,,,,,,,,,,,,,,,,,,,,,,,,,,,,,,,,,,,,,,,,,,,,,,370.9442502519996,None,370.9442502519996,None,370.9442502519996,None,m,0,2.2010021939995568,372.4775702850002,None,372.4775702850002,None,372.4775702850002,None,374.76084102499954,None,374.76084102499954,None,374.76084102499954,None,374.76084102499954,None,,,,,,,,,,,,,,,,,,,,,,,,,,,,,,,,,,,,,,,,,,,,001,30,2020_Jan_30_1032,spring_faces,3.2.3,60.02663946246979,
condition files/Stage1_2.xlsx,,T4,B4,m,"['c', 'm']","['Clue', 'Monopoly']","[-0.15, 0.5]","[0.15, 0.5]",1,1,,,,,,,,,0,1,1,1,0,5,5,7,,,,,,,,,,,,,,,,,,,,,,,,,,,,,,,,,,,,,,,,,,,,,,,,,,,,,,,376.72758727400014,None,376.72758727400014,None,376.72758727400014,None,m,1,1.2498226850002538,378.2609071659999,None,378.2609071659999,None,378.2609071659999,None,379.57751457499944,None,379.57751457499944,None,379.57751457499944,None,379.57751457499944,None,,,,,,,,,,,,,,,,,,,,,,,,,,,,,,,,,,,,,,,,,,,,001,30,2020_Jan_30_1032,spring_faces,3.2.3,60.02663946246979,
condition files/Stage1_2.xlsx,,T2,B1,c,"['c', 'm']","['Clue', 'Monopoly']","[-0.15, 0.5]","[0.15, 0.5]",1,1,,,,,,,,,0,1,1,1,0,6,6,1,,,,,,,,,,,,,,,,,,,,,,,,,,,,,,,,,,,,,,,,,,,,,,,,,,,,,,,381.54417463000027,None,381.54417463000027,None,381.54417463000027,None,c,1,1.1210801650004214,383.0775752210002,None,383.0775752210002,None,383.0775752210002,None,384.27755661599986,None,384.27755661599986,None,384.27755661599986,None,384.27755661599986,None,,,,,,,,,,,,,,,,,,,,,,,,,,,,,,,,,,,,,,,,,,,,001,30,2020_Jan_30_1032,spring_faces,3.2.3,60.02663946246979,
condition files/Stage1_2.xlsx,,T3,B3,c,"['c', 'm']","['Clue', 'Monopoly']","[-0.15, 0.5]","[0.15, 0.5]",1,1,,,,,,,,,0,1,1,1,0,7,7,4,,,,,,,,,,,,,,,,,,,,,,,,,,,,,,,,,,,,,,,,,,,,,,,,,,,,,,,386.24425131599946,None,386.24425131599946,None,386.24425131599946,None,m,0,1.1890985159998309,387.77756170500015,None,387.77756170500015,None,387.77756170500015,None,389.0442555999998,None,389.0442555999998,None,389.0442555999998,None,389.0442555999998,None,,,,,,,,,,,,,,,,,,,,,,,,,,,,,,,,,,,,,,,,,,,,001,30,2020_Jan_30_1032,spring_faces,3.2.3,60.02663946246979,
condition files/Stage1_1.xlsx,,T1,B1,c,"['c', 'm']","['Clue', 'Monopoly']","[-0.15, 0.5]","[0.15, 0.5]",1,1,,,,,,,,,0,2,2,2,0,0,0,0,,,,,,,,,,,,,,,,,,,,,,,,,,,,,,,,,,,,,,,,,,,,,,,,,,,,,,,391.0275721830003,None,391.0275721830003,None,391.0275721830003,None,m,0,1.8777922480003326,392.56089850099943,None,392.56089850099943,None,392.56089850099943,None,394.49419806100013,None,394.49419806100013,None,394.49419806100013,None,394.49419806100013,None,,,,,,,,,,,,,,,,,,,,,,,,,,,,,,,,,,,,,,,,,,,,001,30,2020_Jan_30_1032,spring_faces,3.2.3,60.02663946246979,
condition files/Stage1_1.xlsx,,B2,T1,m,"['c', 'm']","['Clue', 'Monopoly']","[-0.15, 0.5]","[0.15, 0.5]",1,1,,,,,,,,,0,2,2,2,0,1,1,2,,,,,,,,,,,,,,,,,,,,,,,,,,,,,,,,,,,,,,,,,,,,,,,,,,,,,,,396.4775754659995,None,396.4775754659995,None,396.4775754659995,None,c,0,1.307828994999909,398.0108555320003,None,398.0108555320003,None,398.0108555320003,None,399.394221257,None,399.394221257,None,399.394221257,None,399.394221257,None,,,,,,,,,,,,,,,,,,,,,,,,,,,,,,,,,,,,,,,,,,,,001,30,2020_Jan_30_1032,spring_faces,3.2.3,60.02663946246979,
condition files/Stage1_1.xlsx,,T3,B4,c,"['c', 'm']","['Clue', 'Monopoly']","[-0.15, 0.5]","[0.15, 0.5]",1,1,,,,,,,,,0,2,2,2,0,2,2,5,,,,,,,,,,,,,,,,,,,,,,,,,,,,,,,,,,,,,,,,,,,,,,,,,,,,,,,401.3609230279999,None,401.3609230279999,None,401.3609230279999,None,m,0,1.8003857459998471,402.89420920999964,None,402.89420920999964,None,402.89420920999964,None,404.77750203399955,None,404.77750203399955,None,404.77750203399955,None,404.77750203399955,None,,,,,,,,,,,,,,,,,,,,,,,,,,,,,,,,,,,,,,,,,,,,001,30,2020_Jan_30_1032,spring_faces,3.2.3,60.02663946246979,
condition files/Stage1_1.xlsx,,T2,B2,m,"['c', 'm']","['Clue', 'Monopoly']","[-0.15, 0.5]","[0.15, 0.5]",1,1,,,,,,,,,0,2,2,2,0,3,3,3,,,,,,,,,,,,,,,,,,,,,,,,,,,,,,,,,,,,,,,,,,,,,,,,,,,,,,,406.74424403099965,None,406.74424403099965,None,406.74424403099965,None,m,1,1.105105232999449,408.2775453530003,None,408.2775453530003,None,408.2775453530003,None,409.46087898899987,None,409.46087898899987,None,409.46087898899987,None,409.46087898899987,None,,,,,,,,,,,,,,,,,,,,,,,,,,,,,,,,,,,,,,,,,,,,001,30,2020_Jan_30_1032,spring_faces,3.2.3,60.02663946246979,
condition files/Stage1_1.xlsx,,T4,B3,m,"['c', 'm']","['Clue', 'Monopoly']","[-0.15, 0.5]","[0.15, 0.5]",1,1,,,,,,,,,0,2,2,2,0,4,4,6,,,,,,,,,,,,,,,,,,,,,,,,,,,,,,,,,,,,,,,,,,,,,,,,,,,,,,,411.427554031,None,411.427554031,None,411.427554031,None,m,1,1.4138800360005916,412.9608564479995,None,412.9608564479995,None,412.9608564479995,None,414.4442279619998,None,414.4442279619998,None,414.4442279619998,None,414.4442279619998,None,,,,,,,,,,,,,,,,,,,,,,,,,,,,,,,,,,,,,,,,,,,,001,30,2020_Jan_30_1032,spring_faces,3.2.3,60.02663946246979,
condition files/Stage1_1.xlsx,,B3,T3,c,"['c', 'm']","['Clue', 'Monopoly']","[-0.15, 0.5]","[0.15, 0.5]",1,1,,,,,,,,,0,2,2,2,0,5,5,4,,,,,,,,,,,,,,,,,,,,,,,,,,,,,,,,,,,,,,,,,,,,,,,,,,,,,,,416.41090536699994,None,416.41090536699994,None,416.41090536699994,None,c,1,1.4225175950004996,417.94415424,None,417.94415424,None,417.94415424,None,419.4442360080002,None,419.4442360080002,None,419.4442360080002,None,419.4442360080002,None,,,,,,,,,,,,,,,,,,,,,,,,,,,,,,,,,,,,,,,,,,,,001,30,2020_Jan_30_1032,spring_faces,3.2.3,60.02663946246979,
condition files/Stage1_1.xlsx,,B4,T4,m,"['c', 'm']","['Clue', 'Monopoly']","[-0.15, 0.5]","[0.15, 0.5]",1,1,,,,,,,,,0,2,2,2,0,6,6,7,,,,,,,,,,,,,,,,,,,,,,,,,,,,,,,,,,,,,,,,,,,,,,,,,,,,,,,421.41093761699995,None,421.41093761699995,None,421.41093761699995,None,m,1,1.206335498000044,422.9442300189994,None,422.9442300189994,None,422.9442300189994,None,424.22757905900016,None,424.22757905900016,None,424.22757905900016,None,424.22757905900016,None,,,,,,,,,,,,,,,,,,,,,,,,,,,,,,,,,,,,,,,,,,,,001,30,2020_Jan_30_1032,spring_faces,3.2.3,60.02663946246979,
condition files/Stage1_1.xlsx,,B1,T2,c,"['c', 'm']","['Clue', 'Monopoly']","[-0.15, 0.5]","[0.15, 0.5]",1,1,,,,,,,,,0,2,2,2,0,7,7,1,,,,,,,,,,,,,,,,,,,,,,,,,,,,,,,,,,,,,,,,,,,,,,,,,,,,,,,426.19423682900015,None,426.19423682900015,None,426.19423682900015,None,c,1,0.9190714509995814,427.7275663780001,None,427.7275663780001,None,427.7275663780001,None,428.7275509250003,None,428.7275509250003,None,428.7275509250003,None,428.7275509250003,None,,,,,,,,,,,,,,,,,,,,,,,,,,,,,,,,,,,,,,,,,,,,001,30,2020_Jan_30_1032,spring_faces,3.2.3,60.02663946246979,
condition files/Stage1_2.xlsx,,T3,B3,c,"['c', 'm']","['Clue', 'Monopoly']","[-0.15, 0.5]","[0.15, 0.5]",1,1,,,,,,,,,0,3,3,3,0,0,0,4,,,,,,,,,,,,,,,,,,,,,,,,,,,,,,,,,,,,,,,,,,,,,,,,,,,,,,,430.7108582379997,None,430.7108582379997,None,430.7108582379997,None,m,0,1.4264914960003807,432.244209339,None,432.244209339,None,432.244209339,None,433.72756537700025,None,433.72756537700025,None,433.72756537700025,None,433.72756537700025,None,,,,,,,,,,,,,,,,,,,,,,,,,,,,,,,,,,,,,,,,,,,,001,30,2020_Jan_30_1032,spring_faces,3.2.3,60.02663946246979,
condition files/Stage1_2.xlsx,,T2,B1,c,"['c', 'm']","['Clue', 'Monopoly']","[-0.15, 0.5]","[0.15, 0.5]",1,1,,,,,,,,,0,3,3,3,0,1,1,1,,,,,,,,,,,,,,,,,,,,,,,,,,,,,,,,,,,,,,,,,,,,,,,,,,,,,,,435.71092821099955,None,435.71092821099955,None,435.71092821099955,None,c,1,1.274463590000778,437.24422318899997,None,437.24422318899997,None,437.24422318899997,None,438.5775480760003,None,438.5775480760003,None,438.5775480760003,None,438.5775480760003,None,,,,,,,,,,,,,,,,,,,,,,,,,,,,,,,,,,,,,,,,,,,,001,30,2020_Jan_30_1032,spring_faces,3.2.3,60.02663946246979,
condition files/Stage1_2.xlsx,,T1,B2,m,"['c', 'm']","['Clue', 'Monopoly']","[-0.15, 0.5]","[0.15, 0.5]",1,1,,,,,,,,,0,3,3,3,0,2,2,2,,,,,,,,,,,,,,,,,,,,,,,,,,,,,,,,,,,,,,,,,,,,,,,,,,,,,,,440.5609279119999,None,440.5609279119999,None,440.5609279119999,None,c,0,0.9364088330003142,442.09424098699947,None,442.09424098699947,None,442.09424098699947,None,443.1109284559998,None,443.1109284559998,None,443.1109284559998,None,443.1109284559998,None,,,,,,,,,,,,,,,,,,,,,,,,,,,,,,,,,,,,,,,,,,,,001,30,2020_Jan_30_1032,spring_faces,3.2.3,60.02663946246979,
condition files/Stage1_2.xlsx,,B3,T4,m,"['c', 'm']","['Clue', 'Monopoly']","[-0.15, 0.5]","[0.15, 0.5]",1,1,,,,,,,,,0,3,3,3,0,3,3,6,,,,,,,,,,,,,,,,,,,,,,,,,,,,,,,,,,,,,,,,,,,,,,,,,,,,,,,445.0775704759999,None,445.0775704759999,None,445.0775704759999,None,m,1,1.3798312050003005,446.6108864709995,None,446.6108864709995,None,446.6108864709995,None,448.06090239399964,None,448.06090239399964,None,448.06090239399964,None,448.06090239399964,None,,,,,,,,,,,,,,,,,,,,,,,,,,,,,,,,,,,,,,,,,,,,001,30,2020_Jan_30_1032,spring_faces,3.2.3,60.02663946246979,
condition files/Stage1_2.xlsx,,B2,T2,m,"['c', 'm']","['Clue', 'Monopoly']","[-0.15, 0.5]","[0.15, 0.5]",1,1,,,,,,,,,0,3,3,3,0,4,4,3,,,,,,,,,,,,,,,,,,,,,,,,,,,,,,,,,,,,,,,,,,,,,,,,,,,,,,,450.027563955,None,450.027563955,None,450.027563955,None,m,1,1.661869258000479,451.56081711000024,None,451.56081711000024,None,451.56081711000024,None,453.294260142,None,453.294260142,None,453.294260142,None,453.294260142,None,,,,,,,,,,,,,,,,,,,,,,,,,,,,,,,,,,,,,,,,,,,,001,30,2020_Jan_30_1032,spring_faces,3.2.3,60.02663946246979,
condition files/Stage1_2.xlsx,,B4,T3,c,"['c', 'm']","['Clue', 'Monopoly']","[-0.15, 0.5]","[0.15, 0.5]",1,1,,,,,,,,,0,3,3,3,0,5,5,5,,,,,,,,,,,,,,,,,,,,,,,,,,,,,,,,,,,,,,,,,,,,,,,,,,,,,,,455.26094181200006,None,455.26094181200006,None,455.26094181200006,None,c,1,1.3724846629993408,456.7941833369996,None,456.7941833369996,None,456.7941833369996,None,458.24424118299976,None,458.24424118299976,None,458.24424118299976,None,458.24424118299976,None,,,,,,,,,,,,,,,,,,,,,,,,,,,,,,,,,,,,,,,,,,,,001,30,2020_Jan_30_1032,spring_faces,3.2.3,60.02663946246979,
condition files/Stage1_2.xlsx,,T4,B4,m,"['c', 'm']","['Clue', 'Monopoly']","[-0.15, 0.5]","[0.15, 0.5]",1,1,,,,,,,,,0,3,3,3,0,6,6,7,,,,,,,,,,,,,,,,,,,,,,,,,,,,,,,,,,,,,,,,,,,,,,,,,,,,,,,460.2109347300002,None,460.2109347300002,None,460.2109347300002,None,c,0,1.2864102570001705,461.744239957,None,461.744239957,None,461.744239957,None,463.1109053399996,None,463.1109053399996,None,463.1109053399996,None,463.1109053399996,None,,,,,,,,,,,,,,,,,,,,,,,,,,,,,,,,,,,,,,,,,,,,001,30,2020_Jan_30_1032,spring_faces,3.2.3,60.02663946246979,
condition files/Stage1_2.xlsx,,B1,T1,c,"['c', 'm']","['Clue', 'Monopoly']","[-0.15, 0.5]","[0.15, 0.5]",1,1,,,,,,,,,0,3,3,3,0,7,7,0,,,,,,,,,,,,,,,,,,,,,,,,,,,,,,,,,,,,,,,,,,,,,,,,,,,,,,,465.0775787149996,None,465.0775787149996,None,465.0775787149996,None,c,1,3.5397217780000574,466.6108795989994,None,466.6108795989994,None,466.6108795989994,None,470.2275536930001,None,470.2275536930001,None,470.2275536930001,None,470.2275536930001,None,,,,,,,,,,,,,,,,,,,,,,,,,,,,,,,,,,,,,,,,,,,,001,30,2020_Jan_30_1032,spring_faces,3.2.3,60.02663946246979,
condition files/Stage1_1.xlsx,,T4,B3,m,"['c', 'm']","['Clue', 'Monopoly']","[-0.15, 0.5]","[0.15, 0.5]",1,1,,,,,,,,,0,4,4,4,0,0,0,6,,,,,,,,,,,,,,,,,,,,,,,,,,,,,,,,,,,,,,,,,,,,,,,,,,,,,,,472.21088356699966,None,472.21088356699966,None,472.21088356699966,None,m,1,0.8384265639997466,473.74422777899963,None,473.74422777899963,None,473.74422777899963,None,474.6608857709998,None,474.6608857709998,None,474.6608857709998,None,474.6608857709998,None,,,,,,,,,,,,,,,,,,,,,,,,,,,,,,,,,,,,,,,,,,,,001,30,2020_Jan_30_1032,spring_faces,3.2.3,60.02663946246979,
condition files/Stage1_1.xlsx,,B2,T1,m,"['c', 'm']","['Clue', 'Monopoly']","[-0.15, 0.5]","[0.15, 0.5]",1,1,,,,,,,,,0,4,4,4,0,1,1,2,,,,,,,,,,,,,,,,,,,,,,,,,,,,,,,,,,,,,,,,,,,,,,,,,,,,,,,476.62754884199967,None,476.62754884199967,None,476.62754884199967,None,c,0,0.9177045149999685,478.16088297900023,None,478.16088297900023,None,478.16088297900023,None,479.1441873599997,None,479.1441873599997,None,479.1441873599997,None,479.1441873599997,None,,,,,,,,,,,,,,,,,,,,,,,,,,,,,,,,,,,,,,,,,,,,001,30,2020_Jan_30_1032,spring_faces,3.2.3,60.02663946246979,
condition files/Stage1_1.xlsx,,T3,B4,c,"['c', 'm']","['Clue', 'Monopoly']","[-0.15, 0.5]","[0.15, 0.5]",1,1,,,,,,,,,0,4,4,4,0,2,2,5,,,,,,,,,,,,,,,,,,,,,,,,,,,,,,,,,,,,,,,,,,,,,,,,,,,,,,,481.1275683399999,None,481.1275683399999,None,481.1275683399999,None,c,1,1.0737953190000553,482.6608820299998,None,482.6608820299998,None,482.6608820299998,None,483.81088706099945,None,483.81088706099945,None,483.81088706099945,None,483.81088706099945,None,,,,,,,,,,,,,,,,,,,,,,,,,,,,,,,,,,,,,,,,,,,,001,30,2020_Jan_30_1032,spring_faces,3.2.3,60.02663946246979,
condition files/Stage1_1.xlsx,,B3,T3,c,"['c', 'm']","['Clue', 'Monopoly']","[-0.15, 0.5]","[0.15, 0.5]",1,1,,,,,,,,,0,4,4,4,0,3,3,4,,,,,,,,,,,,,,,,,,,,,,,,,,,,,,,,,,,,,,,,,,,,,,,,,,,,,,,485.7775748519998,None,485.7775748519998,None,485.7775748519998,None,m,0,1.2877718699992329,487.31088435899983,None,487.31088435899983,None,487.31088435899983,None,488.6609090760003,None,488.6609090760003,None,488.6609090760003,None,488.6609090760003,None,,,,,,,,,,,,,,,,,,,,,,,,,,,,,,,,,,,,,,,,,,,,001,30,2020_Jan_30_1032,spring_faces,3.2.3,60.02663946246979,
condition files/Stage1_1.xlsx,,B4,T4,m,"['c', 'm']","['Clue', 'Monopoly']","[-0.15, 0.5]","[0.15, 0.5]",1,1,,,,,,,,,0,4,4,4,0,4,4,7,,,,,,,,,,,,,,,,,,,,,,,,,,,,,,,,,,,,,,,,,,,,,,,,,,,,,,,490.64423968400024,None,490.64423968400024,None,490.64423968400024,None,c,0,0.9652131620005093,492.17754823199994,None,492.17754823199994,None,492.17754823199994,None,493.21089797199966,None,493.21089797199966,None,493.21089797199966,None,493.21089797199966,None,,,,,,,,,,,,,,,,,,,,,,,,,,,,,,,,,,,,,,,,,,,,001,30,2020_Jan_30_1032,spring_faces,3.2.3,60.02663946246979,
condition files/Stage1_1.xlsx,,T2,B2,m,"['c', 'm']","['Clue', 'Monopoly']","[-0.15, 0.5]","[0.15, 0.5]",1,1,,,,,,,,,0,4,4,4,0,5,5,3,,,,,,,,,,,,,,,,,,,,,,,,,,,,,,,,,,,,,,,,,,,,,,,,,,,,,,,495.17751094599953,None,495.17751094599953,None,495.17751094599953,None,c,0,1.6957073800003855,496.71089329200004,None,496.71089329200004,None,496.71089329200004,None,498.46088301500004,None,498.46088301500004,None,498.46088301500004,None,498.46088301500004,None,,,,,,,,,,,,,,,,,,,,,,,,,,,,,,,,,,,,,,,,,,,,001,30,2020_Jan_30_1032,spring_faces,3.2.3,60.02663946246979,
condition files/Stage1_1.xlsx,,B1,T2,c,"['c', 'm']","['Clue', 'Monopoly']","[-0.15, 0.5]","[0.15, 0.5]",1,1,,,,,,,,,0,4,4,4,0,6,6,1,,,,,,,,,,,,,,,,,,,,,,,,,,,,,,,,,,,,,,,,,,,,,,,,,,,,,,,500.44428484699984,None,500.44428484699984,None,500.44428484699984,None,m,0,2.9730704769999647,501.97752175499954,None,501.97752175499954,None,501.97752175499954,None,505.02757999000005,None,505.02757999000005,None,505.02757999000005,None,505.02757999000005,None,,,,,,,,,,,,,,,,,,,,,,,,,,,,,,,,,,,,,,,,,,,,001,30,2020_Jan_30_1032,spring_faces,3.2.3,60.02663946246979,
condition files/Stage1_1.xlsx,,T1,B1,c,"['c', 'm']","['Clue', 'Monopoly']","[-0.15, 0.5]","[0.15, 0.5]",1,1,,,,,,,,,0,4,4,4,0,7,7,0,,,,,,,,,,,,,,,,,,,,,,,,,,,,,,,,,,,,,,,,,,,,,,,,,,,,,,,506.9942340079997,None,506.9942340079997,None,506.9942340079997,None,c,1,1.3992959790002715,508.52756775299986,None,508.52756775299986,None,508.52756775299986,None,509.97748110999964,None,509.97748110999964,None,509.97748110999964,None,509.97748110999964,None,,,,,,,,,,,,,,,,,,,,,,,,,,,,,,,,,,,,,,,,,,,,001,30,2020_Jan_30_1032,spring_faces,3.2.3,60.02663946246979,
condition files/Stage1_2.xlsx,,T4,B4,m,"['c', 'm']","['Clue', 'Monopoly']","[-0.15, 0.5]","[0.15, 0.5]",1,1,,,,,,,,,0,5,5,5,0,0,0,7,,,,,,,,,,,,,,,,,,,,,,,,,,,,,,,,,,,,,,,,,,,,,,,,,,,,,,,511.9775079860001,None,511.9775079860001,None,511.9775079860001,None,c,0,1.75977679099924,513.5109197249994,None,513.5109197249994,None,513.5109197249994,None,515.3442226970001,None,515.3442226970001,None,515.3442226970001,None,515.3442226970001,None,,,,,,,,,,,,,,,,,,,,,,,,,,,,,,,,,,,,,,,,,,,,001,30,2020_Jan_30_1032,spring_faces,3.2.3,60.02663946246979,
condition files/Stage1_2.xlsx,,B2,T2,m,"['c', 'm']","['Clue', 'Monopoly']","[-0.15, 0.5]","[0.15, 0.5]",1,1,,,,,,,,,0,5,5,5,0,1,1,3,,,,,,,,,,,,,,,,,,,,,,,,,,,,,,,,,,,,,,,,,,,,,,,,,,,,,,,517.3109114669996,None,517.3109114669996,None,517.3109114669996,None,m,1,1.2266124249999848,518.8440910259997,None,518.8440910259997,None,518.8440910259997,None,520.1442596219995,None,520.1442596219995,None,520.1442596219995,None,520.1442596219995,None,,,,,,,,,,,,,,,,,,,,,,,,,,,,,,,,,,,,,,,,,,,,001,30,2020_Jan_30_1032,spring_faces,3.2.3,60.02663946246979,
condition files/Stage1_2.xlsx,,T2,B1,c,"['c', 'm']","['Clue', 'Monopoly']","[-0.15, 0.5]","[0.15, 0.5]",1,1,,,,,,,,,0,5,5,5,0,2,2,1,,,,,,,,,,,,,,,,,,,,,,,,,,,,,,,,,,,,,,,,,,,,,,,,,,,,,,,522.1108170309999,None,522.1108170309999,None,522.1108170309999,None,m,0,0.7786403939999218,523.6440517089995,None,523.6440517089995,None,523.6440517089995,None,524.4942998469996,None,524.4942998469996,None,524.4942998469996,None,524.4942998469996,None,,,,,,,,,,,,,,,,,,,,,,,,,,,,,,,,,,,,,,,,,,,,001,30,2020_Jan_30_1032,spring_faces,3.2.3,60.02663946246979,
condition files/Stage1_2.xlsx,,B4,T3,c,"['c', 'm']","['Clue', 'Monopoly']","[-0.15, 0.5]","[0.15, 0.5]",1,1,,,,,,,,,0,5,5,5,0,3,3,5,,,,,,,,,,,,,,,,,,,,,,,,,,,,,,,,,,,,,,,,,,,,,,,,,,,,,,,526.4609238129997,None,526.4609238129997,None,526.4609238129997,None,c,1,1.0204916980001144,527.994183191,None,527.994183191,None,527.994183191,None,529.0942059919998,None,529.0942059919998,None,529.0942059919998,None,529.0942059919998,None,,,,,,,,,,,,,,,,,,,,,,,,,,,,,,,,,,,,,,,,,,,,001,30,2020_Jan_30_1032,spring_faces,3.2.3,60.02663946246979,
condition files/Stage1_2.xlsx,,B3,T4,m,"['c', 'm']","['Clue', 'Monopoly']","[-0.15, 0.5]","[0.15, 0.5]",1,1,,,,,,,,,0,5,5,5,0,4,4,6,,,,,,,,,,,,,,,,,,,,,,,,,,,,,,,,,,,,,,,,,,,,,,,,,,,,,,,531.0609030509995,None,531.0609030509995,None,531.0609030509995,None,m,1,1.17239719600002,532.5942465689996,None,532.5942465689996,None,532.5942465689996,None,533.8441591430001,None,533.8441591430001,None,533.8441591430001,None,533.8441591430001,None,,,,,,,,,,,,,,,,,,,,,,,,,,,,,,,,,,,,,,,,,,,,001,30,2020_Jan_30_1032,spring_faces,3.2.3,60.02663946246979,
condition files/Stage1_2.xlsx,,T3,B3,c,"['c', 'm']","['Clue', 'Monopoly']","[-0.15, 0.5]","[0.15, 0.5]",1,1,,,,,,,,,0,5,5,5,0,5,5,4,,,,,,,,,,,,,,,,,,,,,,,,,,,,,,,,,,,,,,,,,,,,,,,,,,,,,,,535.810894878,None,535.810894878,None,535.810894878,None,m,0,1.3985372369998004,537.3442181159999,None,537.3442181159999,None,537.3442181159999,None,538.8109039049996,None,538.8109039049996,None,538.8109039049996,None,538.8109039049996,None,,,,,,,,,,,,,,,,,,,,,,,,,,,,,,,,,,,,,,,,,,,,001,30,2020_Jan_30_1032,spring_faces,3.2.3,60.02663946246979,
condition files/Stage1_2.xlsx,,T1,B2,m,"['c', 'm']","['Clue', 'Monopoly']","[-0.15, 0.5]","[0.15, 0.5]",1,1,,,,,,,,,0,5,5,5,0,6,6,2,,,,,,,,,,,,,,,,,,,,,,,,,,,,,,,,,,,,,,,,,,,,,,,,,,,,,,,540.7775802739998,None,540.7775802739998,None,540.7775802739998,None,c,0,1.1196848810004667,542.3109714820002,None,542.3109714820002,None,542.3109714820002,None,543.5109109819996,None,543.5109109819996,None,543.5109109819996,None,543.5109109819996,None,,,,,,,,,,,,,,,,,,,,,,,,,,,,,,,,,,,,,,,,,,,,001,30,2020_Jan_30_1032,spring_faces,3.2.3,60.02663946246979,
condition files/Stage1_2.xlsx,,B1,T1,c,"['c', 'm']","['Clue', 'Monopoly']","[-0.15, 0.5]","[0.15, 0.5]",1,1,,,,,,,,,0,5,5,5,0,7,7,0,,,,,,,,,,,,,,,,,,,,,,,,,,,,,,,,,,,,,,,,,,,,,,,,,,,,,,,545.4775439579998,None,545.4775439579998,None,545.4775439579998,None,m,0,0.9318727170002603,547.0108810909996,None,547.0108810909996,None,547.0108810909996,None,548.0109119480003,None,548.0109119480003,None,548.0109119480003,None,548.0109119480003,None,,,,,,,,,,,,,,,,,,,,,,,,,,,,,,,,,,,,,,,,,,,,001,30,2020_Jan_30_1032,spring_faces,3.2.3,60.02663946246979,
condition files/Stage1_1.xlsx,,T3,B4,c,"['c', 'm']","['Clue', 'Monopoly']","[-0.15, 0.5]","[0.15, 0.5]",1,1,,,,,,,,,0,6,6,6,0,0,0,5,,,,,,,,,,,,,,,,,,,,,,,,,,,,,,,,,,,,,,,,,,,,,,,,,,,,,,,549.994182765,None,549.994182765,None,549.994182765,None,c,1,1.135191842000495,551.5274221519994,None,551.5274221519994,None,551.5274221519994,None,552.7442538220002,None,552.7442538220002,None,552.7442538220002,None,552.7442538220002,None,,,,,,,,,,,,,,,,,,,,,,,,,,,,,,,,,,,,,,,,,,,,001,30,2020_Jan_30_1032,spring_faces,3.2.3,60.02663946246979,
condition files/Stage1_1.xlsx,,T2,B2,m,"['c', 'm']","['Clue', 'Monopoly']","[-0.15, 0.5]","[0.15, 0.5]",1,1,,,,,,,,,0,6,6,6,0,1,1,3,,,,,,,,,,,,,,,,,,,,,,,,,,,,,,,,,,,,,,,,,,,,,,,,,,,,,,,554.710876438,None,554.710876438,None,554.710876438,None,m,1,1.1063053790003323,556.2442897539995,None,556.2442897539995,None,556.2442897539995,None,557.4275802060001,None,557.4275802060001,None,557.4275802060001,None,557.4275802060001,None,,,,,,,,,,,,,,,,,,,,,,,,,,,,,,,,,,,,,,,,,,,,001,30,2020_Jan_30_1032,spring_faces,3.2.3,60.02663946246979,
condition files/Stage1_1.xlsx,,B2,T1,m,"['c', 'm']","['Clue', 'Monopoly']","[-0.15, 0.5]","[0.15, 0.5]",1,1,,,,,,,,,0,6,6,6,0,2,2,2,,,,,,,,,,,,,,,,,,,,,,,,,,,,,,,,,,,,,,,,,,,,,,,,,,,,,,,559.394247063,None,559.394247063,None,559.394247063,None,c,0,0.9991465460007021,560.9276137460001,None,560.9276137460001,None,560.9276137460001,None,561.9775553640002,None,561.9775553640002,None,561.9775553640002,None,561.9775553640002,None,,,,,,,,,,,,,,,,,,,,,,,,,,,,,,,,,,,,,,,,,,,,001,30,2020_Jan_30_1032,spring_faces,3.2.3,60.02663946246979,
condition files/Stage1_1.xlsx,,B4,T4,m,"['c', 'm']","['Clue', 'Monopoly']","[-0.15, 0.5]","[0.15, 0.5]",1,1,,,,,,,,,0,6,6,6,0,3,3,7,,,,,,,,,,,,,,,,,,,,,,,,,,,,,,,,,,,,,,,,,,,,,,,,,,,,,,,563.9608411549998,None,563.9608411549998,None,563.9608411549998,None,c,0,1.0084446020000541,565.4942459969998,None,565.4942459969998,None,565.4942459969998,None,566.5607775859999,None,566.5607775859999,None,566.5607775859999,None,566.5607775859999,None,,,,,,,,,,,,,,,,,,,,,,,,,,,,,,,,,,,,,,,,,,,,001,30,2020_Jan_30_1032,spring_faces,3.2.3,60.02663946246979,
condition files/Stage1_1.xlsx,,B3,T3,c,"['c', 'm']","['Clue', 'Monopoly']","[-0.15, 0.5]","[0.15, 0.5]",1,1,,,,,,,,,0,6,6,6,0,4,4,4,,,,,,,,,,,,,,,,,,,,,,,,,,,,,,,,,,,,,,,,,,,,,,,,,,,,,,,568.5442739729997,None,568.5442739729997,None,568.5442739729997,None,m,0,2.5052548599996953,570.0774032509999,None,570.0774032509999,None,570.0774032509999,None,572.6608834669996,None,572.6608834669996,None,572.6608834669996,None,572.6608834669996,None,,,,,,,,,,,,,,,,,,,,,,,,,,,,,,,,,,,,,,,,,,,,001,30,2020_Jan_30_1032,spring_faces,3.2.3,60.02663946246979,
condition files/Stage1_1.xlsx,,T4,B3,m,"['c', 'm']","['Clue', 'Monopoly']","[-0.15, 0.5]","[0.15, 0.5]",1,1,,,,,,,,,0,6,6,6,0,5,5,6,,,,,,,,,,,,,,,,,,,,,,,,,,,,,,,,,,,,,,,,,,,,,,,,,,,,,,,574.6276147799999,None,574.6276147799999,None,574.6276147799999,None,c,0,0.917820908000067,576.1607909229997,None,576.1607909229997,None,576.1607909229997,None,577.1608598550001,None,577.1608598550001,None,577.1608598550001,None,577.1608598550001,None,,,,,,,,,,,,,,,,,,,,,,,,,,,,,,,,,,,,,,,,,,,,001,30,2020_Jan_30_1032,spring_faces,3.2.3,60.02663946246979,
condition files/Stage1_1.xlsx,,T1,B1,c,"['c', 'm']","['Clue', 'Monopoly']","[-0.15, 0.5]","[0.15, 0.5]",1,1,,,,,,,,,0,6,6,6,0,6,6,0,,,,,,,,,,,,,,,,,,,,,,,,,,,,,,,,,,,,,,,,,,,,,,,,,,,,,,,579.1274852050001,None,579.1274852050001,None,579.1274852050001,None,m,0,0.6097612319999826,580.6609309690002,None,580.6609309690002,None,580.6609309690002,None,581.3442369080003,None,581.3442369080003,None,581.3442369080003,None,581.3442369080003,None,,,,,,,,,,,,,,,,,,,,,,,,,,,,,,,,,,,,,,,,,,,,001,30,2020_Jan_30_1032,spring_faces,3.2.3,60.02663946246979,
condition files/Stage1_1.xlsx,,B1,T2,c,"['c', 'm']","['Clue', 'Monopoly']","[-0.15, 0.5]","[0.15, 0.5]",1,1,,,,,,,,,0,6,6,6,0,7,7,1,,,,,,,,,,,,,,,,,,,,,,,,,,,,,,,,,,,,,,,,,,,,,,,,,,,,,,,583.3109239109999,None,583.3109239109999,None,583.3109239109999,None,m,0,0.9544211200000063,584.8442322179999,None,584.8442322179999,None,584.8442322179999,None,585.8775521529997,None,585.8775521529997,None,585.8775521529997,None,585.8775521529997,None,,,,,,,,,,,,,,,,,,,,,,,,,,,,,,,,,,,,,,,,,,,,001,30,2020_Jan_30_1032,spring_faces,3.2.3,60.02663946246979,
condition files/Stage1_2.xlsx,,B2,T2,m,"['c', 'm']","['Clue', 'Monopoly']","[-0.15, 0.5]","[0.15, 0.5]",1,1,,,,,,,,,0,7,7,7,0,0,0,3,,,,,,,,,,,,,,,,,,,,,,,,,,,,,,,,,,,,,,,,,,,,,,,,,,,,,,,587.8608924230002,None,587.8608924230002,None,587.8608924230002,None,c,0,1.3965188709998984,589.3942108470001,None,589.3942108470001,None,589.3942108470001,None,590.8609272149997,None,590.8609272149997,None,590.8609272149997,None,590.8609272149997,None,,,,,,,,,,,,,,,,,,,,,,,,,,,,,,,,,,,,,,,,,,,,001,30,2020_Jan_30_1032,spring_faces,3.2.3,60.02663946246979,
condition files/Stage1_2.xlsx,,B3,T4,m,"['c', 'm']","['Clue', 'Monopoly']","[-0.15, 0.5]","[0.15, 0.5]",1,1,,,,,,,,,0,7,7,7,0,1,1,6,,,,,,,,,,,,,,,,,,,,,,,,,,,,,,,,,,,,,,,,,,,,,,,,,,,,,,,592.827579449,None,592.827579449,None,592.827579449,None,c,0,0.8298921520008662,594.3608551110001,None,594.3608551110001,None,594.3608551110001,None,595.2442179540003,None,595.2442179540003,None,595.2442179540003,None,595.2442179540003,None,,,,,,,,,,,,,,,,,,,,,,,,,,,,,,,,,,,,,,,,,,,,001,30,2020_Jan_30_1032,spring_faces,3.2.3,60.02663946246979,
condition files/Stage1_2.xlsx,,T2,B1,c,"['c', 'm']","['Clue', 'Monopoly']","[-0.15, 0.5]","[0.15, 0.5]",1,1,,,,,,,,,0,7,7,7,0,2,2,1,,,,,,,,,,,,,,,,,,,,,,,,,,,,,,,,,,,,,,,,,,,,,,,,,,,,,,,597.2275688689997,None,597.2275688689997,None,597.2275688689997,None,m,0,1.0058218859994668,598.7608536580001,None,598.7608536580001,None,598.7608536580001,None,599.8442467059995,None,599.8442467059995,None,599.8442467059995,None,599.8442467059995,None,,,,,,,,,,,,,,,,,,,,,,,,,,,,,,,,,,,,,,,,,,,,001,30,2020_Jan_30_1032,spring_faces,3.2.3,60.02663946246979,
condition files/Stage1_2.xlsx,,T4,B4,m,"['c', 'm']","['Clue', 'Monopoly']","[-0.15, 0.5]","[0.15, 0.5]",1,1,,,,,,,,,0,7,7,7,0,3,3,7,,,,,,,,,,,,,,,,,,,,,,,,,,,,,,,,,,,,,,,,,,,,,,,,,,,,,,,601.810939508,None,601.810939508,None,601.810939508,None,c,0,0.7264542390003044,603.3442370739995,None,603.3442370739995,None,603.3442370739995,None,604.1442232549998,None,604.1442232549998,None,604.1442232549998,None,604.1442232549998,None,,,,,,,,,,,,,,,,,,,,,,,,,,,,,,,,,,,,,,,,,,,,001,30,2020_Jan_30_1032,spring_faces,3.2.3,60.02663946246979,
condition files/Stage1_2.xlsx,,B1,T1,c,"['c', 'm']","['Clue', 'Monopoly']","[-0.15, 0.5]","[0.15, 0.5]",1,1,,,,,,,,,0,7,7,7,0,4,4,0,,,,,,,,,,,,,,,,,,,,,,,,,,,,,,,,,,,,,,,,,,,,,,,,,,,,,,,606.1109231399996,None,606.1109231399996,None,606.1109231399996,None,m,0,0.49045625100006873,607.6442231350002,None,607.6442231350002,None,607.6442231350002,None,608.2109346239995,None,608.2109346239995,None,608.2109346239995,None,608.2109346239995,None,,,,,,,,,,,,,,,,,,,,,,,,,,,,,,,,,,,,,,,,,,,,001,30,2020_Jan_30_1032,spring_faces,3.2.3,60.02663946246979,
condition files/Stage1_2.xlsx,,T3,B3,c,"['c', 'm']","['Clue', 'Monopoly']","[-0.15, 0.5]","[0.15, 0.5]",1,1,,,,,,,,,0,7,7,7,0,5,5,4,,,,,,,,,,,,,,,,,,,,,,,,,,,,,,,,,,,,,,,,,,,,,,,,,,,,,,,610.1776018379996,None,610.1776018379996,None,610.1776018379996,None,m,0,0.34377958999994007,611.7109106799999,None,611.7109106799999,None,611.7109106799999,None,612.1107052239995,None,612.1107052239995,None,612.1107052239995,None,612.1107052239995,None,,,,,,,,,,,,,,,,,,,,,,,,,,,,,,,,,,,,,,,,,,,,001,30,2020_Jan_30_1032,spring_faces,3.2.3,60.02663946246979,
condition files/Stage1_2.xlsx,,B4,T3,c,"['c', 'm']","['Clue', 'Monopoly']","[-0.15, 0.5]","[0.15, 0.5]",1,1,,,,,,,,,0,7,7,7,0,6,6,5,,,,,,,,,,,,,,,,,,,,,,,,,,,,,,,,,,,,,,,,,,,,,,,,,,,,,,,614.0942473989999,None,614.0942473989999,None,614.0942473989999,None,c,1,0.4751546829993458,615.6275392850002,None,615.6275392850002,None,615.6275392850002,None,616.1608398580001,None,616.1608398580001,None,616.1608398580001,None,616.1608398580001,None,,,,,,,,,,,,,,,,,,,,,,,,,,,,,,,,,,,,,,,,,,,,001,30,2020_Jan_30_1032,spring_faces,3.2.3,60.02663946246979,
condition files/Stage1_2.xlsx,,T1,B2,m,"['c', 'm']","['Clue', 'Monopoly']","[-0.15, 0.5]","[0.15, 0.5]",1,1,,,,,,,,,0,7,7,7,0,7,7,2,,,,,,,,,,,,,,,,,,,,,,,,,,,,,,,,,,,,,,,,,,,,,,,,,,,,,,,618.144153057,None,618.144153057,None,618.144153057,None,m,1,1.1612432279998757,619.677447991,None,619.677447991,None,619.677447991,None,620.9107894580002,None,620.9107894580002,None,620.9107894580002,None,620.9107894580002,None,,,,,,,,,,,,,,,,,,,,,,,,,,,,,,,,,,,,,,,,,,,,001,30,2020_Jan_30_1032,spring_faces,3.2.3,60.02663946246979,
condition files/Stage1_1.xlsx,,B4,T4,m,"['c', 'm']","['Clue', 'Monopoly']","[-0.15, 0.5]","[0.15, 0.5]",1,1,,,,,,,,,0,8,8,8,0,0,0,7,,,,,,,,,,,,,,,,,,,,,,,,,,,,,,,,,,,,,,,,,,,,,,,,,,,,,,,622.8942186149998,None,622.8942186149998,None,622.8942186149998,None,c,0,0.8751634849995753,624.4275459319997,None,624.4275459319997,None,624.4275459319997,None,625.3608832649998,None,625.3608832649998,None,625.3608832649998,None,625.3608832649998,None,,,,,,,,,,,,,,,,,,,,,,,,,,,,,,,,,,,,,,,,,,,,001,30,2020_Jan_30_1032,spring_faces,3.2.3,60.02663946246979,
condition files/Stage1_1.xlsx,,B2,T1,m,"['c', 'm']","['Clue', 'Monopoly']","[-0.15, 0.5]","[0.15, 0.5]",1,1,,,,,,,,,0,8,8,8,0,1,1,2,,,,,,,,,,,,,,,,,,,,,,,,,,,,,,,,,,,,,,,,,,,,,,,,,,,,,,,627.3442736030001,None,627.3442736030001,None,627.3442736030001,None,m,1,1.2730347979995713,628.8775763610001,None,628.8775763610001,None,628.8775763610001,None,630.2275793419994,None,630.2275793419994,None,630.2275793419994,None,630.2275793419994,None,,,,,,,,,,,,,,,,,,,,,,,,,,,,,,,,,,,,,,,,,,,,001,30,2020_Jan_30_1032,spring_faces,3.2.3,60.02663946246979,
condition files/Stage1_1.xlsx,,T1,B1,c,"['c', 'm']","['Clue', 'Monopoly']","[-0.15, 0.5]","[0.15, 0.5]",1,1,,,,,,,,,0,8,8,8,0,2,2,0,,,,,,,,,,,,,,,,,,,,,,,,,,,,,,,,,,,,,,,,,,,,,,,,,,,,,,,632.194157975,None,632.194157975,None,632.194157975,None,c,1,0.8390727269998024,633.7275794159996,None,633.7275794159996,None,633.7275794159996,None,634.6442456469995,None,634.6442456469995,None,634.6442456469995,None,634.6442456469995,None,,,,,,,,,,,,,,,,,,,,,,,,,,,,,,,,,,,,,,,,,,,,001,30,2020_Jan_30_1032,spring_faces,3.2.3,60.02663946246979,
condition files/Stage1_1.xlsx,,T2,B2,m,"['c', 'm']","['Clue', 'Monopoly']","[-0.15, 0.5]","[0.15, 0.5]",1,1,,,,,,,,,0,8,8,8,0,3,3,3,,,,,,,,,,,,,,,,,,,,,,,,,,,,,,,,,,,,,,,,,,,,,,,,,,,,,,,636.6109340160001,None,636.6109340160001,None,636.6109340160001,None,c,0,0.9183490610002991,638.1442438869999,None,638.1442438869999,None,638.1442438869999,None,639.144172839,None,639.144172839,None,639.144172839,None,639.144172839,None,,,,,,,,,,,,,,,,,,,,,,,,,,,,,,,,,,,,,,,,,,,,001,30,2020_Jan_30_1032,spring_faces,3.2.3,60.02663946246979,
condition files/Stage1_1.xlsx,,T4,B3,m,"['c', 'm']","['Clue', 'Monopoly']","[-0.15, 0.5]","[0.15, 0.5]",1,1,,,,,,,,,0,8,8,8,0,4,4,6,,,,,,,,,,,,,,,,,,,,,,,,,,,,,,,,,,,,,,,,,,,,,,,,,,,,,,,641.1109060279996,None,641.1109060279996,None,641.1109060279996,None,m,1,2.242467396000393,642.6442214660001,None,642.6442214660001,None,642.6442214660001,None,644.9442474769994,None,644.9442474769994,None,644.9442474769994,None,644.9442474769994,None,,,,,,,,,,,,,,,,,,,,,,,,,,,,,,,,,,,,,,,,,,,,001,30,2020_Jan_30_1032,spring_faces,3.2.3,60.02663946246979,
condition files/Stage1_1.xlsx,,T3,B4,c,"['c', 'm']","['Clue', 'Monopoly']","[-0.15, 0.5]","[0.15, 0.5]",1,1,,,,,,,,,0,8,8,8,0,5,5,5,,,,,,,,,,,,,,,,,,,,,,,,,,,,,,,,,,,,,,,,,,,,,,,,,,,,,,,646.927603825,None,646.927603825,None,646.927603825,None,m,0,1.433676562999608,648.4609492669997,None,648.4609492669997,None,648.4609492669997,None,649.9775237679996,None,649.9775237679996,None,649.9775237679996,None,649.9775237679996,None,,,,,,,,,,,,,,,,,,,,,,,,,,,,,,,,,,,,,,,,,,,,001,30,2020_Jan_30_1032,spring_faces,3.2.3,60.02663946246979,
condition files/Stage1_1.xlsx,,B1,T2,c,"['c', 'm']","['Clue', 'Monopoly']","[-0.15, 0.5]","[0.15, 0.5]",1,1,,,,,,,,,0,8,8,8,0,6,6,1,,,,,,,,,,,,,,,,,,,,,,,,,,,,,,,,,,,,,,,,,,,,,,,,,,,,,,,651.944236196,None,651.944236196,None,651.944236196,None,m,0,1.2170216869999422,653.4775768709997,None,653.4775768709997,None,653.4775768709997,None,654.760838442,None,654.760838442,None,654.760838442,None,654.760838442,None,,,,,,,,,,,,,,,,,,,,,,,,,,,,,,,,,,,,,,,,,,,,001,30,2020_Jan_30_1032,spring_faces,3.2.3,60.02663946246979,
condition files/Stage1_1.xlsx,,B3,T3,c,"['c', 'm']","['Clue', 'Monopoly']","[-0.15, 0.5]","[0.15, 0.5]",1,1,,,,,,,,,0,8,8,8,0,7,7,4,,,,,,,,,,,,,,,,,,,,,,,,,,,,,,,,,,,,,,,,,,,,,,,,,,,,,,,656.7442496719996,None,656.7442496719996,None,656.7442496719996,None,c,1,1.6971748930000103,658.2775732170003,None,658.2775732170003,None,658.2775732170003,None,660.0275438799999,None,660.0275438799999,None,660.0275438799999,None,660.0275438799999,None,,,,,,,,,,,,,,,,,,,,,,,,,,,,,,,,,,,,,,,,,,,,001,30,2020_Jan_30_1032,spring_faces,3.2.3,60.02663946246979,
condition files/Stage1_2.xlsx,,T3,B3,c,"['c', 'm']","['Clue', 'Monopoly']","[-0.15, 0.5]","[0.15, 0.5]",1,1,,,,,,,,,0,9,9,9,0,0,0,4,,,,,,,,,,,,,,,,,,,,,,,,,,,,,,,,,,,,,,,,,,,,,,,,,,,,,,,662.0275688629999,None,662.0275688629999,None,662.0275688629999,None,m,0,0.87778020100086,663.5609058489999,None,663.5609058489999,None,663.5609058489999,None,664.5109309339996,None,664.5109309339996,None,664.5109309339996,None,664.5109309339996,None,,,,,,,,,,,,,,,,,,,,,,,,,,,,,,,,,,,,,,,,,,,,001,30,2020_Jan_30_1032,spring_faces,3.2.3,60.02663946246979,
condition files/Stage1_2.xlsx,,B2,T2,m,"['c', 'm']","['Clue', 'Monopoly']","[-0.15, 0.5]","[0.15, 0.5]",1,1,,,,,,,,,0,9,9,9,0,1,1,3,,,,,,,,,,,,,,,,,,,,,,,,,,,,,,,,,,,,,,,,,,,,,,,,,,,,,,,666.4776115859995,None,666.4776115859995,None,666.4776115859995,None,c,0,0.6197483549995013,668.0109084139995,None,668.0109084139995,None,668.0109084139995,None,668.7109772809999,None,668.7109772809999,None,668.7109772809999,None,668.7109772809999,None,,,,,,,,,,,,,,,,,,,,,,,,,,,,,,,,,,,,,,,,,,,,001,30,2020_Jan_30_1032,spring_faces,3.2.3,60.02663946246979,
condition files/Stage1_2.xlsx,,T4,B4,m,"['c', 'm']","['Clue', 'Monopoly']","[-0.15, 0.5]","[0.15, 0.5]",1,1,,,,,,,,,0,9,9,9,0,2,2,7,,,,,,,,,,,,,,,,,,,,,,,,,,,,,,,,,,,,,,,,,,,,,,,,,,,,,,,670.6774922049999,None,670.6774922049999,None,670.6774922049999,None,m,1,0.7877726889992118,672.2108881869999,None,672.2108881869999,None,672.2108881869999,None,673.0609327719994,None,673.0609327719994,None,673.0609327719994,None,673.0609327719994,None,,,,,,,,,,,,,,,,,,,,,,,,,,,,,,,,,,,,,,,,,,,,001,30,2020_Jan_30_1032,spring_faces,3.2.3,60.02663946246979,
condition files/Stage1_2.xlsx,,T2,B1,c,"['c', 'm']","['Clue', 'Monopoly']","[-0.15, 0.5]","[0.15, 0.5]",1,1,,,,,,,,,0,9,9,9,0,3,3,1,,,,,,,,,,,,,,,,,,,,,,,,,,,,,,,,,,,,,,,,,,,,,,,,,,,,,,,675.0442556190001,None,675.0442556190001,None,675.0442556190001,None,c,1,1.1411300069994468,676.5775646980001,None,676.5775646980001,None,676.5775646980001,None,677.7942401370001,None,677.7942401370001,None,677.7942401370001,None,677.7942401370001,None,,,,,,,,,,,,,,,,,,,,,,,,,,,,,,,,,,,,,,,,,,,,001,30,2020_Jan_30_1032,spring_faces,3.2.3,60.02663946246979,
condition files/Stage1_2.xlsx,,B3,T4,m,"['c', 'm']","['Clue', 'Monopoly']","[-0.15, 0.5]","[0.15, 0.5]",1,1,,,,,,,,,0,9,9,9,0,4,4,6,,,,,,,,,,,,,,,,,,,,,,,,,,,,,,,,,,,,,,,,,,,,,,,,,,,,,,,679.7609252920001,None,679.7609252920001,None,679.7609252920001,None,m,1,0.9524138030001268,681.2942258419998,None,681.2942258419998,None,681.2942258419998,None,682.3275801959999,None,682.3275801959999,None,682.3275801959999,None,682.3275801959999,None,,,,,,,,,,,,,,,,,,,,,,,,,,,,,,,,,,,,,,,,,,,,001,30,2020_Jan_30_1032,spring_faces,3.2.3,60.02663946246979,
condition files/Stage1_2.xlsx,,B4,T3,c,"['c', 'm']","['Clue', 'Monopoly']","[-0.15, 0.5]","[0.15, 0.5]",1,1,,,,,,,,,0,9,9,9,0,5,5,5,,,,,,,,,,,,,,,,,,,,,,,,,,,,,,,,,,,,,,,,,,,,,,,,,,,,,,,684.2942690729997,None,684.2942690729997,None,684.2942690729997,None,c,1,0.9951068849995863,685.8275785690003,None,685.8275785690003,None,685.8275785690003,None,686.8942234649994,None,686.8942234649994,None,686.8942234649994,None,686.8942234649994,None,,,,,,,,,,,,,,,,,,,,,,,,,,,,,,,,,,,,,,,,,,,,001,30,2020_Jan_30_1032,spring_faces,3.2.3,60.02663946246979,
condition files/Stage1_2.xlsx,,T1,B2,m,"['c', 'm']","['Clue', 'Monopoly']","[-0.15, 0.5]","[0.15, 0.5]",1,1,,,,,,,,,0,9,9,9,0,6,6,2,,,,,,,,,,,,,,,,,,,,,,,,,,,,,,,,,,,,,,,,,,,,,,,,,,,,,,,688.8609135979996,None,688.8609135979996,None,688.8609135979996,None,m,1,0.87654018000012,690.3941585249995,None,690.3941585249995,None,690.3941585249995,None,691.3442237219997,None,691.3442237219997,None,691.3442237219997,None,691.3442237219997,None,,,,,,,,,,,,,,,,,,,,,,,,,,,,,,,,,,,,,,,,,,,,001,30,2020_Jan_30_1032,spring_faces,3.2.3,60.02663946246979,
condition files/Stage1_2.xlsx,,B1,T1,c,"['c', 'm']","['Clue', 'Monopoly']","[-0.15, 0.5]","[0.15, 0.5]",1,1,,,,,,,,,0,9,9,9,0,7,7,0,,,,,,,,,,,,,,,,,,,,,,,,,,,,,,,,,,,,,,,,,,,,,,,,,,,,,,,693.3108832379994,None,693.3108832379994,None,693.3108832379994,None,m,0,0.9064218839994282,694.8442127199996,None,694.8442127199996,None,694.8442127199996,None,695.8275563890002,None,695.8275563890002,None,695.8275563890002,None,695.8275563890002,None,,,,,,,,,,,,,,,,,,,,,,,,,,,,,,,,,,,,,,,,,,,,001,30,2020_Jan_30_1032,spring_faces,3.2.3,60.02663946246979,
condition files/Stage1_1.xlsx,,T1,B1,c,"['c', 'm']","['Clue', 'Monopoly']","[-0.15, 0.5]","[0.15, 0.5]",1,1,,,,,,,,,0,10,10,10,0,0,0,0,,,,,,,,,,,,,,,,,,,,,,,,,,,,,,,,,,,,,,,,,,,,,,,,,,,,,,,697.8109043029999,None,697.8109043029999,None,697.8109043029999,None,m,0,0.7424611549995461,699.3442367649996,None,699.3442367649996,None,699.3442367649996,None,700.1442148030001,None,700.1442148030001,None,700.1442148030001,None,700.1442148030001,None,,,,,,,,,,,,,,,,,,,,,,,,,,,,,,,,,,,,,,,,,,,,001,30,2020_Jan_30_1032,spring_faces,3.2.3,60.02663946246979,
condition files/Stage1_1.xlsx,,B3,T3,c,"['c', 'm']","['Clue', 'Monopoly']","[-0.15, 0.5]","[0.15, 0.5]",1,1,,,,,,,,,0,10,10,10,0,1,1,4,,,,,,,,,,,,,,,,,,,,,,,,,,,,,,,,,,,,,,,,,,,,,,,,,,,,,,,702.127570058,None,702.127570058,None,702.127570058,None,c,1,0.713833142999647,703.6608995199995,None,703.6608995199995,None,703.6608995199995,None,704.4274013140002,None,704.4274013140002,None,704.4274013140002,None,704.4274013140002,None,,,,,,,,,,,,,,,,,,,,,,,,,,,,,,,,,,,,,,,,,,,,001,30,2020_Jan_30_1032,spring_faces,3.2.3,60.02663946246979,
condition files/Stage1_1.xlsx,,B2,T1,m,"['c', 'm']","['Clue', 'Monopoly']","[-0.15, 0.5]","[0.15, 0.5]",1,1,,,,,,,,,0,10,10,10,0,2,2,2,,,,,,,,,,,,,,,,,,,,,,,,,,,,,,,,,,,,,,,,,,,,,,,,,,,,,,,706.4109105520001,None,706.4109105520001,None,706.4109105520001,None,c,0,0.8305194469994603,707.944224498,None,707.944224498,None,707.944224498,None,708.8442395069997,None,708.8442395069997,None,708.8442395069997,None,708.8442395069997,None,,,,,,,,,,,,,,,,,,,,,,,,,,,,,,,,,,,,,,,,,,,,001,30,2020_Jan_30_1032,spring_faces,3.2.3,60.02663946246979,
condition files/Stage1_1.xlsx,,B4,T4,m,"['c', 'm']","['Clue', 'Monopoly']","[-0.15, 0.5]","[0.15, 0.5]",1,1,,,,,,,,,0,10,10,10,0,3,3,7,,,,,,,,,,,,,,,,,,,,,,,,,,,,,,,,,,,,,,,,,,,,,,,,,,,,,,,710.8109394049998,None,710.8109394049998,None,710.8109394049998,None,m,1,1.0063250869998228,712.3442466199995,None,712.3442466199995,None,712.3442466199995,None,713.4275903170001,None,713.4275903170001,None,713.4275903170001,None,713.4275903170001,None,,,,,,,,,,,,,,,,,,,,,,,,,,,,,,,,,,,,,,,,,,,,001,30,2020_Jan_30_1032,spring_faces,3.2.3,60.02663946246979,
condition files/Stage1_1.xlsx,,B1,T2,c,"['c', 'm']","['Clue', 'Monopoly']","[-0.15, 0.5]","[0.15, 0.5]",1,1,,,,,,,,,0,10,10,10,0,4,4,1,,,,,,,,,,,,,,,,,,,,,,,,,,,,,,,,,,,,,,,,,,,,,,,,,,,,,,,715.3942425409996,None,715.3942425409996,None,715.3942425409996,None,c,1,1.047151888999906,716.9275804919998,None,716.9275804919998,None,716.9275804919998,None,718.0442487660002,None,718.0442487660002,None,718.0442487660002,None,718.0442487660002,None,,,,,,,,,,,,,,,,,,,,,,,,,,,,,,,,,,,,,,,,,,,,001,30,2020_Jan_30_1032,spring_faces,3.2.3,60.02663946246979,
condition files/Stage1_1.xlsx,,T3,B4,c,"['c', 'm']","['Clue', 'Monopoly']","[-0.15, 0.5]","[0.15, 0.5]",1,1,,,,,,,,,0,10,10,10,0,5,5,5,,,,,,,,,,,,,,,,,,,,,,,,,,,,,,,,,,,,,,,,,,,,,,,,,,,,,,,720.0109463899998,None,720.0109463899998,None,720.0109463899998,None,m,0,0.7184338589995605,721.544186737,None,721.544186737,None,721.544186737,None,722.3275072779998,None,722.3275072779998,None,722.3275072779998,None,722.3275072779998,None,,,,,,,,,,,,,,,,,,,,,,,,,,,,,,,,,,,,,,,,,,,,001,30,2020_Jan_30_1032,spring_faces,3.2.3,60.02663946246979,
condition files/Stage1_1.xlsx,,T4,B3,m,"['c', 'm']","['Clue', 'Monopoly']","[-0.15, 0.5]","[0.15, 0.5]",1,1,,,,,,,,,0,10,10,10,0,6,6,6,,,,,,,,,,,,,,,,,,,,,,,,,,,,,,,,,,,,,,,,,,,,,,,,,,,,,,,724.3109180259999,None,724.3109180259999,None,724.3109180259999,None,c,0,0.9145085520003704,725.8442495170002,None,725.8442495170002,None,725.8442495170002,None,726.8275905159999,None,726.8275905159999,None,726.8275905159999,None,726.8275905159999,None,,,,,,,,,,,,,,,,,,,,,,,,,,,,,,,,,,,,,,,,,,,,001,30,2020_Jan_30_1032,spring_faces,3.2.3,60.02663946246979,
condition files/Stage1_1.xlsx,,T2,B2,m,"['c', 'm']","['Clue', 'Monopoly']","[-0.15, 0.5]","[0.15, 0.5]",1,1,,,,,,,,,0,10,10,10,0,7,7,3,,,,,,,,,,,,,,,,,,,,,,,,,,,,,,,,,,,,,,,,,,,,,,,,,,,,,,,728.7941860479996,None,728.7941860479996,None,728.7941860479996,None,m,1,0.5751795410005798,730.3275301829999,None,730.3275301829999,None,730.3275301829999,None,730.9609259500003,None,730.9609259500003,None,730.9609259500003,None,730.9609259500003,None,,,,,,,,,,,,,,,,,,,,,,,,,,,,,,,,,,,,,,,,,,,,001,30,2020_Jan_30_1032,spring_faces,3.2.3,60.02663946246979,
condition files/Stage1_2.xlsx,,B3,T4,m,"['c', 'm']","['Clue', 'Monopoly']","[-0.15, 0.5]","[0.15, 0.5]",1,1,,,,,,,,,0,11,11,11,0,0,0,6,,,,,,,,,,,,,,,,,,,,,,,,,,,,,,,,,,,,,,,,,,,,,,,,,,,,,,,732.9609297159996,None,732.9609297159996,None,732.9609297159996,None,m,1,1.368386410000312,734.4942229190001,None,734.4942229190001,None,734.4942229190001,None,735.9441689079995,None,735.9441689079995,None,735.9441689079995,None,735.9441689079995,None,,,,,,,,,,,,,,,,,,,,,,,,,,,,,,,,,,,,,,,,,,,,001,30,2020_Jan_30_1032,spring_faces,3.2.3,60.02663946246979,
condition files/Stage1_2.xlsx,,B1,T1,c,"['c', 'm']","['Clue', 'Monopoly']","[-0.15, 0.5]","[0.15, 0.5]",1,1,,,,,,,,,0,11,11,11,0,1,1,0,,,,,,,,,,,,,,,,,,,,,,,,,,,,,,,,,,,,,,,,,,,,,,,,,,,,,,,737.910884502,None,737.910884502,None,737.910884502,None,c,1,0.7704338360008478,739.4442261129998,None,739.4442261129998,None,739.4442261129998,None,740.2942308599995,None,740.2942308599995,None,740.2942308599995,None,740.2942308599995,None,,,,,,,,,,,,,,,,,,,,,,,,,,,,,,,,,,,,,,,,,,,,001,30,2020_Jan_30_1032,spring_faces,3.2.3,60.02663946246979,
condition files/Stage1_2.xlsx,,T2,B1,c,"['c', 'm']","['Clue', 'Monopoly']","[-0.15, 0.5]","[0.15, 0.5]",1,1,,,,,,,,,0,11,11,11,0,2,2,1,,,,,,,,,,,,,,,,,,,,,,,,,,,,,,,,,,,,,,,,,,,,,,,,,,,,,,,742.2609253370001,None,742.2609253370001,None,742.2609253370001,None,c,1,0.8843855240002085,743.7942185490001,None,743.7942185490001,None,743.7942185490001,None,744.7441976669998,None,744.7441976669998,None,744.7441976669998,None,744.7441976669998,None,,,,,,,,,,,,,,,,,,,,,,,,,,,,,,,,,,,,,,,,,,,,001,30,2020_Jan_30_1032,spring_faces,3.2.3,60.02663946246979,
condition files/Stage1_2.xlsx,,T4,B4,m,"['c', 'm']","['Clue', 'Monopoly']","[-0.15, 0.5]","[0.15, 0.5]",1,1,,,,,,,,,0,11,11,11,0,3,3,7,,,,,,,,,,,,,,,,,,,,,,,,,,,,,,,,,,,,,,,,,,,,,,,,,,,,,,,746.7274828239997,None,746.7274828239997,None,746.7274828239997,None,m,1,0.7857506219997958,748.2608817190003,None,748.2608817190003,None,748.2608817190003,None,749.1275252719997,None,749.1275252719997,None,749.1275252719997,None,749.1275252719997,None,,,,,,,,,,,,,,,,,,,,,,,,,,,,,,,,,,,,,,,,,,,,001,30,2020_Jan_30_1032,spring_faces,3.2.3,60.02663946246979,
condition files/Stage1_2.xlsx,,T3,B3,c,"['c', 'm']","['Clue', 'Monopoly']","[-0.15, 0.5]","[0.15, 0.5]",1,1,,,,,,,,,0,11,11,11,0,4,4,4,,,,,,,,,,,,,,,,,,,,,,,,,,,,,,,,,,,,,,,,,,,,,,,,,,,,,,,751.0942731079995,None,751.0942731079995,None,751.0942731079995,None,c,1,0.707219530000657,752.6274855209995,None,752.6274855209995,None,752.6274855209995,None,753.4109127639995,None,753.4109127639995,None,753.4109127639995,None,753.4109127639995,None,,,,,,,,,,,,,,,,,,,,,,,,,,,,,,,,,,,,,,,,,,,,001,30,2020_Jan_30_1032,spring_faces,3.2.3,60.02663946246979,
condition files/Stage1_2.xlsx,,B2,T2,m,"['c', 'm']","['Clue', 'Monopoly']","[-0.15, 0.5]","[0.15, 0.5]",1,1,,,,,,,,,0,11,11,11,0,5,5,3,,,,,,,,,,,,,,,,,,,,,,,,,,,,,,,,,,,,,,,,,,,,,,,,,,,,,,,755.3775936969996,None,755.3775936969996,None,755.3775936969996,None,c,0,0.7917633759998353,756.9109130759998,None,756.9109130759998,None,756.9109130759998,None,757.777571869,None,757.777571869,None,757.777571869,None,757.777571869,None,,,,,,,,,,,,,,,,,,,,,,,,,,,,,,,,,,,,,,,,,,,,001,30,2020_Jan_30_1032,spring_faces,3.2.3,60.02663946246979,
condition files/Stage1_2.xlsx,,B4,T3,c,"['c', 'm']","['Clue', 'Monopoly']","[-0.15, 0.5]","[0.15, 0.5]",1,1,,,,,,,,,0,11,11,11,0,6,6,5,,,,,,,,,,,,,,,,,,,,,,,,,,,,,,,,,,,,,,,,,,,,,,,,,,,,,,,759.7442401829994,None,759.7442401829994,None,759.7442401829994,None,c,1,0.8730569119998108,761.277547056,None,761.277547056,None,761.277547056,None,762.227566953,None,762.227566953,None,762.227566953,None,762.227566953,None,,,,,,,,,,,,,,,,,,,,,,,,,,,,,,,,,,,,,,,,,,,,001,30,2020_Jan_30_1032,spring_faces,3.2.3,60.02663946246979,
condition files/Stage1_2.xlsx,,T1,B2,m,"['c', 'm']","['Clue', 'Monopoly']","[-0.15, 0.5]","[0.15, 0.5]",1,1,,,,,,,,,0,11,11,11,0,7,7,2,,,,,,,,,,,,,,,,,,,,,,,,,,,,,,,,,,,,,,,,,,,,,,,,,,,,,,,764.1941430369998,None,764.1941430369998,None,764.1941430369998,None,m,1,0.5031340119994638,765.7275260639999,None,765.7275260639999,None,765.7275260639999,None,766.3108933809999,None,766.3108933809999,None,766.3108933809999,None,766.3108933809999,None,,,,,,,,,,,,,,,,,,,,,,,,,,,,,,,,,,,,,,,,,,,,001,30,2020_Jan_30_1032,spring_faces,3.2.3,60.02663946246979,
,,,,,,,,,,,,,,,,,,,,,,,,,,,,,,,,,,,,,,,,,,,,,,,,,,,,,,,,,,,,,,,,,,,,,,,,,,,,,,,,,,,,,,,,,,,,,,,,,,,,,,,,,,,,,,,,768.277555744,None,space,8.345643822000056,773.2609564140002,None,,,,,,,,,,,,,,,,,,,,,,,,,,,,,,001,30,2020_Jan_30_1032,spring_faces,3.2.3,60.02663946246979,
condition files/Stage2_1.xlsx,,T1,B1,s,"['s', 'r']","['Stratego', 'Risk']","[-0.15, 0.5]","[0.15, 0.5]",1,1,,,,,,,,,,,,,,,,,0,0,0,0,0,0,0,2,,,,,,,,,,,,,,,,,,,,,,,,,,,,,,,,,,,,,,,,,,,,,,,781.6609470220001,None,781.6609470220001,None,781.6609470220001,None,r,0,1.261216047999369,783.1775010849997,None,783.1775010849997,None,783.1775010849997,None,784.5109142800002,None,784.5109142800002,None,784.5109142800002,None,784.5109142800002,None,,,,,,,,,,,,,,,773.2609564140002,None,,,,,,,,,,,,,,,,,,,,,,,,,,,,001,30,2020_Jan_30_1032,spring_faces,3.2.3,60.02663946246979,
condition files/Stage2_1.xlsx,,B4,T4,r,"['s', 'r']","['Stratego', 'Risk']","[-0.15, 0.5]","[0.15, 0.5]",1,1,,,,,,,,,,,,,,,,,0,0,0,0,0,1,1,5,,,,,,,,,,,,,,,,,,,,,,,,,,,,,,,,,,,,,,,,,,,,,,,786.4776065679998,None,786.4776065679998,None,786.4776065679998,None,s,0,0.5396660550004526,788.0109123100001,None,788.0109123100001,None,788.0109123100001,None,788.6275895219997,None,788.6275895219997,None,788.6275895219997,None,788.6275895219997,None,,,,,,,,,,,,,,,,,,,,,,,,,,,,,,,,,,,,,,,,,,,,001,30,2020_Jan_30_1032,spring_faces,3.2.3,60.02663946246979,
condition files/Stage2_1.xlsx,,T3,B3,s,"['s', 'r']","['Stratego', 'Risk']","[-0.15, 0.5]","[0.15, 0.5]",1,1,,,,,,,,,,,,,,,,,0,0,0,0,0,2,2,4,,,,,,,,,,,,,,,,,,,,,,,,,,,,,,,,,,,,,,,,,,,,,,,790.5942747809995,None,790.5942747809995,None,790.5942747809995,None,r,0,0.39109573799942154,792.1275975010003,None,792.1275975010003,None,792.1275975010003,None,792.5941138669996,None,792.5941138669996,None,792.5941138669996,None,792.5941138669996,None,,,,,,,,,,,,,,,,,,,,,,,,,,,,,,,,,,,,,,,,,,,,001,30,2020_Jan_30_1032,spring_faces,3.2.3,60.02663946246979,
condition files/Stage2_1.xlsx,,B2,T2,r,"['s', 'r']","['Stratego', 'Risk']","[-0.15, 0.5]","[0.15, 0.5]",1,1,,,,,,,,,,,,,,,,,0,0,0,0,0,3,3,3,,,,,,,,,,,,,,,,,,,,,,,,,,,,,,,,,,,,,,,,,,,,,,,794.5609039419996,None,794.5609039419996,None,794.5609039419996,None,s,0,0.5044364490004227,796.0942292999998,None,796.0942292999998,None,796.0942292999998,None,796.6775520689998,None,796.6775520689998,None,796.6775520689998,None,796.6775520689998,None,,,,,,,,,,,,,,,,,,,,,,,,,,,,,,,,,,,,,,,,,,,,001,30,2020_Jan_30_1032,spring_faces,3.2.3,60.02663946246979,
condition files/Stage2_1.xlsx,,B6,T6,r,"['s', 'r']","['Stratego', 'Risk']","[-0.15, 0.5]","[0.15, 0.5]",1,1,,,,,,,,,,,,,,,,,0,0,0,0,0,4,4,1,,,,,,,,,,,,,,,,,,,,,,,,,,,,,,,,,,,,,,,,,,,,,,,798.6442554449995,None,798.6442554449995,None,798.6442554449995,None,s,0,0.27982828699987294,800.5108918839996,None,800.5108918839996,None,800.5108918839996,None,800.844230703,None,800.844230703,None,800.844230703,None,800.844230703,None,,,,,,,,,,,,,,,,,,,,,,,,,,,,,,,,,,,,,,,,,,,,001,30,2020_Jan_30_1032,spring_faces,3.2.3,60.02663946246979,
condition files/Stage2_1.xlsx,,T5,B5,s,"['s', 'r']","['Stratego', 'Risk']","[-0.15, 0.5]","[0.15, 0.5]",1,1,,,,,,,,,,,,,,,,,0,0,0,0,0,5,5,0,,,,,,,,,,,,,,,,,,,,,,,,,,,,,,,,,,,,,,,,,,,,,,,802.8275842969997,None,802.8275842969997,None,802.8275842969997,None,r,0,0.5417848950000916,804.3609041439995,None,804.3609041439995,None,804.3609041439995,None,804.9775849279995,None,804.9775849279995,None,804.9775849279995,None,804.9775849279995,None,,,,,,,,,,,,,,,,,,,,,,,,,,,,,,,,,,,,,,,,,,,,001,30,2020_Jan_30_1032,spring_faces,3.2.3,60.02663946246979,
condition files/Stage2_2.xlsx,,T6,B6,r,"['s', 'r']","['Stratego', 'Risk']","[-0.15, 0.5]","[0.15, 0.5]",1,1,,,,,,,,,,,,,,,,,0,1,1,1,0,0,0,1,,,,,,,,,,,,,,,,,,,,,,,,,,,,,,,,,,,,,,,,,,,,,,,806.9609259500003,None,806.9609259500003,None,806.9609259500003,None,r,1,0.3283964689999266,808.4943007350003,None,808.4943007350003,None,808.4943007350003,None,808.8942566280002,None,808.8942566280002,None,808.8942566280002,None,808.8942566280002,None,,,,,,,,,,,,,,,,,,,,,,,,,,,,,,,,,,,,,,,,,,,,001,30,2020_Jan_30_1032,spring_faces,3.2.3,60.02663946246979,
condition files/Stage2_2.xlsx,,B1,T1,s,"['s', 'r']","['Stratego', 'Risk']","[-0.15, 0.5]","[0.15, 0.5]",1,1,,,,,,,,,,,,,,,,,0,1,1,1,0,1,1,2,,,,,,,,,,,,,,,,,,,,,,,,,,,,,,,,,,,,,,,,,,,,,,,810.860922371,None,810.860922371,None,810.860922371,None,s,1,0.9245458559998951,812.3941653949996,None,812.3941653949996,None,812.3941653949996,None,813.3942545959999,None,813.3942545959999,None,813.3942545959999,None,813.3942545959999,None,,,,,,,,,,,,,,,,,,,,,,,,,,,,,,,,,,,,,,,,,,,,001,30,2020_Jan_30_1032,spring_faces,3.2.3,60.02663946246979,
condition files/Stage2_2.xlsx,,B3,T3,s,"['s', 'r']","['Stratego', 'Risk']","[-0.15, 0.5]","[0.15, 0.5]",1,1,,,,,,,,,,,,,,,,,0,1,1,1,0,2,2,4,,,,,,,,,,,,,,,,,,,,,,,,,,,,,,,,,,,,,,,,,,,,,,,815.3609228039995,None,815.3609228039995,None,815.3609228039995,None,r,0,1.144451103999927,816.8942427189995,None,816.8942427189995,None,816.8942427189995,None,818.0941245799995,None,818.0941245799995,None,818.0941245799995,None,818.0941245799995,None,,,,,,,,,,,,,,,,,,,,,,,,,,,,,,,,,,,,,,,,,,,,001,30,2020_Jan_30_1032,spring_faces,3.2.3,60.02663946246979,
condition files/Stage2_2.xlsx,,B5,T5,s,"['s', 'r']","['Stratego', 'Risk']","[-0.15, 0.5]","[0.15, 0.5]",1,1,,,,,,,,,,,,,,,,,0,1,1,1,0,3,3,0,,,,,,,,,,,,,,,,,,,,,,,,,,,,,,,,,,,,,,,,,,,,,,,820.0775550839999,None,820.0775550839999,None,820.0775550839999,None,r,0,0.8438076310003453,821.6108860429995,None,821.6108860429995,None,821.6108860429995,None,822.5108157180002,None,822.5108157180002,None,822.5108157180002,None,822.5108157180002,None,,,,,,,,,,,,,,,,,,,,,,,,,,,,,,,,,,,,,,,,,,,,001,30,2020_Jan_30_1032,spring_faces,3.2.3,60.02663946246979,
condition files/Stage2_2.xlsx,,T4,B4,r,"['s', 'r']","['Stratego', 'Risk']","[-0.15, 0.5]","[0.15, 0.5]",1,1,,,,,,,,,,,,,,,,,0,1,1,1,0,4,4,5,,,,,,,,,,,,,,,,,,,,,,,,,,,,,,,,,,,,,,,,,,,,,,,824.4942763009994,None,824.4942763009994,None,824.4942763009994,None,s,0,0.9071205230002306,826.0275609109995,None,826.0275609109995,None,826.0275609109995,None,827.0109122470003,None,827.0109122470003,None,827.0109122470003,None,827.0109122470003,None,,,,,,,,,,,,,,,,,,,,,,,,,,,,,,,,,,,,,,,,,,,,001,30,2020_Jan_30_1032,spring_faces,3.2.3,60.02663946246979,
condition files/Stage2_2.xlsx,,T2,B2,r,"['s', 'r']","['Stratego', 'Risk']","[-0.15, 0.5]","[0.15, 0.5]",1,1,,,,,,,,,,,,,,,,,0,1,1,1,0,5,5,3,,,,,,,,,,,,,,,,,,,,,,,,,,,,,,,,,,,,,,,,,,,,,,,828.9776145240003,None,828.9776145240003,None,828.9776145240003,None,s,0,1.1277595789997577,830.5109316809994,None,830.5109316809994,None,830.5109316809994,None,831.7108862389996,None,831.7108862389996,None,831.7108862389996,None,831.7108862389996,None,,,,,,,,,,,,,,,,,,,,,,,,,,,,,,,,,,,,,,,,,,,,001,30,2020_Jan_30_1032,spring_faces,3.2.3,60.02663946246979,
condition files/Stage2_1.xlsx,,T5,B5,s,"['s', 'r']","['Stratego', 'Risk']","[-0.15, 0.5]","[0.15, 0.5]",1,1,,,,,,,,,,,,,,,,,0,2,2,2,0,0,0,0,,,,,,,,,,,,,,,,,,,,,,,,,,,,,,,,,,,,,,,,,,,,,,,833.6942674020002,None,833.6942674020002,None,833.6942674020002,None,r,0,1.4350546939995183,835.2275448689998,None,835.2275448689998,None,835.2275448689998,None,836.7441662330002,None,836.7441662330002,None,836.7441662330002,None,836.7441662330002,None,,,,,,,,,,,,,,,,,,,,,,,,,,,,,,,,,,,,,,,,,,,,001,30,2020_Jan_30_1032,spring_faces,3.2.3,60.02663946246979,
condition files/Stage2_1.xlsx,,B4,T4,r,"['s', 'r']","['Stratego', 'Risk']","[-0.15, 0.5]","[0.15, 0.5]",1,1,,,,,,,,,,,,,,,,,0,2,2,2,0,1,1,5,,,,,,,,,,,,,,,,,,,,,,,,,,,,,,,,,,,,,,,,,,,,,,,838.7108974080002,None,838.7108974080002,None,838.7108974080002,None,s,0,0.8503872490000504,840.2442188819996,None,840.2442188819996,None,840.2442188819996,None,841.1775777470002,None,841.1775777470002,None,841.1775777470002,None,841.1775777470002,None,,,,,,,,,,,,,,,,,,,,,,,,,,,,,,,,,,,,,,,,,,,,001,30,2020_Jan_30_1032,spring_faces,3.2.3,60.02663946246979,
condition files/Stage2_1.xlsx,,T1,B1,s,"['s', 'r']","['Stratego', 'Risk']","[-0.15, 0.5]","[0.15, 0.5]",1,1,,,,,,,,,,,,,,,,,0,2,2,2,0,2,2,2,,,,,,,,,,,,,,,,,,,,,,,,,,,,,,,,,,,,,,,,,,,,,,,843.1441833509998,None,843.1441833509998,None,843.1441833509998,None,r,0,1.0091040349998366,844.6775825120003,None,844.6775825120003,None,844.6775825120003,None,845.7609200790002,None,845.7609200790002,None,845.7609200790002,None,845.7609200790002,None,,,,,,,,,,,,,,,,,,,,,,,,,,,,,,,,,,,,,,,,,,,,001,30,2020_Jan_30_1032,spring_faces,3.2.3,60.02663946246979,
condition files/Stage2_1.xlsx,,B6,T6,r,"['s', 'r']","['Stratego', 'Risk']","[-0.15, 0.5]","[0.15, 0.5]",1,1,,,,,,,,,,,,,,,,,0,2,2,2,0,3,3,1,,,,,,,,,,,,,,,,,,,,,,,,,,,,,,,,,,,,,,,,,,,,,,,847.7276207160003,None,847.7276207160003,None,847.7276207160003,None,r,1,0.9537575200001811,849.2609115569994,None,849.2609115569994,None,849.2609115569994,None,850.294225652,None,850.294225652,None,850.294225652,None,850.294225652,None,,,,,,,,,,,,,,,,,,,,,,,,,,,,,,,,,,,,,,,,,,,,001,30,2020_Jan_30_1032,spring_faces,3.2.3,60.02663946246979,
condition files/Stage2_1.xlsx,,B2,T2,r,"['s', 'r']","['Stratego', 'Risk']","[-0.15, 0.5]","[0.15, 0.5]",1,1,,,,,,,,,,,,,,,,,0,2,2,2,0,4,4,3,,,,,,,,,,,,,,,,,,,,,,,,,,,,,,,,,,,,,,,,,,,,,,,852.2608879589998,None,852.2608879589998,None,852.2608879589998,None,s,0,0.7724532350002846,853.7942178679996,None,853.7942178679996,None,853.7942178679996,None,854.6275747999998,None,854.6275747999998,None,854.6275747999998,None,854.6275747999998,None,,,,,,,,,,,,,,,,,,,,,,,,,,,,,,,,,,,,,,,,,,,,001,30,2020_Jan_30_1032,spring_faces,3.2.3,60.02663946246979,
condition files/Stage2_1.xlsx,,T3,B3,s,"['s', 'r']","['Stratego', 'Risk']","[-0.15, 0.5]","[0.15, 0.5]",1,1,,,,,,,,,,,,,,,,,0,2,2,2,0,5,5,4,,,,,,,,,,,,,,,,,,,,,,,,,,,,,,,,,,,,,,,,,,,,,,,856.6109244119998,None,856.6109244119998,None,856.6109244119998,None,s,1,0.3743617219997759,858.1442812189998,None,858.1442812189998,None,858.1442812189998,None,858.5942679629998,None,858.5942679629998,None,858.5942679629998,None,858.5942679629998,None,,,,,,,,,,,,,,,,,,,,,,,,,,,,,,,,,,,,,,,,,,,,001,30,2020_Jan_30_1032,spring_faces,3.2.3,60.02663946246979,
condition files/Stage2_2.xlsx,,B3,T3,s,"['s', 'r']","['Stratego', 'Risk']","[-0.15, 0.5]","[0.15, 0.5]",1,1,,,,,,,,,,,,,,,,,0,3,3,3,0,0,0,4,,,,,,,,,,,,,,,,,,,,,,,,,,,,,,,,,,,,,,,,,,,,,,,860.57759214,None,860.57759214,None,860.57759214,None,s,1,0.6479296369998337,862.1108696319998,None,862.1108696319998,None,862.1108696319998,None,862.8108127449996,None,862.8108127449996,None,862.8108127449996,None,862.8108127449996,None,,,,,,,,,,,,,,,,,,,,,,,,,,,,,,,,,,,,,,,,,,,,001,30,2020_Jan_30_1032,spring_faces,3.2.3,60.02663946246979,
condition files/Stage2_2.xlsx,,T2,B2,r,"['s', 'r']","['Stratego', 'Risk']","[-0.15, 0.5]","[0.15, 0.5]",1,1,,,,,,,,,,,,,,,,,0,3,3,3,0,1,1,3,,,,,,,,,,,,,,,,,,,,,,,,,,,,,,,,,,,,,,,,,,,,,,,864.7942390079997,None,864.7942390079997,None,864.7942390079997,None,r,1,0.6871534310002971,866.3275138609997,None,866.3275138609997,None,866.3275138609997,None,867.0942468200001,None,867.0942468200001,None,867.0942468200001,None,867.0942468200001,None,,,,,,,,,,,,,,,,,,,,,,,,,,,,,,,,,,,,,,,,,,,,001,30,2020_Jan_30_1032,spring_faces,3.2.3,60.02663946246979,
condition files/Stage2_2.xlsx,,T4,B4,r,"['s', 'r']","['Stratego', 'Risk']","[-0.15, 0.5]","[0.15, 0.5]",1,1,,,,,,,,,,,,,,,,,0,3,3,3,0,2,2,5,,,,,,,,,,,,,,,,,,,,,,,,,,,,,,,,,,,,,,,,,,,,,,,869.0609122999995,None,869.0609122999995,None,869.0609122999995,None,s,0,1.0284389759999613,870.594247168,None,870.594247168,None,870.594247168,None,871.6775740169996,None,871.6775740169996,None,871.6775740169996,None,871.6775740169996,None,,,,,,,,,,,,,,,,,,,,,,,,,,,,,,,,,,,,,,,,,,,,001,30,2020_Jan_30_1032,spring_faces,3.2.3,60.02663946246979,
condition files/Stage2_2.xlsx,,B5,T5,s,"['s', 'r']","['Stratego', 'Risk']","[-0.15, 0.5]","[0.15, 0.5]",1,1,,,,,,,,,,,,,,,,,0,3,3,3,0,3,3,0,,,,,,,,,,,,,,,,,,,,,,,,,,,,,,,,,,,,,,,,,,,,,,,873.6609415089997,None,873.6609415089997,None,873.6609415089997,None,r,0,0.9245147659994473,875.1941940460001,None,875.1941940460001,None,875.1941940460001,None,876.1942323949997,None,876.1942323949997,None,876.1942323949997,None,876.1942323949997,None,,,,,,,,,,,,,,,,,,,,,,,,,,,,,,,,,,,,,,,,,,,,001,30,2020_Jan_30_1032,spring_faces,3.2.3,60.02663946246979,
condition files/Stage2_2.xlsx,,B1,T1,s,"['s', 'r']","['Stratego', 'Risk']","[-0.15, 0.5]","[0.15, 0.5]",1,1,,,,,,,,,,,,,,,,,0,3,3,3,0,4,4,2,,,,,,,,,,,,,,,,,,,,,,,,,,,,,,,,,,,,,,,,,,,,,,,878.1608995070001,None,878.1608995070001,None,878.1608995070001,None,s,1,0.9523868350006524,879.6942377489995,None,879.6942377489995,None,879.6942377489995,None,880.7109725929995,None,880.7109725929995,None,880.7109725929995,None,880.7109725929995,None,,,,,,,,,,,,,,,,,,,,,,,,,,,,,,,,,,,,,,,,,,,,001,30,2020_Jan_30_1032,spring_faces,3.2.3,60.02663946246979,
condition files/Stage2_2.xlsx,,T6,B6,r,"['s', 'r']","['Stratego', 'Risk']","[-0.15, 0.5]","[0.15, 0.5]",1,1,,,,,,,,,,,,,,,,,0,3,3,3,0,5,5,1,,,,,,,,,,,,,,,,,,,,,,,,,,,,,,,,,,,,,,,,,,,,,,,882.6942466789997,None,882.6942466789997,None,882.6942466789997,None,r,1,0.8670290800000657,884.2275730700003,None,884.2275730700003,None,884.2275730700003,None,885.1775067070002,None,885.1775067070002,None,885.1775067070002,None,885.1775067070002,None,,,,,,,,,,,,,,,,,,,,,,,,,,,,,,,,,,,,,,,,,,,,001,30,2020_Jan_30_1032,spring_faces,3.2.3,60.02663946246979,
condition files/Stage2_1.xlsx,,B2,T2,r,"['s', 'r']","['Stratego', 'Risk']","[-0.15, 0.5]","[0.15, 0.5]",1,1,,,,,,,,,,,,,,,,,0,4,4,4,0,0,0,3,,,,,,,,,,,,,,,,,,,,,,,,,,,,,,,,,,,,,,,,,,,,,,,887.1608307039996,None,887.1608307039996,None,887.1608307039996,None,s,0,0.8325617469999997,888.694226177,None,888.694226177,None,888.694226177,None,889.5941939630002,None,889.5941939630002,None,889.5941939630002,None,889.5941939630002,None,,,,,,,,,,,,,,,,,,,,,,,,,,,,,,,,,,,,,,,,,,,,001,30,2020_Jan_30_1032,spring_faces,3.2.3,60.02663946246979,
condition files/Stage2_1.xlsx,,T1,B1,s,"['s', 'r']","['Stratego', 'Risk']","[-0.15, 0.5]","[0.15, 0.5]",1,1,,,,,,,,,,,,,,,,,0,4,4,4,0,1,1,2,,,,,,,,,,,,,,,,,,,,,,,,,,,,,,,,,,,,,,,,,,,,,,,891.5609234120002,None,891.5609234120002,None,891.5609234120002,None,s,1,0.992413244999625,893.0942660319997,None,893.0942660319997,None,893.0942660319997,None,894.1609125189998,None,894.1609125189998,None,894.1609125189998,None,894.1609125189998,None,,,,,,,,,,,,,,,,,,,,,,,,,,,,,,,,,,,,,,,,,,,,001,30,2020_Jan_30_1032,spring_faces,3.2.3,60.02663946246979,
condition files/Stage2_1.xlsx,,T5,B5,s,"['s', 'r']","['Stratego', 'Risk']","[-0.15, 0.5]","[0.15, 0.5]",1,1,,,,,,,,,,,,,,,,,0,4,4,4,0,2,2,0,,,,,,,,,,,,,,,,,,,,,,,,,,,,,,,,,,,,,,,,,,,,,,,896.1275661319996,None,896.1275661319996,None,896.1275661319996,None,s,1,0.8737769359995582,897.6609076240002,None,897.6609076240002,None,897.6609076240002,None,898.5942355259995,None,898.5942355259995,None,898.5942355259995,None,898.5942355259995,None,,,,,,,,,,,,,,,,,,,,,,,,,,,,,,,,,,,,,,,,,,,,001,30,2020_Jan_30_1032,spring_faces,3.2.3,60.02663946246979,
condition files/Stage2_1.xlsx,,B6,T6,r,"['s', 'r']","['Stratego', 'Risk']","[-0.15, 0.5]","[0.15, 0.5]",1,1,,,,,,,,,,,,,,,,,0,4,4,4,0,3,3,1,,,,,,,,,,,,,,,,,,,,,,,,,,,,,,,,,,,,,,,,,,,,,,,900.5776125759994,None,900.5776125759994,None,900.5776125759994,None,r,1,0.7437733140004639,902.1109118160002,None,902.1109118160002,None,902.1109118160002,None,902.9275864780002,None,902.9275864780002,None,902.9275864780002,None,902.9275864780002,None,,,,,,,,,,,,,,,,,,,,,,,,,,,,,,,,,,,,,,,,,,,,001,30,2020_Jan_30_1032,spring_faces,3.2.3,60.02663946246979,
