condsFile,subStage,cue1,cue2,correct,responseKeys,responseNames,cue1Position,cue2Position,cue1Opacity,cue2Opacity,stageLoop0.thisRepN,stageLoop0.thisTrialN,stageLoop0.thisN,stageLoop0.thisIndex,blockLoop0.thisRepN,blockLoop0.thisTrialN,blockLoop0.thisN,blockLoop0.thisIndex,stage1Loop.thisRepN,stage1Loop.thisTrialN,stage1Loop.thisN,stage1Loop.thisIndex,blockLoop1.thisRepN,blockLoop1.thisTrialN,blockLoop1.thisN,blockLoop1.thisIndex,stage2Loop.thisRepN,stage2Loop.thisTrialN,stage2Loop.thisN,stage2Loop.thisIndex,blockLoop2.thisRepN,blockLoop2.thisTrialN,blockLoop2.thisN,blockLoop2.thisIndex,testLoop.thisRepN,testLoop.thisTrialN,testLoop.thisN,testLoop.thisIndex,blockLoopTest.thisRepN,blockLoopTest.thisTrialN,blockLoopTest.thisN,blockLoopTest.thisIndex,cuePics,id_instr_text.started,id_instr_text.stopped,space_to_continue_2.started,space_to_continue_2.stopped,end_instructions_resp_3.keys,end_instructions_resp_3.rt,end_instructions_resp_3.started,end_instructions_resp_3.stopped,id_input_instr.started,id_input_instr.stopped,id_input_rect.started,id_input_rect.stopped,id_input_resp.keys,id_input_resp.rt,id_input_resp.started,id_input_resp.stopped,sonaID,id_input_text.started,id_input_text.stopped,final_text.started,final_text.stopped,instructions.started,instructions.stopped,end_instructions_resp.keys,end_instructions_resp.rt,end_instructions_resp.started,end_instructions_resp.stopped,space_to_continue.started,space_to_continue.stopped,instructions_stage0.started,instructions_stage0.stopped,end_instructions_resp_stage0.keys,end_instructions_resp_stage0.rt,end_instructions_resp_stage0.started,end_instructions_resp_stage0.stopped,space_to_continue_stage0.started,space_to_continue_stage0.stopped,text.started,text.stopped,resp_text1.started,resp_text1.stopped,resp_text2.started,resp_text2.stopped,trial_resp.keys,trial_resp.corr,trial_resp.rt,trial_resp.started,trial_resp.stopped,cue1Image.started,cue1Image.stopped,cue2Image.started,cue2Image.stopped,cue1Image_fb.started,cue1Image_fb.stopped,cue2Image_fb.started,cue2Image_fb.stopped,fb_text_answer.started,fb_text_answer.stopped,feedback_image.started,feedback_image.stopped,instructions_stage1.started,instructions_stage1.stopped,end_instructions_resp_stage1.keys,end_instructions_resp_stage1.rt,end_instructions_resp_stage1.started,end_instructions_resp_stage1.stopped,space_to_continue_stage1.started,space_to_continue_stage1.stopped,instructions_2.started,instructions_2.stopped,end_instructions_resp_2.keys,end_instructions_resp_2.rt,end_instructions_resp_2.started,end_instructions_resp_2.stopped,press_space_to_continue_stage2.started,press_space_to_continue_stage2.stopped,instructions_testStage1.started,instructions_testStage1.stopped,end_instructions_resp_test1.keys,end_instructions_resp_test1.rt,end_instructions_resp_test1.started,end_instructions_resp_test1.stopped,press_space_to_continue_test1.started,press_space_to_continue_test1.stopped,cue1Image_testChoice.started,cue1Image_testChoice.stopped,cue2Image_testChoice.started,cue2Image_testChoice.stopped,test_resp.keys,test_resp.corr,test_resp.rt,test_resp.started,test_resp.stopped,cue1Image_testConf.started,cue1Image_testConf.stopped,cue2Image_testConf.started,cue2Image_testConf.stopped,conf_reminder.started,conf_reminder.stopped,conf_rating.response,conf_rating.rt,conf_rating.started,conf_rating.stopped,session,participant,date,expName,psychopyVersion,frameRate,
,,,,,,,,,,,,,,,,,,,,,,,,,,,,,,,,,,,,,,,,,,,"{'none': 'pictures/20M_AN_C.png', 'alpha': 'pictures/SHINEd_apple.png', 'beta': 'pictures/SHINEd_pear.png', 'theta': 'pictures/SHINEd_melon.png', 'phi': 'pictures/SHINEd_pepper.png', 'T1': 'pictures/31M_AN_C.png', 'T2': 'pictures/38M_AN_C.png', 'T3': 'pictures/23M_AN_C.png', 'T4': 'pictures/20M_AN_C.png', 'T5': 'pictures/25M_AN_C.png', 'T6': 'pictures/32M_AN_C.png', 'B1': 'pictures/22M_NE_C.png', 'B2': 'pictures/34M_NE_C.png', 'B3': 'pictures/33M_NE_C.png', 'B4': 'pictures/26M_NE_C.png', 'B5': 'pictures/37M_NE_C.png', 'B6': 'pictures/36M_NE_C.png'}",10.989533957000276,None,15.972876131000703,None,space,30.5891514570003,15.972876131000703,None,,,,,,,,,,,,,,,,,,,,,,,,,,,,,,,,,,,,,,,,,,,,,,,,,,,,,,,,,,,,,,,,,,,,,,,,,,,,,,,,,,,,,,,,,,,,,,,,001,31,2020_Jan_30_1053,spring_faces,3.2.3,60.01700173634375,
,,,,,,,,,,,,,,,,,,,,,,,,,,,,,,,,,,,,,,,,,,,,,,,,,,,,47.00628430699999,None,47.00628430699999,None,"['1', '1', '1', '8', 't', 'a', 'c', 'r', 'e']","[6.275784483999814, 6.4837088429994765, 9.443789099999776, 9.795700179999585, 12.355756813999506, 12.643790596999679, 14.915859892999833, 15.21967860299992, 17.795699442000114]",47.00628430699999,None,,,,,,,,,,,,,,,,,,,,,,,,,,,,,,,,,,,,,,,,,,,,,,,,,,,,,,,,,,,,,,,,,,,,,,,,,,,,,,,,,,,,,,,,001,31,2020_Jan_30_1053,spring_faces,3.2.3,60.01700173634375,
,,,,,,,,,,,,,,,,,,,,,,,,,,,,,,,,,,,,,,,,,,,,,,,,,,,,,,,,,,,,1118tacre,47.00628430699999,None,47.00628430699999,None,69.85627470100007,None,space,1.290426436999951,74.83963689300072,None,,,,,,,,,,,,,,,,,,,,,,,,,,,,,,,,,,,,,,,,,,,,,,,,,,,,,,,,,,,,,,,,,,,,,,,,,,,,,001,31,2020_Jan_30_1053,spring_faces,3.2.3,60.01700173634375,
,,,,,,,,,,,,,,,,,,,,,,,,,,,,,,,,,,,,,,,,,,,,,,,,,,,,,,,,,,,,,,,,,,,,,,,74.83963689300072,None,76.15631159800068,None,space,6.9904344610004046,81.13962387800075,None,,,,,,,,,,,,,,,,,,,,,,,,,,,,,,,,,,,,,,,,,,,,,,,,,,,,,,,,,,,,,,,,,,,,,001,31,2020_Jan_30_1053,spring_faces,3.2.3,60.01700173634375,
condition files/Stage0a.xlsx,0a,beta,none,g,"['h', 'g']","['Chess', 'Go']","[0, 0.5]","[0, 0]",1,0,0,0,0,0,0,0,0,1,,,,,,,,,,,,,,,,,,,,,,,,,,,,,,,,,,,,,,,,,,,,,,,,,,,,,,,,,,,,,81.13962387800075,None,88.18955747600012,None,88.18955747600012,None,88.18955747600012,None,g,1,3.9891159620001417,89.77293636200011,None,89.77293636200011,None,89.77293636200011,None,93.83959855300054,None,93.83959855300054,None,93.83959855300054,None,93.83959855300054,None,,,,,,,,,,,,,,,,,,,,,,,,,,,,,,,,,,,,,,,,,,,,001,31,2020_Jan_30_1053,spring_faces,3.2.3,60.01700173634375,
condition files/Stage0a.xlsx,0a,alpha,none,h,"['h', 'g']","['Chess', 'Go']","[0, 0.5]","[0, 0]",1,0,0,0,0,0,0,1,1,0,,,,,,,,,,,,,,,,,,,,,,,,,,,,,,,,,,,,,,,,,,,,,,,,,,,,,,,,,,,,,,,95.80628072400032,None,95.80628072400032,None,95.80628072400032,None,h,1,2.4544179109998367,97.33961893000014,None,97.33961893000014,None,97.33961893000014,None,99.8729660680001,None,99.8729660680001,None,99.8729660680001,None,99.8729660680001,None,,,,,,,,,,,,,,,,,,,,,,,,,,,,,,,,,,,,,,,,,,,,001,31,2020_Jan_30_1053,spring_faces,3.2.3,60.01700173634375,
condition files/Stage0a.xlsx,0a,alpha,none,h,"['h', 'g']","['Chess', 'Go']","[0, 0.5]","[0, 0]",1,0,0,1,1,1,0,0,0,0,,,,,,,,,,,,,,,,,,,,,,,,,,,,,,,,,,,,,,,,,,,,,,,,,,,,,,,,,,,,,,,101.85628625000027,None,101.85628625000027,None,101.85628625000027,None,h,1,1.6044164349996208,103.38962648300003,None,103.38962648300003,None,103.38962648300003,None,105.05629913300072,None,105.05629913300072,None,105.05629913300072,None,105.05629913300072,None,,,,,,,,,,,,,,,,,,,,,,,,,,,,,,,,,,,,,,,,,,,,001,31,2020_Jan_30_1053,spring_faces,3.2.3,60.01700173634375,
condition files/Stage0a.xlsx,0a,beta,none,g,"['h', 'g']","['Chess', 'Go']","[0, 0.5]","[0, 0]",1,0,0,1,1,1,0,1,1,1,,,,,,,,,,,,,,,,,,,,,,,,,,,,,,,,,,,,,,,,,,,,,,,,,,,,,,,,,,,,,,,107.03960336,None,107.03960336,None,107.03960336,None,g,1,1.2211085890003233,108.57293144300002,None,108.57293144300002,None,108.57293144300002,None,109.87296282100033,None,109.87296282100033,None,109.87296282100033,None,109.87296282100033,None,,,,,,,,,,,,,,,,,,,,,,,,,,,,,,,,,,,,,,,,,,,,001,31,2020_Jan_30_1053,spring_faces,3.2.3,60.01700173634375,
condition files/Stage0a.xlsx,0a,alpha,none,h,"['h', 'g']","['Chess', 'Go']","[0, 0.5]","[0, 0]",1,0,0,2,2,2,0,0,0,0,,,,,,,,,,,,,,,,,,,,,,,,,,,,,,,,,,,,,,,,,,,,,,,,,,,,,,,,,,,,,,,111.85629778200018,None,111.85629778200018,None,111.85629778200018,None,h,1,0.7564406629999212,113.38964498099995,None,113.38964498099995,None,113.38964498099995,None,114.22294272199997,None,114.22294272199997,None,114.22294272199997,None,114.22294272199997,None,,,,,,,,,,,,,,,,,,,,,,,,,,,,,,,,,,,,,,,,,,,,001,31,2020_Jan_30_1053,spring_faces,3.2.3,60.01700173634375,
condition files/Stage0a.xlsx,0a,beta,none,g,"['h', 'g']","['Chess', 'Go']","[0, 0.5]","[0, 0]",1,0,0,2,2,2,0,1,1,1,,,,,,,,,,,,,,,,,,,,,,,,,,,,,,,,,,,,,,,,,,,,,,,,,,,,,,,,,,,,,,,116.18962780700076,None,116.18962780700076,None,116.18962780700076,None,g,1,0.8231149329994878,117.72292924500016,None,117.72292924500016,None,117.72292924500016,None,118.62296612000046,None,118.62296612000046,None,118.62296612000046,None,118.62296612000046,None,,,,,,,,,,,,,,,,,,,,,,,,,,,,,,,,,,,,,,,,,,,,001,31,2020_Jan_30_1053,spring_faces,3.2.3,60.01700173634375,
condition files/Stage0a.xlsx,0a,beta,none,g,"['h', 'g']","['Chess', 'Go']","[0, 0.5]","[0, 0]",1,0,0,3,3,3,0,0,0,1,,,,,,,,,,,,,,,,,,,,,,,,,,,,,,,,,,,,,,,,,,,,,,,,,,,,,,,,,,,,,,,120.60630246100027,None,120.60630246100027,None,120.60630246100027,None,g,1,0.9503670829999464,122.13962832800007,None,122.13962832800007,None,122.13962832800007,None,123.15622191800048,None,123.15622191800048,None,123.15622191800048,None,123.15622191800048,None,,,,,,,,,,,,,,,,,,,,,,,,,,,,,,,,,,,,,,,,,,,,001,31,2020_Jan_30_1053,spring_faces,3.2.3,60.01700173634375,
condition files/Stage0a.xlsx,0a,alpha,none,h,"['h', 'g']","['Chess', 'Go']","[0, 0.5]","[0, 0]",1,0,0,3,3,3,0,1,1,0,,,,,,,,,,,,,,,,,,,,,,,,,,,,,,,,,,,,,,,,,,,,,,,,,,,,,,,,,,,,,,,125.1396005710003,None,125.1396005710003,None,125.1396005710003,None,h,1,0.7850069840005744,126.67296905800049,None,126.67296905800049,None,126.67296905800049,None,127.53937150900038,None,127.53937150900038,None,127.53937150900038,None,127.53937150900038,None,,,,,,,,,,,,,,,,,,,,,,,,,,,,,,,,,,,,,,,,,,,,001,31,2020_Jan_30_1053,spring_faces,3.2.3,60.01700173634375,
condition files/Stage0a.xlsx,0a,beta,none,g,"['h', 'g']","['Chess', 'Go']","[0, 0.5]","[0, 0]",1,0,0,4,4,4,0,0,0,1,,,,,,,,,,,,,,,,,,,,,,,,,,,,,,,,,,,,,,,,,,,,,,,,,,,,,,,,,,,,,,,129.52294957600043,None,129.52294957600043,None,129.52294957600043,None,g,1,0.8337187659999472,131.056273659,None,131.056273659,None,131.056273659,None,131.95622009100043,None,131.95622009100043,None,131.95622009100043,None,131.95622009100043,None,,,,,,,,,,,,,,,,,,,,,,,,,,,,,,,,,,,,,,,,,,,,001,31,2020_Jan_30_1053,spring_faces,3.2.3,60.01700173634375,
condition files/Stage0a.xlsx,0a,alpha,none,h,"['h', 'g']","['Chess', 'Go']","[0, 0.5]","[0, 0]",1,0,0,4,4,4,0,1,1,0,,,,,,,,,,,,,,,,,,,,,,,,,,,,,,,,,,,,,,,,,,,,,,,,,,,,,,,,,,,,,,,133.93957334600054,None,133.93957334600054,None,133.93957334600054,None,h,1,0.8170200779995866,135.47296192400063,None,135.47296192400063,None,135.47296192400063,None,136.3562210350001,None,136.3562210350001,None,136.3562210350001,None,136.3562210350001,None,,,,,,,,,,,,,,,,,,,,,,,,,,,,,,,,,,,,,,,,,,,,001,31,2020_Jan_30_1053,spring_faces,3.2.3,60.01700173634375,
condition files/Stage0a.xlsx,0a,alpha,none,h,"['h', 'g']","['Chess', 'Go']","[0, 0.5]","[0, 0]",1,0,0,5,5,5,0,0,0,0,,,,,,,,,,,,,,,,,,,,,,,,,,,,,,,,,,,,,,,,,,,,,,,,,,,,,,,,,,,,,,,138.3562324680006,None,138.3562324680006,None,138.3562324680006,None,h,1,2.8003750170000785,139.88962854400052,None,139.88962854400052,None,139.88962854400052,None,142.75624447500013,None,142.75624447500013,None,142.75624447500013,None,142.75624447500013,None,,,,,,,,,,,,,,,,,,,,,,,,,,,,,,,,,,,,,,,,,,,,001,31,2020_Jan_30_1053,spring_faces,3.2.3,60.01700173634375,
condition files/Stage0a.xlsx,0a,beta,none,g,"['h', 'g']","['Chess', 'Go']","[0, 0.5]","[0, 0]",1,0,0,5,5,5,0,1,1,1,,,,,,,,,,,,,,,,,,,,,,,,,,,,,,,,,,,,,,,,,,,,,,,,,,,,,,,,,,,,,,,144.7395048950002,None,144.7395048950002,None,144.7395048950002,None,g,1,0.9451258199997028,146.27294312699996,None,146.27294312699996,None,146.27294312699996,None,147.27288794800006,None,147.27288794800006,None,147.27288794800006,None,147.27288794800006,None,,,,,,,,,,,,,,,,,,,,,,,,,,,,,,,,,,,,,,,,,,,,001,31,2020_Jan_30_1053,spring_faces,3.2.3,60.01700173634375,
condition files/Stage0b_1.xlsx,0b,alpha,none,h,"['h', 'g']","['Chess', 'Go']","[-0.15, 0.5]","[0.15, 0.5]",1,0,0,6,6,6,0,0,0,0,,,,,,,,,,,,,,,,,,,,,,,,,,,,,,,,,,,,,,,,,,,,,,,,,,,,,,,,,,,,,,,149.2729608489999,None,149.2729608489999,None,149.2729608489999,None,h,1,0.8917871049998212,150.80630011700032,None,150.80630011700032,None,150.80630011700032,None,151.75616738500048,None,151.75616738500048,None,151.75616738500048,None,151.75616738500048,None,,,,,,,,,,,,,,,,,,,,,,,,,,,,,,,,,,,,,,,,,,,,001,31,2020_Jan_30_1053,spring_faces,3.2.3,60.01700173634375,
condition files/Stage0b_1.xlsx,0b,none,beta,g,"['h', 'g']","['Chess', 'Go']","[-0.15, 0.5]","[0.15, 0.5]",0,1,0,6,6,6,0,1,1,1,,,,,,,,,,,,,,,,,,,,,,,,,,,,,,,,,,,,,,,,,,,,,,,,,,,,,,,,,,,,,,,153.7396401189999,None,153.7396401189999,None,153.7396401189999,None,g,1,0.8730732760004685,155.27299577600024,None,155.27299577600024,None,155.27299577600024,None,156.22299970099994,None,156.22299970099994,None,156.22299970099994,None,156.22299970099994,None,,,,,,,,,,,,,,,,,,,,,,,,,,,,,,,,,,,,,,,,,,,,001,31,2020_Jan_30_1053,spring_faces,3.2.3,60.01700173634375,
condition files/Stage0b_2.xlsx,0b,beta,none,g,"['h', 'g']","['Chess', 'Go']","[-0.15, 0.5]","[0.15, 0.5]",1,0,0,7,7,7,0,0,0,1,,,,,,,,,,,,,,,,,,,,,,,,,,,,,,,,,,,,,,,,,,,,,,,,,,,,,,,,,,,,,,,158.20630566,None,158.20630566,None,158.20630566,None,g,1,0.9186252579993379,159.73938008599998,None,159.73938008599998,None,159.73938008599998,None,160.73957719600003,None,160.73957719600003,None,160.73957719600003,None,160.73957719600003,None,,,,,,,,,,,,,,,,,,,,,,,,,,,,,,,,,,,,,,,,,,,,001,31,2020_Jan_30_1053,spring_faces,3.2.3,60.01700173634375,
condition files/Stage0b_2.xlsx,0b,none,alpha,h,"['h', 'g']","['Chess', 'Go']","[-0.15, 0.5]","[0.15, 0.5]",0,1,0,7,7,7,0,1,1,0,,,,,,,,,,,,,,,,,,,,,,,,,,,,,,,,,,,,,,,,,,,,,,,,,,,,,,,,,,,,,,,162.70627317400067,None,162.70627317400067,None,162.70627317400067,None,h,1,0.6744440010006656,164.23961091,None,164.23961091,None,164.23961091,None,164.98960201800037,None,164.98960201800037,None,164.98960201800037,None,164.98960201800037,None,,,,,,,,,,,,,,,,,,,,,,,,,,,,,,,,,,,,,,,,,,,,001,31,2020_Jan_30_1053,spring_faces,3.2.3,60.01700173634375,
condition files/Stage0b_1.xlsx,0b,none,beta,g,"['h', 'g']","['Chess', 'Go']","[-0.15, 0.5]","[0.15, 0.5]",0,1,0,8,8,8,0,0,0,1,,,,,,,,,,,,,,,,,,,,,,,,,,,,,,,,,,,,,,,,,,,,,,,,,,,,,,,,,,,,,,,166.97292925200054,None,166.97292925200054,None,166.97292925200054,None,g,1,0.807794192000074,168.50628184000016,None,168.50628184000016,None,168.50628184000016,None,169.372797901,None,169.372797901,None,169.372797901,None,169.372797901,None,,,,,,,,,,,,,,,,,,,,,,,,,,,,,,,,,,,,,,,,,,,,001,31,2020_Jan_30_1053,spring_faces,3.2.3,60.01700173634375,
condition files/Stage0b_1.xlsx,0b,alpha,none,h,"['h', 'g']","['Chess', 'Go']","[-0.15, 0.5]","[0.15, 0.5]",1,0,0,8,8,8,0,1,1,0,,,,,,,,,,,,,,,,,,,,,,,,,,,,,,,,,,,,,,,,,,,,,,,,,,,,,,,,,,,,,,,171.3563194110002,None,171.3563194110002,None,171.3563194110002,None,h,1,0.6647874000000229,172.8893620230001,None,172.8893620230001,None,172.8893620230001,None,173.62295407400052,None,173.62295407400052,None,173.62295407400052,None,173.62295407400052,None,,,,,,,,,,,,,,,,,,,,,,,,,,,,,,,,,,,,,,,,,,,,001,31,2020_Jan_30_1053,spring_faces,3.2.3,60.01700173634375,
condition files/Stage0b_2.xlsx,0b,none,alpha,h,"['h', 'g']","['Chess', 'Go']","[-0.15, 0.5]","[0.15, 0.5]",0,1,0,9,9,9,0,0,0,0,,,,,,,,,,,,,,,,,,,,,,,,,,,,,,,,,,,,,,,,,,,,,,,,,,,,,,,,,,,,,,,175.6062624490005,None,175.6062624490005,None,175.6062624490005,None,h,1,1.342551337000259,177.13955453200015,None,177.13955453200015,None,177.13955453200015,None,178.53962212100032,None,178.53962212100032,None,178.53962212100032,None,178.53962212100032,None,,,,,,,,,,,,,,,,,,,,,,,,,,,,,,,,,,,,,,,,,,,,001,31,2020_Jan_30_1053,spring_faces,3.2.3,60.01700173634375,
condition files/Stage0b_2.xlsx,0b,beta,none,g,"['h', 'g']","['Chess', 'Go']","[-0.15, 0.5]","[0.15, 0.5]",1,0,0,9,9,9,0,1,1,1,,,,,,,,,,,,,,,,,,,,,,,,,,,,,,,,,,,,,,,,,,,,,,,,,,,,,,,,,,,,,,,180.52297220700075,None,180.52297220700075,None,180.52297220700075,None,g,1,0.5703315290002138,182.05573196600017,None,182.05573196600017,None,182.05573196600017,None,182.70629621600074,None,182.70629621600074,None,182.70629621600074,None,182.70629621600074,None,,,,,,,,,,,,,,,,,,,,,,,,,,,,,,,,,,,,,,,,,,,,001,31,2020_Jan_30_1053,spring_faces,3.2.3,60.01700173634375,
condition files/Stage0b_1.xlsx,0b,none,beta,g,"['h', 'g']","['Chess', 'Go']","[-0.15, 0.5]","[0.15, 0.5]",0,1,0,10,10,10,0,0,0,1,,,,,,,,,,,,,,,,,,,,,,,,,,,,,,,,,,,,,,,,,,,,,,,,,,,,,,,,,,,,,,,184.6896331349999,None,184.6896331349999,None,184.6896331349999,None,h,0,1.1071096800005762,186.2229652700007,None,186.2229652700007,None,186.2229652700007,None,187.38957538900013,None,187.38957538900013,None,187.38957538900013,None,187.38957538900013,None,,,,,,,,,,,,,,,,,,,,,,,,,,,,,,,,,,,,,,,,,,,,001,31,2020_Jan_30_1053,spring_faces,3.2.3,60.01700173634375,
condition files/Stage0b_1.xlsx,0b,alpha,none,h,"['h', 'g']","['Chess', 'Go']","[-0.15, 0.5]","[0.15, 0.5]",1,0,0,10,10,10,0,1,1,0,,,,,,,,,,,,,,,,,,,,,,,,,,,,,,,,,,,,,,,,,,,,,,,,,,,,,,,,,,,,,,,189.37293114800013,None,189.37293114800013,None,189.37293114800013,None,h,1,0.8400895439999658,190.9059736170002,None,190.9059736170002,None,190.9059736170002,None,191.8229334430007,None,191.8229334430007,None,191.8229334430007,None,191.8229334430007,None,,,,,,,,,,,,,,,,,,,,,,,,,,,,,,,,,,,,,,,,,,,,001,31,2020_Jan_30_1053,spring_faces,3.2.3,60.01700173634375,
condition files/Stage0b_2.xlsx,0b,none,alpha,h,"['h', 'g']","['Chess', 'Go']","[-0.15, 0.5]","[0.15, 0.5]",0,1,0,11,11,11,0,0,0,0,,,,,,,,,,,,,,,,,,,,,,,,,,,,,,,,,,,,,,,,,,,,,,,,,,,,,,,,,,,,,,,193.80628474100013,None,193.80628474100013,None,193.80628474100013,None,h,1,1.078462380000019,195.33960430700063,None,195.33960430700063,None,195.33960430700063,None,196.4729416979999,None,196.4729416979999,None,196.4729416979999,None,196.4729416979999,None,,,,,,,,,,,,,,,,,,,,,,,,,,,,,,,,,,,,,,,,,,,,001,31,2020_Jan_30_1053,spring_faces,3.2.3,60.01700173634375,
condition files/Stage0b_2.xlsx,0b,beta,none,g,"['h', 'g']","['Chess', 'Go']","[-0.15, 0.5]","[0.15, 0.5]",1,0,0,11,11,11,0,1,1,1,,,,,,,,,,,,,,,,,,,,,,,,,,,,,,,,,,,,,,,,,,,,,,,,,,,,,,,,,,,,,,,198.45632380700044,None,198.45632380700044,None,198.45632380700044,None,g,1,1.3886959179999394,199.98936691200015,None,199.98936691200015,None,199.98936691200015,None,201.45627340800002,None,201.45627340800002,None,201.45627340800002,None,201.45627340800002,None,,,,,,,,,,,,,,,,,,,,,,,,,,,,,,,,,,,,,,,,,,,,001,31,2020_Jan_30_1053,spring_faces,3.2.3,60.01700173634375,
condition files/Stage0c_1.xlsx,0c,alpha,phi,h,"['h', 'g']","['Chess', 'Go']","[-0.15, 0.5]","[0.15, 0.5]",1,1,0,12,12,12,0,0,0,1,,,,,,,,,,,,,,,,,,,,,,,,,,,,,,,,,,,,,,,,,,,,,,,,,,,,,,,,,,,,,,,203.43959844000074,None,203.43959844000074,None,203.43959844000074,None,h,1,3.1091461750002054,204.97293918500054,None,204.97293918500054,None,204.97293918500054,None,208.13961530000051,None,208.13961530000051,None,208.13961530000051,None,208.13961530000051,None,,,,,,,,,,,,,,,,,,,,,,,,,,,,,,,,,,,,,,,,,,,,001,31,2020_Jan_30_1053,spring_faces,3.2.3,60.01700173634375,
condition files/Stage0c_1.xlsx,0c,phi,beta,g,"['h', 'g']","['Chess', 'Go']","[-0.15, 0.5]","[0.15, 0.5]",1,1,0,12,12,12,0,1,1,3,,,,,,,,,,,,,,,,,,,,,,,,,,,,,,,,,,,,,,,,,,,,,,,,,,,,,,,,,,,,,,,210.12297448400022,None,210.12297448400022,None,210.12297448400022,None,g,1,2.1217316629999914,211.65631633000066,None,211.65631633000066,None,211.65631633000066,None,213.83960437400037,None,213.83960437400037,None,213.83960437400037,None,213.83960437400037,None,,,,,,,,,,,,,,,,,,,,,,,,,,,,,,,,,,,,,,,,,,,,001,31,2020_Jan_30_1053,spring_faces,3.2.3,60.01700173634375,
condition files/Stage0c_1.xlsx,0c,beta,theta,g,"['h', 'g']","['Chess', 'Go']","[-0.15, 0.5]","[0.15, 0.5]",1,1,0,12,12,12,0,2,2,2,,,,,,,,,,,,,,,,,,,,,,,,,,,,,,,,,,,,,,,,,,,,,,,,,,,,,,,,,,,,,,,215.82298721999996,None,215.82298721999996,None,215.82298721999996,None,g,1,2.56584218900025,217.3563009570007,None,217.3563009570007,None,217.3563009570007,None,219.97294814399993,None,219.97294814399993,None,219.97294814399993,None,219.97294814399993,None,,,,,,,,,,,,,,,,,,,,,,,,,,,,,,,,,,,,,,,,,,,,001,31,2020_Jan_30_1053,spring_faces,3.2.3,60.01700173634375,
condition files/Stage0c_1.xlsx,0c,theta,alpha,h,"['h', 'g']","['Chess', 'Go']","[-0.15, 0.5]","[0.15, 0.5]",1,1,0,12,12,12,0,3,3,0,,,,,,,,,,,,,,,,,,,,,,,,,,,,,,,,,,,,,,,,,,,,,,,,,,,,,,,,,,,,,,,221.95632265800032,None,221.95632265800032,None,221.95632265800032,None,h,1,2.0165006569995967,223.48962355500043,None,223.48962355500043,None,223.48962355500043,None,225.55630153000038,None,225.55630153000038,None,225.55630153000038,None,225.55630153000038,None,,,,,,,,,,,,,,,,,,,,,,,,,,,,,,,,,,,,,,,,,,,,001,31,2020_Jan_30_1053,spring_faces,3.2.3,60.01700173634375,
condition files/Stage0c_2.xlsx,0c,alpha,theta,h,"['h', 'g']","['Chess', 'Go']","[-0.15, 0.5]","[0.15, 0.5]",1,1,0,13,13,13,0,0,0,0,,,,,,,,,,,,,,,,,,,,,,,,,,,,,,,,,,,,,,,,,,,,,,,,,,,,,,,,,,,,,,,227.5562152370003,None,227.5562152370003,None,227.5562152370003,None,h,1,1.5364164439997694,229.08962229100052,None,229.08962229100052,None,229.08962229100052,None,230.68961106300048,None,230.68961106300048,None,230.68961106300048,None,230.68961106300048,None,,,,,,,,,,,,,,,,,,,,,,,,,,,,,,,,,,,,,,,,,,,,001,31,2020_Jan_30_1053,spring_faces,3.2.3,60.01700173634375,
condition files/Stage0c_2.xlsx,0c,beta,phi,g,"['h', 'g']","['Chess', 'Go']","[-0.15, 0.5]","[0.15, 0.5]",1,1,0,13,13,13,0,1,1,3,,,,,,,,,,,,,,,,,,,,,,,,,,,,,,,,,,,,,,,,,,,,,,,,,,,,,,,,,,,,,,,232.6729595450006,None,232.6729595450006,None,232.6729595450006,None,g,1,1.5726670770000055,234.1893840769999,None,234.1893840769999,None,234.1893840769999,None,235.82297057899996,None,235.82297057899996,None,235.82297057899996,None,235.82297057899996,None,,,,,,,,,,,,,,,,,,,,,,,,,,,,,,,,,,,,,,,,,,,,001,31,2020_Jan_30_1053,spring_faces,3.2.3,60.01700173634375,
condition files/Stage0c_2.xlsx,0c,theta,beta,g,"['h', 'g']","['Chess', 'Go']","[-0.15, 0.5]","[0.15, 0.5]",1,1,0,13,13,13,0,2,2,2,,,,,,,,,,,,,,,,,,,,,,,,,,,,,,,,,,,,,,,,,,,,,,,,,,,,,,,,,,,,,,,237.80618857300033,None,237.80618857300033,None,237.80618857300033,None,g,1,2.1832103099995948,239.32294670800002,None,239.32294670800002,None,239.32294670800002,None,241.55626875300004,None,241.55626875300004,None,241.55626875300004,None,241.55626875300004,None,,,,,,,,,,,,,,,,,,,,,,,,,,,,,,,,,,,,,,,,,,,,001,31,2020_Jan_30_1053,spring_faces,3.2.3,60.01700173634375,
condition files/Stage0c_2.xlsx,0c,phi,alpha,h,"['h', 'g']","['Chess', 'Go']","[-0.15, 0.5]","[0.15, 0.5]",1,1,0,13,13,13,0,3,3,1,,,,,,,,,,,,,,,,,,,,,,,,,,,,,,,,,,,,,,,,,,,,,,,,,,,,,,,,,,,,,,,243.53955902000052,None,243.53955902000052,None,243.53955902000052,None,h,1,0.7370784769991587,245.07296078000036,None,245.07296078000036,None,245.07296078000036,None,245.87296692500058,None,245.87296692500058,None,245.87296692500058,None,245.87296692500058,None,,,,,,,,,,,,,,,,,,,,,,,,,,,,,,,,,,,,,,,,,,,,001,31,2020_Jan_30_1053,spring_faces,3.2.3,60.01700173634375,
condition files/Stage0c_1.xlsx,0c,phi,beta,g,"['h', 'g']","['Chess', 'Go']","[-0.15, 0.5]","[0.15, 0.5]",1,1,0,14,14,14,0,0,0,3,,,,,,,,,,,,,,,,,,,,,,,,,,,,,,,,,,,,,,,,,,,,,,,,,,,,,,,,,,,,,,,247.87293156400028,None,247.87293156400028,None,247.87293156400028,None,g,1,1.5877705579996473,249.40628904999994,None,249.40628904999994,None,249.40628904999994,None,251.0562927030005,None,251.0562927030005,None,251.0562927030005,None,251.0562927030005,None,,,,,,,,,,,,,,,,,,,,,,,,,,,,,,,,,,,,,,,,,,,,001,31,2020_Jan_30_1053,spring_faces,3.2.3,60.01700173634375,
condition files/Stage0c_1.xlsx,0c,alpha,phi,h,"['h', 'g']","['Chess', 'Go']","[-0.15, 0.5]","[0.15, 0.5]",1,1,0,14,14,14,0,1,1,1,,,,,,,,,,,,,,,,,,,,,,,,,,,,,,,,,,,,,,,,,,,,,,,,,,,,,,,,,,,,,,,253.03963567600022,None,253.03963567600022,None,253.03963567600022,None,h,1,0.837102354000308,254.57294089300012,None,254.57294089300012,None,254.57294089300012,None,255.47293804400033,None,255.47293804400033,None,255.47293804400033,None,255.47293804400033,None,,,,,,,,,,,,,,,,,,,,,,,,,,,,,,,,,,,,,,,,,,,,001,31,2020_Jan_30_1053,spring_faces,3.2.3,60.01700173634375,
condition files/Stage0c_1.xlsx,0c,theta,alpha,h,"['h', 'g']","['Chess', 'Go']","[-0.15, 0.5]","[0.15, 0.5]",1,1,0,14,14,14,0,2,2,0,,,,,,,,,,,,,,,,,,,,,,,,,,,,,,,,,,,,,,,,,,,,,,,,,,,,,,,,,,,,,,,257.4563389720006,None,257.4563389720006,None,257.4563389720006,None,h,1,1.205489044999922,258.9725672550003,None,258.9725672550003,None,258.9725672550003,None,260.23963973100035,None,260.23963973100035,None,260.23963973100035,None,260.23963973100035,None,,,,,,,,,,,,,,,,,,,,,,,,,,,,,,,,,,,,,,,,,,,,001,31,2020_Jan_30_1053,spring_faces,3.2.3,60.01700173634375,
condition files/Stage0c_1.xlsx,0c,beta,theta,g,"['h', 'g']","['Chess', 'Go']","[-0.15, 0.5]","[0.15, 0.5]",1,1,0,14,14,14,0,3,3,2,,,,,,,,,,,,,,,,,,,,,,,,,,,,,,,,,,,,,,,,,,,,,,,,,,,,,,,,,,,,,,,262.22297476600033,None,262.22297476600033,None,262.22297476600033,None,g,1,0.9818206489999284,263.75629346999995,None,263.75629346999995,None,263.75629346999995,None,264.7896083610003,None,264.7896083610003,None,264.7896083610003,None,264.7896083610003,None,,,,,,,,,,,,,,,,,,,,,,,,,,,,,,,,,,,,,,,,,,,,001,31,2020_Jan_30_1053,spring_faces,3.2.3,60.01700173634375,
condition files/Stage0c_2.xlsx,0c,beta,phi,g,"['h', 'g']","['Chess', 'Go']","[-0.15, 0.5]","[0.15, 0.5]",1,1,0,15,15,15,0,0,0,3,,,,,,,,,,,,,,,,,,,,,,,,,,,,,,,,,,,,,,,,,,,,,,,,,,,,,,,,,,,,,,,266.7896570940002,None,266.7896570940002,None,266.7896570940002,None,h,0,0.8471572539992849,268.322981542,None,268.322981542,None,268.322981542,None,269.2229572740007,None,269.2229572740007,None,269.2229572740007,None,269.2229572740007,None,,,,,,,,,,,,,,,,,,,,,,,,,,,,,,,,,,,,,,,,,,,,001,31,2020_Jan_30_1053,spring_faces,3.2.3,60.01700173634375,
condition files/Stage0c_2.xlsx,0c,theta,beta,g,"['h', 'g']","['Chess', 'Go']","[-0.15, 0.5]","[0.15, 0.5]",1,1,0,15,15,15,0,1,1,2,,,,,,,,,,,,,,,,,,,,,,,,,,,,,,,,,,,,,,,,,,,,,,,,,,,,,,,,,,,,,,,271.20630496800004,None,271.20630496800004,None,271.20630496800004,None,g,1,1.2624256729995977,272.7395745880003,None,272.7395745880003,None,272.7395745880003,None,274.0563149560003,None,274.0563149560003,None,274.0563149560003,None,274.0563149560003,None,,,,,,,,,,,,,,,,,,,,,,,,,,,,,,,,,,,,,,,,,,,,001,31,2020_Jan_30_1053,spring_faces,3.2.3,60.01700173634375,
condition files/Stage0c_2.xlsx,0c,alpha,theta,h,"['h', 'g']","['Chess', 'Go']","[-0.15, 0.5]","[0.15, 0.5]",1,1,0,15,15,15,0,2,2,0,,,,,,,,,,,,,,,,,,,,,,,,,,,,,,,,,,,,,,,,,,,,,,,,,,,,,,,,,,,,,,,276.0562714759999,None,276.0562714759999,None,276.0562714759999,None,h,1,1.5011560579996512,277.57285354800024,None,277.57285354800024,None,277.57285354800024,None,279.1396071449999,None,279.1396071449999,None,279.1396071449999,None,279.1396071449999,None,,,,,,,,,,,,,,,,,,,,,,,,,,,,,,,,,,,,,,,,,,,,001,31,2020_Jan_30_1053,spring_faces,3.2.3,60.01700173634375,
condition files/Stage0c_2.xlsx,0c,phi,alpha,h,"['h', 'g']","['Chess', 'Go']","[-0.15, 0.5]","[0.15, 0.5]",1,1,0,15,15,15,0,3,3,1,,,,,,,,,,,,,,,,,,,,,,,,,,,,,,,,,,,,,,,,,,,,,,,,,,,,,,,,,,,,,,,281.1229129860003,None,281.1229129860003,None,281.1229129860003,None,h,1,1.6344874119995438,282.63949155299997,None,282.63949155299997,None,282.63949155299997,None,284.3395671690005,None,284.3395671690005,None,284.3395671690005,None,284.3395671690005,None,,,,,,,,,,,,,,,,,,,,,,,,,,,,,,,,,,,,,,,,,,,,001,31,2020_Jan_30_1053,spring_faces,3.2.3,60.01700173634375,
condition files/Stage0c_1.xlsx,0c,beta,theta,g,"['h', 'g']","['Chess', 'Go']","[-0.15, 0.5]","[0.15, 0.5]",1,1,0,16,16,16,0,0,0,2,,,,,,,,,,,,,,,,,,,,,,,,,,,,,,,,,,,,,,,,,,,,,,,,,,,,,,,,,,,,,,,286.33956311400016,None,286.33956311400016,None,286.33956311400016,None,g,1,1.4251333889997113,287.8729570430005,None,287.8729570430005,None,287.8729570430005,None,289.35629809000056,None,289.35629809000056,None,289.35629809000056,None,289.35629809000056,None,,,,,,,,,,,,,,,,,,,,,,,,,,,,,,,,,,,,,,,,,,,,001,31,2020_Jan_30_1053,spring_faces,3.2.3,60.01700173634375,
condition files/Stage0c_1.xlsx,0c,theta,alpha,h,"['h', 'g']","['Chess', 'Go']","[-0.15, 0.5]","[0.15, 0.5]",1,1,0,16,16,16,0,1,1,0,,,,,,,,,,,,,,,,,,,,,,,,,,,,,,,,,,,,,,,,,,,,,,,,,,,,,,,,,,,,,,,291.339604883,None,291.339604883,None,291.339604883,None,h,1,0.6010298609999154,292.8729532690004,None,292.8729532690004,None,292.8729532690004,None,293.5395104520003,None,293.5395104520003,None,293.5395104520003,None,293.5395104520003,None,,,,,,,,,,,,,,,,,,,,,,,,,,,,,,,,,,,,,,,,,,,,001,31,2020_Jan_30_1053,spring_faces,3.2.3,60.01700173634375,
condition files/Stage0c_1.xlsx,0c,alpha,phi,h,"['h', 'g']","['Chess', 'Go']","[-0.15, 0.5]","[0.15, 0.5]",1,1,0,16,16,16,0,2,2,1,,,,,,,,,,,,,,,,,,,,,,,,,,,,,,,,,,,,,,,,,,,,,,,,,,,,,,,,,,,,,,,295.52287550800065,None,295.52287550800065,None,295.52287550800065,None,h,1,2.546562296999582,297.0395347520007,None,297.0395347520007,None,297.0395347520007,None,299.63962620000075,None,299.63962620000075,None,299.63962620000075,None,299.63962620000075,None,,,,,,,,,,,,,,,,,,,,,,,,,,,,,,,,,,,,,,,,,,,,001,31,2020_Jan_30_1053,spring_faces,3.2.3,60.01700173634375,
condition files/Stage0c_1.xlsx,0c,phi,beta,g,"['h', 'g']","['Chess', 'Go']","[-0.15, 0.5]","[0.15, 0.5]",1,1,0,16,16,16,0,3,3,3,,,,,,,,,,,,,,,,,,,,,,,,,,,,,,,,,,,,,,,,,,,,,,,,,,,,,,,,,,,,,,,301.62295937100043,None,301.62295937100043,None,301.62295937100043,None,g,1,2.829835417999675,303.1562777580002,None,303.1562777580002,None,303.1562777580002,None,306.0396353850001,None,306.0396353850001,None,306.0396353850001,None,306.0396353850001,None,,,,,,,,,,,,,,,,,,,,,,,,,,,,,,,,,,,,,,,,,,,,001,31,2020_Jan_30_1053,spring_faces,3.2.3,60.01700173634375,
condition files/Stage0c_2.xlsx,0c,phi,alpha,h,"['h', 'g']","['Chess', 'Go']","[-0.15, 0.5]","[0.15, 0.5]",1,1,0,17,17,17,0,0,0,1,,,,,,,,,,,,,,,,,,,,,,,,,,,,,,,,,,,,,,,,,,,,,,,,,,,,,,,,,,,,,,,308.03960652500064,None,308.03960652500064,None,308.03960652500064,None,h,1,1.1492151930006003,309.5729447040003,None,309.5729447040003,None,309.5729447040003,None,310.7728816640001,None,310.7728816640001,None,310.7728816640001,None,310.7728816640001,None,,,,,,,,,,,,,,,,,,,,,,,,,,,,,,,,,,,,,,,,,,,,001,31,2020_Jan_30_1053,spring_faces,3.2.3,60.01700173634375,
condition files/Stage0c_2.xlsx,0c,beta,phi,g,"['h', 'g']","['Chess', 'Go']","[-0.15, 0.5]","[0.15, 0.5]",1,1,0,17,17,17,0,1,1,3,,,,,,,,,,,,,,,,,,,,,,,,,,,,,,,,,,,,,,,,,,,,,,,,,,,,,,,,,,,,,,,312.7562997040004,None,312.7562997040004,None,312.7562997040004,None,g,1,0.9444414339996001,314.2896346289999,None,314.2896346289999,None,314.2896346289999,None,315.28965929600054,None,315.28965929600054,None,315.28965929600054,None,315.28965929600054,None,,,,,,,,,,,,,,,,,,,,,,,,,,,,,,,,,,,,,,,,,,,,001,31,2020_Jan_30_1053,spring_faces,3.2.3,60.01700173634375,
condition files/Stage0c_2.xlsx,0c,alpha,theta,h,"['h', 'g']","['Chess', 'Go']","[-0.15, 0.5]","[0.15, 0.5]",1,1,0,17,17,17,0,2,2,0,,,,,,,,,,,,,,,,,,,,,,,,,,,,,,,,,,,,,,,,,,,,,,,,,,,,,,,,,,,,,,,317.2729658620001,None,317.2729658620001,None,317.2729658620001,None,h,1,3.6926098180001645,318.7894812120003,None,318.7894812120003,None,318.7894812120003,None,322.53963844100053,None,322.53963844100053,None,322.53963844100053,None,322.53963844100053,None,,,,,,,,,,,,,,,,,,,,,,,,,,,,,,,,,,,,,,,,,,,,001,31,2020_Jan_30_1053,spring_faces,3.2.3,60.01700173634375,
condition files/Stage0c_2.xlsx,0c,theta,beta,g,"['h', 'g']","['Chess', 'Go']","[-0.15, 0.5]","[0.15, 0.5]",1,1,0,17,17,17,0,3,3,2,,,,,,,,,,,,,,,,,,,,,,,,,,,,,,,,,,,,,,,,,,,,,,,,,,,,,,,,,,,,,,,324.52295166600015,None,324.52295166600015,None,324.52295166600015,None,g,1,0.6345355900002687,326.03946212200026,None,326.03946212200026,None,326.03946212200026,None,326.7395476970005,None,326.7395476970005,None,326.7395476970005,None,326.7395476970005,None,,,,,,,,,,,,,,,,,,,,,,,,,,,,,,,,,,,,,,,,,,,,001,31,2020_Jan_30_1053,spring_faces,3.2.3,60.01700173634375,
,,,,,,,,,,,,,,,,,,,,,,,,,,,,,,,,,,,,,,,,,,,,,,,,,,,,,,,,,,,,,,,,,,,,,,,,,,,,,,,,,,,,,,,,,,,,,,,,,,,,,,,,328.7229638839999,None,space,2.1517259120000745,333.70627409200006,None,,,,,,,,,,,,,,,,,,,,,,,,,,,,,,,,,,,,,,001,31,2020_Jan_30_1053,spring_faces,3.2.3,60.01700173634375,
condition files/Stage1_1.xlsx,,B3,T3,c,"['c', 'm']","['Clue', 'Monopoly']","[-0.15, 0.5]","[0.15, 0.5]",1,1,,,,,,,,,0,0,0,0,0,0,0,4,,,,,,,,,,,,,,,,,,,,,,,,,,,,,,,,,,,,,,,,,,,,,,,,,,,,,,,335.9229106490002,None,335.9229106490002,None,335.9229106490002,None,c,1,1.8100731640006416,337.45602349100045,None,337.45602349100045,None,337.45602349100045,None,339.33951913000055,None,339.33951913000055,None,339.33951913000055,None,339.33951913000055,None,,,,,,,333.70627409200006,None,,,,,,,,,,,,,,,,,,,,,,,,,,,,,,,,,,,,001,31,2020_Jan_30_1053,spring_faces,3.2.3,60.01700173634375,
condition files/Stage1_1.xlsx,,T1,B1,c,"['c', 'm']","['Clue', 'Monopoly']","[-0.15, 0.5]","[0.15, 0.5]",1,1,,,,,,,,,0,0,0,0,0,1,1,0,,,,,,,,,,,,,,,,,,,,,,,,,,,,,,,,,,,,,,,,,,,,,,,,,,,,,,,341.3063036330004,None,341.3063036330004,None,341.3063036330004,None,c,1,2.202464971000154,342.8395644729999,None,342.8395644729999,None,342.8395644729999,None,345.1062770110002,None,345.1062770110002,None,345.1062770110002,None,345.1062770110002,None,,,,,,,,,,,,,,,,,,,,,,,,,,,,,,,,,,,,,,,,,,,,001,31,2020_Jan_30_1053,spring_faces,3.2.3,60.01700173634375,
condition files/Stage1_1.xlsx,,B1,T2,c,"['c', 'm']","['Clue', 'Monopoly']","[-0.15, 0.5]","[0.15, 0.5]",1,1,,,,,,,,,0,0,0,0,0,2,2,1,,,,,,,,,,,,,,,,,,,,,,,,,,,,,,,,,,,,,,,,,,,,,,,,,,,,,,,347.0896782480004,None,347.0896782480004,None,347.0896782480004,None,c,1,0.9471539780006424,348.6229597090005,None,348.6229597090005,None,348.6229597090005,None,349.6229618269999,None,349.6229618269999,None,349.6229618269999,None,349.6229618269999,None,,,,,,,,,,,,,,,,,,,,,,,,,,,,,,,,,,,,,,,,,,,,001,31,2020_Jan_30_1053,spring_faces,3.2.3,60.01700173634375,
condition files/Stage1_1.xlsx,,T4,B3,m,"['c', 'm']","['Clue', 'Monopoly']","[-0.15, 0.5]","[0.15, 0.5]",1,1,,,,,,,,,0,0,0,0,0,3,3,6,,,,,,,,,,,,,,,,,,,,,,,,,,,,,,,,,,,,,,,,,,,,,,,,,,,,,,,351.6063148780004,None,351.6063148780004,None,351.6063148780004,None,c,0,1.2464949730001535,353.1395530560003,None,353.1395530560003,None,353.1395530560003,None,354.45628425199993,None,354.45628425199993,None,354.45628425199993,None,354.45628425199993,None,,,,,,,,,,,,,,,,,,,,,,,,,,,,,,,,,,,,,,,,,,,,001,31,2020_Jan_30_1053,spring_faces,3.2.3,60.01700173634375,
condition files/Stage1_1.xlsx,,B2,T1,m,"['c', 'm']","['Clue', 'Monopoly']","[-0.15, 0.5]","[0.15, 0.5]",1,1,,,,,,,,,0,0,0,0,0,4,4,2,,,,,,,,,,,,,,,,,,,,,,,,,,,,,,,,,,,,,,,,,,,,,,,,,,,,,,,356.42295687500064,None,356.42295687500064,None,356.42295687500064,None,c,0,2.9897055879991967,357.9562643140007,None,357.9562643140007,None,357.9562643140007,None,361.02287442800025,None,361.02287442800025,None,361.02287442800025,None,361.02287442800025,None,,,,,,,,,,,,,,,,,,,,,,,,,,,,,,,,,,,,,,,,,,,,001,31,2020_Jan_30_1053,spring_faces,3.2.3,60.01700173634375,
condition files/Stage1_1.xlsx,,T2,B2,m,"['c', 'm']","['Clue', 'Monopoly']","[-0.15, 0.5]","[0.15, 0.5]",1,1,,,,,,,,,0,0,0,0,0,5,5,3,,,,,,,,,,,,,,,,,,,,,,,,,,,,,,,,,,,,,,,,,,,,,,,,,,,,,,,362.989657999,None,362.989657999,None,362.989657999,None,m,1,1.3350130650005667,364.52297033600007,None,364.52297033600007,None,364.52297033600007,None,365.9229189510006,None,365.9229189510006,None,365.9229189510006,None,365.9229189510006,None,,,,,,,,,,,,,,,,,,,,,,,,,,,,,,,,,,,,,,,,,,,,001,31,2020_Jan_30_1053,spring_faces,3.2.3,60.01700173634375,
condition files/Stage1_1.xlsx,,B4,T4,m,"['c', 'm']","['Clue', 'Monopoly']","[-0.15, 0.5]","[0.15, 0.5]",1,1,,,,,,,,,0,0,0,0,0,6,6,7,,,,,,,,,,,,,,,,,,,,,,,,,,,,,,,,,,,,,,,,,,,,,,,,,,,,,,,367.906274422,None,367.906274422,None,367.906274422,None,m,1,1.9063352999992276,369.4396254410003,None,369.4396254410003,None,369.4396254410003,None,371.42296258700026,None,371.42296258700026,None,371.42296258700026,None,371.42296258700026,None,,,,,,,,,,,,,,,,,,,,,,,,,,,,,,,,,,,,,,,,,,,,001,31,2020_Jan_30_1053,spring_faces,3.2.3,60.01700173634375,
condition files/Stage1_1.xlsx,,T3,B4,c,"['c', 'm']","['Clue', 'Monopoly']","[-0.15, 0.5]","[0.15, 0.5]",1,1,,,,,,,,,0,0,0,0,0,7,7,5,,,,,,,,,,,,,,,,,,,,,,,,,,,,,,,,,,,,,,,,,,,,,,,,,,,,,,,373.3896350240002,None,373.3896350240002,None,373.3896350240002,None,m,0,2.1031197740003336,374.92293810200044,None,374.92293810200044,None,374.92293810200044,None,377.10623130300064,None,377.10623130300064,None,377.10623130300064,None,377.10623130300064,None,,,,,,,,,,,,,,,,,,,,,,,,,,,,,,,,,,,,,,,,,,,,001,31,2020_Jan_30_1053,spring_faces,3.2.3,60.01700173634375,
condition files/Stage1_2.xlsx,,T3,B3,c,"['c', 'm']","['Clue', 'Monopoly']","[-0.15, 0.5]","[0.15, 0.5]",1,1,,,,,,,,,0,1,1,1,0,0,0,4,,,,,,,,,,,,,,,,,,,,,,,,,,,,,,,,,,,,,,,,,,,,,,,,,,,,,,,379.08960111099987,None,379.08960111099987,None,379.08960111099987,None,c,1,1.8751445390007575,380.6229471530005,None,380.6229471530005,None,380.6229471530005,None,382.5562522320006,None,382.5562522320006,None,382.5562522320006,None,382.5562522320006,None,,,,,,,,,,,,,,,,,,,,,,,,,,,,,,,,,,,,,,,,,,,,001,31,2020_Jan_30_1053,spring_faces,3.2.3,60.01700173634375,
condition files/Stage1_2.xlsx,,T1,B2,m,"['c', 'm']","['Clue', 'Monopoly']","[-0.15, 0.5]","[0.15, 0.5]",1,1,,,,,,,,,0,1,1,1,0,1,1,2,,,,,,,,,,,,,,,,,,,,,,,,,,,,,,,,,,,,,,,,,,,,,,,,,,,,,,,384.5395580760005,None,384.5395580760005,None,384.5395580760005,None,m,1,1.4170151719999922,386.0729672140005,None,386.0729672140005,None,386.0729672140005,None,387.5729405150005,None,387.5729405150005,None,387.5729405150005,None,387.5729405150005,None,,,,,,,,,,,,,,,,,,,,,,,,,,,,,,,,,,,,,,,,,,,,001,31,2020_Jan_30_1053,spring_faces,3.2.3,60.01700173634375,
condition files/Stage1_2.xlsx,,B3,T4,m,"['c', 'm']","['Clue', 'Monopoly']","[-0.15, 0.5]","[0.15, 0.5]",1,1,,,,,,,,,0,1,1,1,0,2,2,6,,,,,,,,,,,,,,,,,,,,,,,,,,,,,,,,,,,,,,,,,,,,,,,,,,,,,,,389.5395397450002,None,389.5395397450002,None,389.5395397450002,None,c,0,0.9451939119999224,391.07288963300016,None,391.07288963300016,None,391.07288963300016,None,392.07294764500057,None,392.07294764500057,None,392.07294764500057,None,392.07294764500057,None,,,,,,,,,,,,,,,,,,,,,,,,,,,,,,,,,,,,,,,,,,,,001,31,2020_Jan_30_1053,spring_faces,3.2.3,60.01700173634375,
condition files/Stage1_2.xlsx,,T4,B4,m,"['c', 'm']","['Clue', 'Monopoly']","[-0.15, 0.5]","[0.15, 0.5]",1,1,,,,,,,,,0,1,1,1,0,3,3,7,,,,,,,,,,,,,,,,,,,,,,,,,,,,,,,,,,,,,,,,,,,,,,,,,,,,,,,394.0563210670007,None,394.0563210670007,None,394.0563210670007,None,m,1,1.3405193309999959,395.5895709460001,None,395.5895709460001,None,395.5895709460001,None,397.0063072900002,None,397.0063072900002,None,397.0063072900002,None,397.0063072900002,None,,,,,,,,,,,,,,,,,,,,,,,,,,,,,,,,,,,,,,,,,,,,001,31,2020_Jan_30_1053,spring_faces,3.2.3,60.01700173634375,
condition files/Stage1_2.xlsx,,B1,T1,c,"['c', 'm']","['Clue', 'Monopoly']","[-0.15, 0.5]","[0.15, 0.5]",1,1,,,,,,,,,0,1,1,1,0,4,4,0,,,,,,,,,,,,,,,,,,,,,,,,,,,,,,,,,,,,,,,,,,,,,,,,,,,,,,,398.97299357800057,None,398.97299357800057,None,398.97299357800057,None,c,1,1.2396554839997407,400.5063032779999,None,400.5063032779999,None,400.5063032779999,None,401.82298272200023,None,401.82298272200023,None,401.82298272200023,None,401.82298272200023,None,,,,,,,,,,,,,,,,,,,,,,,,,,,,,,,,,,,,,,,,,,,,001,31,2020_Jan_30_1053,spring_faces,3.2.3,60.01700173634375,
condition files/Stage1_2.xlsx,,B2,T2,m,"['c', 'm']","['Clue', 'Monopoly']","[-0.15, 0.5]","[0.15, 0.5]",1,1,,,,,,,,,0,1,1,1,0,5,5,3,,,,,,,,,,,,,,,,,,,,,,,,,,,,,,,,,,,,,,,,,,,,,,,,,,,,,,,403.78964249300043,None,403.78964249300043,None,403.78964249300043,None,m,1,1.2710763409995707,405.3229706080001,None,405.3229706080001,None,405.3229706080001,None,406.67297764900013,None,406.67297764900013,None,406.67297764900013,None,406.67297764900013,None,,,,,,,,,,,,,,,,,,,,,,,,,,,,,,,,,,,,,,,,,,,,001,31,2020_Jan_30_1053,spring_faces,3.2.3,60.01700173634375,
condition files/Stage1_2.xlsx,,T2,B1,c,"['c', 'm']","['Clue', 'Monopoly']","[-0.15, 0.5]","[0.15, 0.5]",1,1,,,,,,,,,0,1,1,1,0,6,6,1,,,,,,,,,,,,,,,,,,,,,,,,,,,,,,,,,,,,,,,,,,,,,,,,,,,,,,,408.63966651900046,None,408.63966651900046,None,408.63966651900046,None,m,0,1.3010160299991185,410.17296887200064,None,410.17296887200064,None,410.17296887200064,None,411.5562482710002,None,411.5562482710002,None,411.5562482710002,None,411.5562482710002,None,,,,,,,,,,,,,,,,,,,,,,,,,,,,,,,,,,,,,,,,,,,,001,31,2020_Jan_30_1053,spring_faces,3.2.3,60.01700173634375,
condition files/Stage1_2.xlsx,,B4,T3,c,"['c', 'm']","['Clue', 'Monopoly']","[-0.15, 0.5]","[0.15, 0.5]",1,1,,,,,,,,,0,1,1,1,0,7,7,5,,,,,,,,,,,,,,,,,,,,,,,,,,,,,,,,,,,,,,,,,,,,,,,,,,,,,,,413.5228850600006,None,413.5228850600006,None,413.5228850600006,None,m,0,1.4737388759995156,415.05632287700064,None,415.05632287700064,None,415.05632287700064,None,416.6063171700007,None,416.6063171700007,None,416.6063171700007,None,416.6063171700007,None,,,,,,,,,,,,,,,,,,,,,,,,,,,,,,,,,,,,,,,,,,,,001,31,2020_Jan_30_1053,spring_faces,3.2.3,60.01700173634375,
condition files/Stage1_1.xlsx,,B4,T4,m,"['c', 'm']","['Clue', 'Monopoly']","[-0.15, 0.5]","[0.15, 0.5]",1,1,,,,,,,,,0,2,2,2,0,0,0,7,,,,,,,,,,,,,,,,,,,,,,,,,,,,,,,,,,,,,,,,,,,,,,,,,,,,,,,418.58955769300064,None,418.58955769300064,None,418.58955769300064,None,c,0,1.0471658710002885,420.1229826630006,None,420.1229826630006,None,420.1229826630006,None,421.23954845700064,None,421.23954845700064,None,421.23954845700064,None,421.23954845700064,None,,,,,,,,,,,,,,,,,,,,,,,,,,,,,,,,,,,,,,,,,,,,001,31,2020_Jan_30_1053,spring_faces,3.2.3,60.01700173634375,
condition files/Stage1_1.xlsx,,T4,B3,m,"['c', 'm']","['Clue', 'Monopoly']","[-0.15, 0.5]","[0.15, 0.5]",1,1,,,,,,,,,0,2,2,2,0,1,1,6,,,,,,,,,,,,,,,,,,,,,,,,,,,,,,,,,,,,,,,,,,,,,,,,,,,,,,,423.20631599900025,None,423.20631599900025,None,423.20631599900025,None,c,0,1.726527836999594,424.7395663970001,None,424.7395663970001,None,424.7395663970001,None,426.5228556259999,None,426.5228556259999,None,426.5228556259999,None,426.5228556259999,None,,,,,,,,,,,,,,,,,,,,,,,,,,,,,,,,,,,,,,,,,,,,001,31,2020_Jan_30_1053,spring_faces,3.2.3,60.01700173634375,
condition files/Stage1_1.xlsx,,B3,T3,c,"['c', 'm']","['Clue', 'Monopoly']","[-0.15, 0.5]","[0.15, 0.5]",1,1,,,,,,,,,0,2,2,2,0,2,2,4,,,,,,,,,,,,,,,,,,,,,,,,,,,,,,,,,,,,,,,,,,,,,,,,,,,,,,,428.5063201440007,None,428.5063201440007,None,428.5063201440007,None,c,1,1.8184352289999879,430.03956646200004,None,430.03956646200004,None,430.03956646200004,None,431.93954650700016,None,431.93954650700016,None,431.93954650700016,None,431.93954650700016,None,,,,,,,,,,,,,,,,,,,,,,,,,,,,,,,,,,,,,,,,,,,,001,31,2020_Jan_30_1053,spring_faces,3.2.3,60.01700173634375,
condition files/Stage1_1.xlsx,,T2,B2,m,"['c', 'm']","['Clue', 'Monopoly']","[-0.15, 0.5]","[0.15, 0.5]",1,1,,,,,,,,,0,2,2,2,0,3,3,3,,,,,,,,,,,,,,,,,,,,,,,,,,,,,,,,,,,,,,,,,,,,,,,,,,,,,,,433.90630445900024,None,433.90630445900024,None,433.90630445900024,None,m,1,1.2985308060005991,435.439614119,None,435.439614119,None,435.439614119,None,436.806313393,None,436.806313393,None,436.806313393,None,436.806313393,None,,,,,,,,,,,,,,,,,,,,,,,,,,,,,,,,,,,,,,,,,,,,001,31,2020_Jan_30_1053,spring_faces,3.2.3,60.01700173634375,
condition files/Stage1_1.xlsx,,T1,B1,c,"['c', 'm']","['Clue', 'Monopoly']","[-0.15, 0.5]","[0.15, 0.5]",1,1,,,,,,,,,0,2,2,2,0,4,4,0,,,,,,,,,,,,,,,,,,,,,,,,,,,,,,,,,,,,,,,,,,,,,,,,,,,,,,,438.7729087300004,None,438.7729087300004,None,438.7729087300004,None,c,1,1.0717069169995739,440.3063529830006,None,440.3063529830006,None,440.3063529830006,None,441.45623097299995,None,441.45623097299995,None,441.45623097299995,None,441.45623097299995,None,,,,,,,,,,,,,,,,,,,,,,,,,,,,,,,,,,,,,,,,,,,,001,31,2020_Jan_30_1053,spring_faces,3.2.3,60.01700173634375,
condition files/Stage1_1.xlsx,,B2,T1,m,"['c', 'm']","['Clue', 'Monopoly']","[-0.15, 0.5]","[0.15, 0.5]",1,1,,,,,,,,,0,2,2,2,0,5,5,2,,,,,,,,,,,,,,,,,,,,,,,,,,,,,,,,,,,,,,,,,,,,,,,,,,,,,,,443.42299924000054,None,443.42299924000054,None,443.42299924000054,None,m,1,2.6456805279995024,444.95630943500055,None,444.95630943500055,None,444.95630943500055,None,447.672984414,None,447.672984414,None,447.672984414,None,447.672984414,None,,,,,,,,,,,,,,,,,,,,,,,,,,,,,,,,,,,,,,,,,,,,001,31,2020_Jan_30_1053,spring_faces,3.2.3,60.01700173634375,
condition files/Stage1_1.xlsx,,T3,B4,c,"['c', 'm']","['Clue', 'Monopoly']","[-0.15, 0.5]","[0.15, 0.5]",1,1,,,,,,,,,0,2,2,2,0,6,6,5,,,,,,,,,,,,,,,,,,,,,,,,,,,,,,,,,,,,,,,,,,,,,,,,,,,,,,,449.6396691480004,None,449.6396691480004,None,449.6396691480004,None,c,1,1.9170777689996612,451.17291433800074,None,451.17291433800074,None,451.17291433800074,None,453.17281416700007,None,453.17281416700007,None,453.17281416700007,None,453.17281416700007,None,,,,,,,,,,,,,,,,,,,,,,,,,,,,,,,,,,,,,,,,,,,,001,31,2020_Jan_30_1053,spring_faces,3.2.3,60.01700173634375,
condition files/Stage1_1.xlsx,,B1,T2,c,"['c', 'm']","['Clue', 'Monopoly']","[-0.15, 0.5]","[0.15, 0.5]",1,1,,,,,,,,,0,2,2,2,0,7,7,1,,,,,,,,,,,,,,,,,,,,,,,,,,,,,,,,,,,,,,,,,,,,,,,,,,,,,,,455.1396441810002,None,455.1396441810002,None,455.1396441810002,None,c,1,1.0730100770006175,456.6729625140006,None,456.6729625140006,None,456.6729625140006,None,457.80623094900056,None,457.80623094900056,None,457.80623094900056,None,457.80623094900056,None,,,,,,,,,,,,,,,,,,,,,,,,,,,,,,,,,,,,,,,,,,,,001,31,2020_Jan_30_1053,spring_faces,3.2.3,60.01700173634375,
condition files/Stage1_2.xlsx,,B2,T2,m,"['c', 'm']","['Clue', 'Monopoly']","[-0.15, 0.5]","[0.15, 0.5]",1,1,,,,,,,,,0,3,3,3,0,0,0,3,,,,,,,,,,,,,,,,,,,,,,,,,,,,,,,,,,,,,,,,,,,,,,,,,,,,,,,459.80630740500055,None,459.80630740500055,None,459.80630740500055,None,c,0,0.7264419590001125,461.3396499800001,None,461.3396499800001,None,461.3396499800001,None,462.13961388700045,None,462.13961388700045,None,462.13961388700045,None,462.13961388700045,None,,,,,,,,,,,,,,,,,,,,,,,,,,,,,,,,,,,,,,,,,,,,001,31,2020_Jan_30_1053,spring_faces,3.2.3,60.01700173634375,
condition files/Stage1_2.xlsx,,B4,T3,c,"['c', 'm']","['Clue', 'Monopoly']","[-0.15, 0.5]","[0.15, 0.5]",1,1,,,,,,,,,0,3,3,3,0,1,1,5,,,,,,,,,,,,,,,,,,,,,,,,,,,,,,,,,,,,,,,,,,,,,,,,,,,,,,,464.1063086869999,None,464.1063086869999,None,464.1063086869999,None,c,1,1.1784745730001305,465.63960576800037,None,465.63960576800037,None,465.63960576800037,None,466.8896445959999,None,466.8896445959999,None,466.8896445959999,None,466.8896445959999,None,,,,,,,,,,,,,,,,,,,,,,,,,,,,,,,,,,,,,,,,,,,,001,31,2020_Jan_30_1053,spring_faces,3.2.3,60.01700173634375,
condition files/Stage1_2.xlsx,,B3,T4,m,"['c', 'm']","['Clue', 'Monopoly']","[-0.15, 0.5]","[0.15, 0.5]",1,1,,,,,,,,,0,3,3,3,0,2,2,6,,,,,,,,,,,,,,,,,,,,,,,,,,,,,,,,,,,,,,,,,,,,,,,,,,,,,,,468.8562918280004,None,468.8562918280004,None,468.8562918280004,None,c,0,0.844530923000093,470.38956639000025,None,470.38956639000025,None,470.38956639000025,None,471.3062940790005,None,471.3062940790005,None,471.3062940790005,None,471.3062940790005,None,,,,,,,,,,,,,,,,,,,,,,,,,,,,,,,,,,,,,,,,,,,,001,31,2020_Jan_30_1053,spring_faces,3.2.3,60.01700173634375,
condition files/Stage1_2.xlsx,,T4,B4,m,"['c', 'm']","['Clue', 'Monopoly']","[-0.15, 0.5]","[0.15, 0.5]",1,1,,,,,,,,,0,3,3,3,0,3,3,7,,,,,,,,,,,,,,,,,,,,,,,,,,,,,,,,,,,,,,,,,,,,,,,,,,,,,,,473.27297538200037,None,473.27297538200037,None,473.27297538200037,None,c,0,1.1318644350003524,474.8062748560005,None,474.8062748560005,None,474.8062748560005,None,475.98956115300007,None,475.98956115300007,None,475.98956115300007,None,475.98956115300007,None,,,,,,,,,,,,,,,,,,,,,,,,,,,,,,,,,,,,,,,,,,,,001,31,2020_Jan_30_1053,spring_faces,3.2.3,60.01700173634375,
condition files/Stage1_2.xlsx,,T2,B1,c,"['c', 'm']","['Clue', 'Monopoly']","[-0.15, 0.5]","[0.15, 0.5]",1,1,,,,,,,,,0,3,3,3,0,4,4,1,,,,,,,,,,,,,,,,,,,,,,,,,,,,,,,,,,,,,,,,,,,,,,,,,,,,,,,477.972888196,None,477.972888196,None,477.972888196,None,m,0,0.44784853200053476,479.50626320100037,None,479.50626320100037,None,479.50626320100037,None,480.0229286110007,None,480.0229286110007,None,480.0229286110007,None,480.0229286110007,None,,,,,,,,,,,,,,,,,,,,,,,,,,,,,,,,,,,,,,,,,,,,001,31,2020_Jan_30_1053,spring_faces,3.2.3,60.01700173634375,
condition files/Stage1_2.xlsx,,B1,T1,c,"['c', 'm']","['Clue', 'Monopoly']","[-0.15, 0.5]","[0.15, 0.5]",1,1,,,,,,,,,0,3,3,3,0,5,5,0,,,,,,,,,,,,,,,,,,,,,,,,,,,,,,,,,,,,,,,,,,,,,,,,,,,,,,,481.9895560770001,None,481.9895560770001,None,481.9895560770001,None,c,1,0.6871708059998127,483.5228978060004,None,483.5228978060004,None,483.5228978060004,None,484.2729416150005,None,484.2729416150005,None,484.2729416150005,None,484.2729416150005,None,,,,,,,,,,,,,,,,,,,,,,,,,,,,,,,,,,,,,,,,,,,,001,31,2020_Jan_30_1053,spring_faces,3.2.3,60.01700173634375,
condition files/Stage1_2.xlsx,,T1,B2,m,"['c', 'm']","['Clue', 'Monopoly']","[-0.15, 0.5]","[0.15, 0.5]",1,1,,,,,,,,,0,3,3,3,0,6,6,2,,,,,,,,,,,,,,,,,,,,,,,,,,,,,,,,,,,,,,,,,,,,,,,,,,,,,,,486.25627767900005,None,486.25627767900005,None,486.25627767900005,None,m,1,1.3804822129995955,487.7896147420006,None,487.7896147420006,None,487.7896147420006,None,489.2396312560004,None,489.2396312560004,None,489.2396312560004,None,489.2396312560004,None,,,,,,,,,,,,,,,,,,,,,,,,,,,,,,,,,,,,,,,,,,,,001,31,2020_Jan_30_1053,spring_faces,3.2.3,60.01700173634375,
condition files/Stage1_2.xlsx,,T3,B3,c,"['c', 'm']","['Clue', 'Monopoly']","[-0.15, 0.5]","[0.15, 0.5]",1,1,,,,,,,,,0,3,3,3,0,7,7,4,,,,,,,,,,,,,,,,,,,,,,,,,,,,,,,,,,,,,,,,,,,,,,,,,,,,,,,491.2063231729999,None,491.2063231729999,None,491.2063231729999,None,c,1,0.9265316080000048,492.7395689620007,None,492.7395689620007,None,492.7395689620007,None,493.73965275499995,None,493.73965275499995,None,493.73965275499995,None,493.73965275499995,None,,,,,,,,,,,,,,,,,,,,,,,,,,,,,,,,,,,,,,,,,,,,001,31,2020_Jan_30_1053,spring_faces,3.2.3,60.01700173634375,
condition files/Stage1_1.xlsx,,B1,T2,c,"['c', 'm']","['Clue', 'Monopoly']","[-0.15, 0.5]","[0.15, 0.5]",1,1,,,,,,,,,0,4,4,4,0,0,0,1,,,,,,,,,,,,,,,,,,,,,,,,,,,,,,,,,,,,,,,,,,,,,,,,,,,,,,,495.7229648880002,None,495.7229648880002,None,495.7229648880002,None,c,1,0.9057125250001263,497.2563023780003,None,497.2563023780003,None,497.2563023780003,None,498.2229749490007,None,498.2229749490007,None,498.2229749490007,None,498.2229749490007,None,,,,,,,,,,,,,,,,,,,,,,,,,,,,,,,,,,,,,,,,,,,,001,31,2020_Jan_30_1053,spring_faces,3.2.3,60.01700173634375,
condition files/Stage1_1.xlsx,,B3,T3,c,"['c', 'm']","['Clue', 'Monopoly']","[-0.15, 0.5]","[0.15, 0.5]",1,1,,,,,,,,,0,4,4,4,0,1,1,4,,,,,,,,,,,,,,,,,,,,,,,,,,,,,,,,,,,,,,,,,,,,,,,,,,,,,,,500.2063140190003,None,500.2063140190003,None,500.2063140190003,None,m,0,2.3264633670005423,501.7396208300006,None,501.7396208300006,None,501.7396208300006,None,504.1229737950007,None,504.1229737950007,None,504.1229737950007,None,504.1229737950007,None,,,,,,,,,,,,,,,,,,,,,,,,,,,,,,,,,,,,,,,,,,,,001,31,2020_Jan_30_1053,spring_faces,3.2.3,60.01700173634375,
condition files/Stage1_1.xlsx,,T2,B2,m,"['c', 'm']","['Clue', 'Monopoly']","[-0.15, 0.5]","[0.15, 0.5]",1,1,,,,,,,,,0,4,4,4,0,2,2,3,,,,,,,,,,,,,,,,,,,,,,,,,,,,,,,,,,,,,,,,,,,,,,,,,,,,,,,506.1063064910004,None,506.1063064910004,None,506.1063064910004,None,c,0,1.0024310570006492,507.6396075290004,None,507.6396075290004,None,507.6396075290004,None,508.7228611770006,None,508.7228611770006,None,508.7228611770006,None,508.7228611770006,None,,,,,,,,,,,,,,,,,,,,,,,,,,,,,,,,,,,,,,,,,,,,001,31,2020_Jan_30_1053,spring_faces,3.2.3,60.01700173634375,
condition files/Stage1_1.xlsx,,B2,T1,m,"['c', 'm']","['Clue', 'Monopoly']","[-0.15, 0.5]","[0.15, 0.5]",1,1,,,,,,,,,0,4,4,4,0,3,3,2,,,,,,,,,,,,,,,,,,,,,,,,,,,,,,,,,,,,,,,,,,,,,,,,,,,,,,,510.68964383799994,None,510.68964383799994,None,510.68964383799994,None,c,0,0.9631664630005616,512.2229480760006,None,512.2229480760006,None,512.2229480760006,None,513.2395260020003,None,513.2395260020003,None,513.2395260020003,None,513.2395260020003,None,,,,,,,,,,,,,,,,,,,,,,,,,,,,,,,,,,,,,,,,,,,,001,31,2020_Jan_30_1053,spring_faces,3.2.3,60.01700173634375,
condition files/Stage1_1.xlsx,,T4,B3,m,"['c', 'm']","['Clue', 'Monopoly']","[-0.15, 0.5]","[0.15, 0.5]",1,1,,,,,,,,,0,4,4,4,0,4,4,6,,,,,,,,,,,,,,,,,,,,,,,,,,,,,,,,,,,,,,,,,,,,,,,,,,,,,,,515.2229414070007,None,515.2229414070007,None,515.2229414070007,None,c,0,0.9418657500000336,516.7562240920006,None,516.7562240920006,None,516.7562240920006,None,517.7562948630002,None,517.7562948630002,None,517.7562948630002,None,517.7562948630002,None,,,,,,,,,,,,,,,,,,,,,,,,,,,,,,,,,,,,,,,,,,,,001,31,2020_Jan_30_1053,spring_faces,3.2.3,60.01700173634375,
condition files/Stage1_1.xlsx,,T1,B1,c,"['c', 'm']","['Clue', 'Monopoly']","[-0.15, 0.5]","[0.15, 0.5]",1,1,,,,,,,,,0,4,4,4,0,5,5,0,,,,,,,,,,,,,,,,,,,,,,,,,,,,,,,,,,,,,,,,,,,,,,,,,,,,,,,519.7396245720001,None,519.7396245720001,None,519.7396245720001,None,c,1,1.2091167210001004,521.2729714810002,None,521.2729714810002,None,521.2729714810002,None,522.5563025470001,None,522.5563025470001,None,522.5563025470001,None,522.5563025470001,None,,,,,,,,,,,,,,,,,,,,,,,,,,,,,,,,,,,,,,,,,,,,001,31,2020_Jan_30_1053,spring_faces,3.2.3,60.01700173634375,
condition files/Stage1_1.xlsx,,T3,B4,c,"['c', 'm']","['Clue', 'Monopoly']","[-0.15, 0.5]","[0.15, 0.5]",1,1,,,,,,,,,0,4,4,4,0,6,6,5,,,,,,,,,,,,,,,,,,,,,,,,,,,,,,,,,,,,,,,,,,,,,,,,,,,,,,,524.5230012729999,None,524.5230012729999,None,524.5230012729999,None,m,0,0.8737585270000636,526.0562995979999,None,526.0562995979999,None,526.0562995979999,None,526.9896588800002,None,526.9896588800002,None,526.9896588800002,None,526.9896588800002,None,,,,,,,,,,,,,,,,,,,,,,,,,,,,,,,,,,,,,,,,,,,,001,31,2020_Jan_30_1053,spring_faces,3.2.3,60.01700173634375,
condition files/Stage1_1.xlsx,,B4,T4,m,"['c', 'm']","['Clue', 'Monopoly']","[-0.15, 0.5]","[0.15, 0.5]",1,1,,,,,,,,,0,4,4,4,0,7,7,7,,,,,,,,,,,,,,,,,,,,,,,,,,,,,,,,,,,,,,,,,,,,,,,,,,,,,,,528.9729389970007,None,528.9729389970007,None,528.9729389970007,None,c,0,1.079833728000267,530.5062855850001,None,530.5062855850001,None,530.5062855850001,None,531.6562784090002,None,531.6562784090002,None,531.6562784090002,None,531.6562784090002,None,,,,,,,,,,,,,,,,,,,,,,,,,,,,,,,,,,,,,,,,,,,,001,31,2020_Jan_30_1053,spring_faces,3.2.3,60.01700173634375,
condition files/Stage1_2.xlsx,,T2,B1,c,"['c', 'm']","['Clue', 'Monopoly']","[-0.15, 0.5]","[0.15, 0.5]",1,1,,,,,,,,,0,5,5,5,0,0,0,1,,,,,,,,,,,,,,,,,,,,,,,,,,,,,,,,,,,,,,,,,,,,,,,,,,,,,,,533.6396105270005,None,533.6396105270005,None,533.6396105270005,None,m,0,1.7572022779995677,535.1728997190003,None,535.1728997190003,None,535.1728997190003,None,537.0063202970005,None,537.0063202970005,None,537.0063202970005,None,537.0063202970005,None,,,,,,,,,,,,,,,,,,,,,,,,,,,,,,,,,,,,,,,,,,,,001,31,2020_Jan_30_1053,spring_faces,3.2.3,60.01700173634375,
condition files/Stage1_2.xlsx,,T1,B2,m,"['c', 'm']","['Clue', 'Monopoly']","[-0.15, 0.5]","[0.15, 0.5]",1,1,,,,,,,,,0,5,5,5,0,1,1,2,,,,,,,,,,,,,,,,,,,,,,,,,,,,,,,,,,,,,,,,,,,,,,,,,,,,,,,538.9729901440005,None,538.9729901440005,None,538.9729901440005,None,c,0,4.423783864000143,540.5062943010007,None,540.5062943010007,None,540.5062943010007,None,545.0062853550007,None,545.0062853550007,None,545.0062853550007,None,545.0062853550007,None,,,,,,,,,,,,,,,,,,,,,,,,,,,,,,,,,,,,,,,,,,,,001,31,2020_Jan_30_1053,spring_faces,3.2.3,60.01700173634375,
condition files/Stage1_2.xlsx,,T4,B4,m,"['c', 'm']","['Clue', 'Monopoly']","[-0.15, 0.5]","[0.15, 0.5]",1,1,,,,,,,,,0,5,5,5,0,2,2,7,,,,,,,,,,,,,,,,,,,,,,,,,,,,,,,,,,,,,,,,,,,,,,,,,,,,,,,546.9729516870002,None,546.9729516870002,None,546.9729516870002,None,c,0,0.8717508890003955,548.5062972420001,None,548.5062972420001,None,548.5062972420001,None,549.4393057780007,None,549.4393057780007,None,549.4393057780007,None,549.4393057780007,None,,,,,,,,,,,,,,,,,,,,,,,,,,,,,,,,,,,,,,,,,,,,001,31,2020_Jan_30_1053,spring_faces,3.2.3,60.01700173634375,
condition files/Stage1_2.xlsx,,B4,T3,c,"['c', 'm']","['Clue', 'Monopoly']","[-0.15, 0.5]","[0.15, 0.5]",1,1,,,,,,,,,0,5,5,5,0,3,3,5,,,,,,,,,,,,,,,,,,,,,,,,,,,,,,,,,,,,,,,,,,,,,,,,,,,,,,,551.4229671180001,None,551.4229671180001,None,551.4229671180001,None,m,0,0.46974774000045727,552.9563052630001,None,552.9563052630001,None,552.9563052630001,None,553.5063425100006,None,553.5063425100006,None,553.5063425100006,None,553.5063425100006,None,,,,,,,,,,,,,,,,,,,,,,,,,,,,,,,,,,,,,,,,,,,,001,31,2020_Jan_30_1053,spring_faces,3.2.3,60.01700173634375,
condition files/Stage1_2.xlsx,,B3,T4,m,"['c', 'm']","['Clue', 'Monopoly']","[-0.15, 0.5]","[0.15, 0.5]",1,1,,,,,,,,,0,5,5,5,0,4,4,6,,,,,,,,,,,,,,,,,,,,,,,,,,,,,,,,,,,,,,,,,,,,,,,,,,,,,,,555.4729938750006,None,555.4729938750006,None,555.4729938750006,None,c,0,1.011779094999838,557.0063033650003,None,557.0063033650003,None,557.0063033650003,None,558.0896576330006,None,558.0896576330006,None,558.0896576330006,None,558.0896576330006,None,,,,,,,,,,,,,,,,,,,,,,,,,,,,,,,,,,,,,,,,,,,,001,31,2020_Jan_30_1053,spring_faces,3.2.3,60.01700173634375,
condition files/Stage1_2.xlsx,,T3,B3,c,"['c', 'm']","['Clue', 'Monopoly']","[-0.15, 0.5]","[0.15, 0.5]",1,1,,,,,,,,,0,5,5,5,0,5,5,4,,,,,,,,,,,,,,,,,,,,,,,,,,,,,,,,,,,,,,,,,,,,,,,,,,,,,,,560.0563334839999,None,560.0563334839999,None,560.0563334839999,None,c,1,0.42852189999939583,561.589580891,None,561.589580891,None,561.589580891,None,562.0896175980006,None,562.0896175980006,None,562.0896175980006,None,562.0896175980006,None,,,,,,,,,,,,,,,,,,,,,,,,,,,,,,,,,,,,,,,,,,,,001,31,2020_Jan_30_1053,spring_faces,3.2.3,60.01700173634375,
condition files/Stage1_2.xlsx,,B1,T1,c,"['c', 'm']","['Clue', 'Monopoly']","[-0.15, 0.5]","[0.15, 0.5]",1,1,,,,,,,,,0,5,5,5,0,6,6,0,,,,,,,,,,,,,,,,,,,,,,,,,,,,,,,,,,,,,,,,,,,,,,,,,,,,,,,564.0563118700002,None,564.0563118700002,None,564.0563118700002,None,m,0,0.5404592619997857,565.5896160010006,None,565.5896160010006,None,565.5896160010006,None,566.2062832280008,None,566.2062832280008,None,566.2062832280008,None,566.2062832280008,None,,,,,,,,,,,,,,,,,,,,,,,,,,,,,,,,,,,,,,,,,,,,001,31,2020_Jan_30_1053,spring_faces,3.2.3,60.01700173634375,
condition files/Stage1_2.xlsx,,B2,T2,m,"['c', 'm']","['Clue', 'Monopoly']","[-0.15, 0.5]","[0.15, 0.5]",1,1,,,,,,,,,0,5,5,5,0,7,7,3,,,,,,,,,,,,,,,,,,,,,,,,,,,,,,,,,,,,,,,,,,,,,,,,,,,,,,,568.172954437,None,568.172954437,None,568.172954437,None,c,0,0.15169982399947912,569.7062870930004,None,569.7062870930004,None,569.7062870930004,None,569.9395898700004,None,569.9395898700004,None,569.9395898700004,None,569.9395898700004,None,,,,,,,,,,,,,,,,,,,,,,,,,,,,,,,,,,,,,,,,,,,,001,31,2020_Jan_30_1053,spring_faces,3.2.3,60.01700173634375,
condition files/Stage1_1.xlsx,,T4,B3,m,"['c', 'm']","['Clue', 'Monopoly']","[-0.15, 0.5]","[0.15, 0.5]",1,1,,,,,,,,,0,6,6,6,0,0,0,6,,,,,,,,,,,,,,,,,,,,,,,,,,,,,,,,,,,,,,,,,,,,,,,,,,,,,,,571.9229168810007,None,571.9229168810007,None,571.9229168810007,None,m,1,1.5697543120004411,573.456308158,None,573.456308158,None,573.456308158,None,575.0894747680004,None,575.0894747680004,None,575.0894747680004,None,575.0894747680004,None,,,,,,,,,,,,,,,,,,,,,,,,,,,,,,,,,,,,,,,,,,,,001,31,2020_Jan_30_1053,spring_faces,3.2.3,60.01700173634375,
condition files/Stage1_1.xlsx,,B3,T3,c,"['c', 'm']","['Clue', 'Monopoly']","[-0.15, 0.5]","[0.15, 0.5]",1,1,,,,,,,,,0,6,6,6,0,1,1,4,,,,,,,,,,,,,,,,,,,,,,,,,,,,,,,,,,,,,,,,,,,,,,,,,,,,,,,577.0729550570004,None,577.0729550570004,None,577.0729550570004,None,c,1,1.0917126109998208,578.6062831990002,None,578.6062831990002,None,578.6062831990002,None,579.7729889430002,None,579.7729889430002,None,579.7729889430002,None,579.7729889430002,None,,,,,,,,,,,,,,,,,,,,,,,,,,,,,,,,,,,,,,,,,,,,001,31,2020_Jan_30_1053,spring_faces,3.2.3,60.01700173634375,
condition files/Stage1_1.xlsx,,B1,T2,c,"['c', 'm']","['Clue', 'Monopoly']","[-0.15, 0.5]","[0.15, 0.5]",1,1,,,,,,,,,0,6,6,6,0,2,2,1,,,,,,,,,,,,,,,,,,,,,,,,,,,,,,,,,,,,,,,,,,,,,,,,,,,,,,,581.7396668010006,None,581.7396668010006,None,581.7396668010006,None,c,1,1.2729861880006865,583.2729701369999,None,583.2729701369999,None,583.2729701369999,None,584.6229931470007,None,584.6229931470007,None,584.6229931470007,None,584.6229931470007,None,,,,,,,,,,,,,,,,,,,,,,,,,,,,,,,,,,,,,,,,,,,,001,31,2020_Jan_30_1053,spring_faces,3.2.3,60.01700173634375,
condition files/Stage1_1.xlsx,,T2,B2,m,"['c', 'm']","['Clue', 'Monopoly']","[-0.15, 0.5]","[0.15, 0.5]",1,1,,,,,,,,,0,6,6,6,0,3,3,3,,,,,,,,,,,,,,,,,,,,,,,,,,,,,,,,,,,,,,,,,,,,,,,,,,,,,,,586.589668093,None,586.589668093,None,586.589668093,None,c,0,0.7431125550001525,588.122973216,None,588.122973216,None,588.122973216,None,588.9396435710005,None,588.9396435710005,None,588.9396435710005,None,588.9396435710005,None,,,,,,,,,,,,,,,,,,,,,,,,,,,,,,,,,,,,,,,,,,,,001,31,2020_Jan_30_1053,spring_faces,3.2.3,60.01700173634375,
condition files/Stage1_1.xlsx,,T3,B4,c,"['c', 'm']","['Clue', 'Monopoly']","[-0.15, 0.5]","[0.15, 0.5]",1,1,,,,,,,,,0,6,6,6,0,4,4,5,,,,,,,,,,,,,,,,,,,,,,,,,,,,,,,,,,,,,,,,,,,,,,,,,,,,,,,590.9063182150003,None,590.9063182150003,None,590.9063182150003,None,m,0,0.7464298240001881,592.439684424,None,592.439684424,None,592.439684424,None,593.2563025570007,None,593.2563025570007,None,593.2563025570007,None,593.2563025570007,None,,,,,,,,,,,,,,,,,,,,,,,,,,,,,,,,,,,,,,,,,,,,001,31,2020_Jan_30_1053,spring_faces,3.2.3,60.01700173634375,
condition files/Stage1_1.xlsx,,T1,B1,c,"['c', 'm']","['Clue', 'Monopoly']","[-0.15, 0.5]","[0.15, 0.5]",1,1,,,,,,,,,0,6,6,6,0,5,5,0,,,,,,,,,,,,,,,,,,,,,,,,,,,,,,,,,,,,,,,,,,,,,,,,,,,,,,,595.2229495990005,None,595.2229495990005,None,595.2229495990005,None,c,1,0.4778255499995794,596.7562746860003,None,596.7562746860003,None,596.7562746860003,None,597.2896364130002,None,597.2896364130002,None,597.2896364130002,None,597.2896364130002,None,,,,,,,,,,,,,,,,,,,,,,,,,,,,,,,,,,,,,,,,,,,,001,31,2020_Jan_30_1053,spring_faces,3.2.3,60.01700173634375,
condition files/Stage1_1.xlsx,,B2,T1,m,"['c', 'm']","['Clue', 'Monopoly']","[-0.15, 0.5]","[0.15, 0.5]",1,1,,,,,,,,,0,6,6,6,0,6,6,2,,,,,,,,,,,,,,,,,,,,,,,,,,,,,,,,,,,,,,,,,,,,,,,,,,,,,,,599.2729810430001,None,599.2729810430001,None,599.2729810430001,None,c,0,0.8918084599999929,600.806282599,None,600.806282599,None,600.806282599,None,601.7729667080002,None,601.7729667080002,None,601.7729667080002,None,601.7729667080002,None,,,,,,,,,,,,,,,,,,,,,,,,,,,,,,,,,,,,,,,,,,,,001,31,2020_Jan_30_1053,spring_faces,3.2.3,60.01700173634375,
condition files/Stage1_1.xlsx,,B4,T4,m,"['c', 'm']","['Clue', 'Monopoly']","[-0.15, 0.5]","[0.15, 0.5]",1,1,,,,,,,,,0,6,6,6,0,7,7,7,,,,,,,,,,,,,,,,,,,,,,,,,,,,,,,,,,,,,,,,,,,,,,,,,,,,,,,603.739634474,None,603.739634474,None,603.739634474,None,m,1,0.34442602600029204,605.2896597899999,None,605.2896597899999,None,605.2896597899999,None,605.7063113130007,None,605.7063113130007,None,605.7063113130007,None,605.7063113130007,None,,,,,,,,,,,,,,,,,,,,,,,,,,,,,,,,,,,,,,,,,,,,001,31,2020_Jan_30_1053,spring_faces,3.2.3,60.01700173634375,
condition files/Stage1_2.xlsx,,T2,B1,c,"['c', 'm']","['Clue', 'Monopoly']","[-0.15, 0.5]","[0.15, 0.5]",1,1,,,,,,,,,0,7,7,7,0,0,0,1,,,,,,,,,,,,,,,,,,,,,,,,,,,,,,,,,,,,,,,,,,,,,,,,,,,,,,,607.6896387249999,None,607.6896387249999,None,607.6896387249999,None,m,0,1.3711002829995778,609.2229693720001,None,609.2229693720001,None,609.2229693720001,None,610.6729783999999,None,610.6729783999999,None,610.6729783999999,None,610.6729783999999,None,,,,,,,,,,,,,,,,,,,,,,,,,,,,,,,,,,,,,,,,,,,,001,31,2020_Jan_30_1053,spring_faces,3.2.3,60.01700173634375,
condition files/Stage1_2.xlsx,,T3,B3,c,"['c', 'm']","['Clue', 'Monopoly']","[-0.15, 0.5]","[0.15, 0.5]",1,1,,,,,,,,,0,7,7,7,0,1,1,4,,,,,,,,,,,,,,,,,,,,,,,,,,,,,,,,,,,,,,,,,,,,,,,,,,,,,,,612.6396639720006,None,612.6396639720006,None,612.6396639720006,None,c,1,2.2930797659992095,614.1729885670002,None,614.1729885670002,None,614.1729885670002,None,616.5229557100001,None,616.5229557100001,None,616.5229557100001,None,616.5229557100001,None,,,,,,,,,,,,,,,,,,,,,,,,,,,,,,,,,,,,,,,,,,,,001,31,2020_Jan_30_1053,spring_faces,3.2.3,60.01700173634375,
condition files/Stage1_2.xlsx,,B1,T1,c,"['c', 'm']","['Clue', 'Monopoly']","[-0.15, 0.5]","[0.15, 0.5]",1,1,,,,,,,,,0,7,7,7,0,2,2,0,,,,,,,,,,,,,,,,,,,,,,,,,,,,,,,,,,,,,,,,,,,,,,,,,,,,,,,618.5063310690002,None,618.5063310690002,None,618.5063310690002,None,m,0,1.0985997230000066,620.0395926290003,None,620.0395926290003,None,620.0395926290003,None,621.206277884,None,621.206277884,None,621.206277884,None,621.206277884,None,,,,,,,,,,,,,,,,,,,,,,,,,,,,,,,,,,,,,,,,,,,,001,31,2020_Jan_30_1053,spring_faces,3.2.3,60.01700173634375,
condition files/Stage1_2.xlsx,,T1,B2,m,"['c', 'm']","['Clue', 'Monopoly']","[-0.15, 0.5]","[0.15, 0.5]",1,1,,,,,,,,,0,7,7,7,0,3,3,2,,,,,,,,,,,,,,,,,,,,,,,,,,,,,,,,,,,,,,,,,,,,,,,,,,,,,,,623.1728942630007,None,623.1728942630007,None,623.1728942630007,None,c,0,0.7998156639996523,624.7062982440002,None,624.7062982440002,None,624.7062982440002,None,625.5729795249999,None,625.5729795249999,None,625.5729795249999,None,625.5729795249999,None,,,,,,,,,,,,,,,,,,,,,,,,,,,,,,,,,,,,,,,,,,,,001,31,2020_Jan_30_1053,spring_faces,3.2.3,60.01700173634375,
condition files/Stage1_2.xlsx,,B2,T2,m,"['c', 'm']","['Clue', 'Monopoly']","[-0.15, 0.5]","[0.15, 0.5]",1,1,,,,,,,,,0,7,7,7,0,4,4,3,,,,,,,,,,,,,,,,,,,,,,,,,,,,,,,,,,,,,,,,,,,,,,,,,,,,,,,627.53956965,None,627.53956965,None,627.53956965,None,c,0,2.0491715379994275,629.07297578,None,629.07297578,None,629.07297578,None,631.1729228950007,None,631.1729228950007,None,631.1729228950007,None,631.1729228950007,None,,,,,,,,,,,,,,,,,,,,,,,,,,,,,,,,,,,,,,,,,,,,001,31,2020_Jan_30_1053,spring_faces,3.2.3,60.01700173634375,
condition files/Stage1_2.xlsx,,B3,T4,m,"['c', 'm']","['Clue', 'Monopoly']","[-0.15, 0.5]","[0.15, 0.5]",1,1,,,,,,,,,0,7,7,7,0,5,5,6,,,,,,,,,,,,,,,,,,,,,,,,,,,,,,,,,,,,,,,,,,,,,,,,,,,,,,,633.156312264,None,633.156312264,None,633.156312264,None,c,0,1.7444658690001233,634.6896192210006,None,634.6896192210006,None,634.6896192210006,None,636.4896291280002,None,636.4896291280002,None,636.4896291280002,None,636.4896291280002,None,,,,,,,,,,,,,,,,,,,,,,,,,,,,,,,,,,,,,,,,,,,,001,31,2020_Jan_30_1053,spring_faces,3.2.3,60.01700173634375,
condition files/Stage1_2.xlsx,,B4,T3,c,"['c', 'm']","['Clue', 'Monopoly']","[-0.15, 0.5]","[0.15, 0.5]",1,1,,,,,,,,,0,7,7,7,0,6,6,5,,,,,,,,,,,,,,,,,,,,,,,,,,,,,,,,,,,,,,,,,,,,,,,,,,,,,,,638.4730366780004,None,638.4730366780004,None,638.4730366780004,None,m,0,0.6037507110004299,640.0063064180003,None,640.0063064180003,None,640.0063064180003,None,640.6896440690007,None,640.6896440690007,None,640.6896440690007,None,640.6896440690007,None,,,,,,,,,,,,,,,,,,,,,,,,,,,,,,,,,,,,,,,,,,,,001,31,2020_Jan_30_1053,spring_faces,3.2.3,60.01700173634375,
condition files/Stage1_2.xlsx,,T4,B4,m,"['c', 'm']","['Clue', 'Monopoly']","[-0.15, 0.5]","[0.15, 0.5]",1,1,,,,,,,,,0,7,7,7,0,7,7,7,,,,,,,,,,,,,,,,,,,,,,,,,,,,,,,,,,,,,,,,,,,,,,,,,,,,,,,642.6563263220005,None,642.6563263220005,None,642.6563263220005,None,c,0,1.780486655000459,644.1896494820003,None,644.1896494820003,None,644.1896494820003,None,646.0396597640001,None,646.0396597640001,None,646.0396597640001,None,646.0396597640001,None,,,,,,,,,,,,,,,,,,,,,,,,,,,,,,,,,,,,,,,,,,,,001,31,2020_Jan_30_1053,spring_faces,3.2.3,60.01700173634375,
condition files/Stage1_1.xlsx,,B1,T2,c,"['c', 'm']","['Clue', 'Monopoly']","[-0.15, 0.5]","[0.15, 0.5]",1,1,,,,,,,,,0,8,8,8,0,0,0,1,,,,,,,,,,,,,,,,,,,,,,,,,,,,,,,,,,,,,,,,,,,,,,,,,,,,,,,648.0229582760003,None,648.0229582760003,None,648.0229582760003,None,m,0,2.077819162999731,649.5562809400008,None,649.5562809400008,None,649.5562809400008,None,651.7063056590005,None,651.7063056590005,None,651.7063056590005,None,651.7063056590005,None,,,,,,,,,,,,,,,,,,,,,,,,,,,,,,,,,,,,,,,,,,,,001,31,2020_Jan_30_1053,spring_faces,3.2.3,60.01700173634375,
condition files/Stage1_1.xlsx,,T2,B2,m,"['c', 'm']","['Clue', 'Monopoly']","[-0.15, 0.5]","[0.15, 0.5]",1,1,,,,,,,,,0,8,8,8,0,1,1,3,,,,,,,,,,,,,,,,,,,,,,,,,,,,,,,,,,,,,,,,,,,,,,,,,,,,,,,653.6729994870002,None,653.6729994870002,None,653.6729994870002,None,m,1,2.3157276729998557,655.2063032169999,None,655.2063032169999,None,655.2063032169999,None,657.589653602,None,657.589653602,None,657.589653602,None,657.589653602,None,,,,,,,,,,,,,,,,,,,,,,,,,,,,,,,,,,,,,,,,,,,,001,31,2020_Jan_30_1053,spring_faces,3.2.3,60.01700173634375,
condition files/Stage1_1.xlsx,,T1,B1,c,"['c', 'm']","['Clue', 'Monopoly']","[-0.15, 0.5]","[0.15, 0.5]",1,1,,,,,,,,,0,8,8,8,0,2,2,0,,,,,,,,,,,,,,,,,,,,,,,,,,,,,,,,,,,,,,,,,,,,,,,,,,,,,,,659.5563380610001,None,659.5563380610001,None,659.5563380610001,None,c,1,3.536401883000508,661.0896387330004,None,661.0896387330004,None,661.0896387330004,None,664.7063054310001,None,664.7063054310001,None,664.7063054310001,None,664.7063054310001,None,,,,,,,,,,,,,,,,,,,,,,,,,,,,,,,,,,,,,,,,,,,,001,31,2020_Jan_30_1053,spring_faces,3.2.3,60.01700173634375,
condition files/Stage1_1.xlsx,,B2,T1,m,"['c', 'm']","['Clue', 'Monopoly']","[-0.15, 0.5]","[0.15, 0.5]",1,1,,,,,,,,,0,8,8,8,0,3,3,2,,,,,,,,,,,,,,,,,,,,,,,,,,,,,,,,,,,,,,,,,,,,,,,,,,,,,,,666.6729738869999,None,666.6729738869999,None,666.6729738869999,None,m,1,1.1077723729995341,668.2063133760003,None,668.2063133760003,None,668.2063133760003,None,669.3896361110001,None,669.3896361110001,None,669.3896361110001,None,669.3896361110001,None,,,,,,,,,,,,,,,,,,,,,,,,,,,,,,,,,,,,,,,,,,,,001,31,2020_Jan_30_1053,spring_faces,3.2.3,60.01700173634375,
condition files/Stage1_1.xlsx,,B4,T4,m,"['c', 'm']","['Clue', 'Monopoly']","[-0.15, 0.5]","[0.15, 0.5]",1,1,,,,,,,,,0,8,8,8,0,4,4,7,,,,,,,,,,,,,,,,,,,,,,,,,,,,,,,,,,,,,,,,,,,,,,,,,,,,,,,671.3563321310003,None,671.3563321310003,None,671.3563321310003,None,m,1,5.944490237000537,672.8896148580006,None,672.8896148580006,None,672.8896148580006,None,678.9063089190004,None,678.9063089190004,None,678.9063089190004,None,678.9063089190004,None,,,,,,,,,,,,,,,,,,,,,,,,,,,,,,,,,,,,,,,,,,,,001,31,2020_Jan_30_1053,spring_faces,3.2.3,60.01700173634375,
condition files/Stage1_1.xlsx,,B3,T3,c,"['c', 'm']","['Clue', 'Monopoly']","[-0.15, 0.5]","[0.15, 0.5]",1,1,,,,,,,,,0,8,8,8,0,5,5,4,,,,,,,,,,,,,,,,,,,,,,,,,,,,,,,,,,,,,,,,,,,,,,,,,,,,,,,680.8730015470001,None,680.8730015470001,None,680.8730015470001,None,m,0,2.5396565470000496,682.4063124970007,None,682.4063124970007,None,682.4063124970007,None,685.0229724159999,None,685.0229724159999,None,685.0229724159999,None,685.0229724159999,None,,,,,,,,,,,,,,,,,,,,,,,,,,,,,,,,,,,,,,,,,,,,001,31,2020_Jan_30_1053,spring_faces,3.2.3,60.01700173634375,
condition files/Stage1_1.xlsx,,T4,B3,m,"['c', 'm']","['Clue', 'Monopoly']","[-0.15, 0.5]","[0.15, 0.5]",1,1,,,,,,,,,0,8,8,8,0,6,6,6,,,,,,,,,,,,,,,,,,,,,,,,,,,,,,,,,,,,,,,,,,,,,,,,,,,,,,,686.9896726790003,None,686.9896726790003,None,686.9896726790003,None,c,0,1.2550926750000144,688.5229674490001,None,688.5229674490001,None,688.5229674490001,None,689.8562888750002,None,689.8562888750002,None,689.8562888750002,None,689.8562888750002,None,,,,,,,,,,,,,,,,,,,,,,,,,,,,,,,,,,,,,,,,,,,,001,31,2020_Jan_30_1053,spring_faces,3.2.3,60.01700173634375,
condition files/Stage1_1.xlsx,,T3,B4,c,"['c', 'm']","['Clue', 'Monopoly']","[-0.15, 0.5]","[0.15, 0.5]",1,1,,,,,,,,,0,8,8,8,0,7,7,5,,,,,,,,,,,,,,,,,,,,,,,,,,,,,,,,,,,,,,,,,,,,,,,,,,,,,,,691.8229775750006,None,691.8229775750006,None,691.8229775750006,None,c,1,1.0297465910007304,693.3562935059999,None,693.3562935059999,None,693.3562935059999,None,694.4563159120007,None,694.4563159120007,None,694.4563159120007,None,694.4563159120007,None,,,,,,,,,,,,,,,,,,,,,,,,,,,,,,,,,,,,,,,,,,,,001,31,2020_Jan_30_1053,spring_faces,3.2.3,60.01700173634375,
condition files/Stage1_2.xlsx,,T1,B2,m,"['c', 'm']","['Clue', 'Monopoly']","[-0.15, 0.5]","[0.15, 0.5]",1,1,,,,,,,,,0,9,9,9,0,0,0,2,,,,,,,,,,,,,,,,,,,,,,,,,,,,,,,,,,,,,,,,,,,,,,,,,,,,,,,696.4396381930001,None,696.4396381930001,None,696.4396381930001,None,m,1,1.2611930559996836,697.972920016,None,697.972920016,None,697.972920016,None,699.3062899249999,None,699.3062899249999,None,699.3062899249999,None,699.3062899249999,None,,,,,,,,,,,,,,,,,,,,,,,,,,,,,,,,,,,,,,,,,,,,001,31,2020_Jan_30_1053,spring_faces,3.2.3,60.01700173634375,
condition files/Stage1_2.xlsx,,B2,T2,m,"['c', 'm']","['Clue', 'Monopoly']","[-0.15, 0.5]","[0.15, 0.5]",1,1,,,,,,,,,0,9,9,9,0,1,1,3,,,,,,,,,,,,,,,,,,,,,,,,,,,,,,,,,,,,,,,,,,,,,,,,,,,,,,,701.2729875250006,None,701.2729875250006,None,701.2729875250006,None,m,1,2.1718980100004046,702.806171616,None,702.806171616,None,702.806171616,None,705.0562895860003,None,705.0562895860003,None,705.0562895860003,None,705.0562895860003,None,,,,,,,,,,,,,,,,,,,,,,,,,,,,,,,,,,,,,,,,,,,,001,31,2020_Jan_30_1053,spring_faces,3.2.3,60.01700173634375,
condition files/Stage1_2.xlsx,,B3,T4,m,"['c', 'm']","['Clue', 'Monopoly']","[-0.15, 0.5]","[0.15, 0.5]",1,1,,,,,,,,,0,9,9,9,0,2,2,6,,,,,,,,,,,,,,,,,,,,,,,,,,,,,,,,,,,,,,,,,,,,,,,,,,,,,,,707.0229815160001,None,707.0229815160001,None,707.0229815160001,None,c,0,4.0697538730000815,708.5562867070003,None,708.5562867070003,None,708.5562867070003,None,712.6896159980006,None,712.6896159980006,None,712.6896159980006,None,712.6896159980006,None,,,,,,,,,,,,,,,,,,,,,,,,,,,,,,,,,,,,,,,,,,,,001,31,2020_Jan_30_1053,spring_faces,3.2.3,60.01700173634375,
condition files/Stage1_2.xlsx,,T2,B1,c,"['c', 'm']","['Clue', 'Monopoly']","[-0.15, 0.5]","[0.15, 0.5]",1,1,,,,,,,,,0,9,9,9,0,3,3,1,,,,,,,,,,,,,,,,,,,,,,,,,,,,,,,,,,,,,,,,,,,,,,,,,,,,,,,714.6729839610007,None,714.6729839610007,None,714.6729839610007,None,c,1,1.475784346999717,716.2063048600003,None,716.2063048600003,None,716.2063048600003,None,717.7563062859999,None,717.7563062859999,None,717.7563062859999,None,717.7563062859999,None,,,,,,,,,,,,,,,,,,,,,,,,,,,,,,,,,,,,,,,,,,,,001,31,2020_Jan_30_1053,spring_faces,3.2.3,60.01700173634375,
condition files/Stage1_2.xlsx,,T4,B4,m,"['c', 'm']","['Clue', 'Monopoly']","[-0.15, 0.5]","[0.15, 0.5]",1,1,,,,,,,,,0,9,9,9,0,4,4,7,,,,,,,,,,,,,,,,,,,,,,,,,,,,,,,,,,,,,,,,,,,,,,,,,,,,,,,719.723001327,None,719.723001327,None,719.723001327,None,m,1,1.097835821999979,721.2563038650005,None,721.2563038650005,None,721.2563038650005,None,722.4227927840002,None,722.4227927840002,None,722.4227927840002,None,722.4227927840002,None,,,,,,,,,,,,,,,,,,,,,,,,,,,,,,,,,,,,,,,,,,,,001,31,2020_Jan_30_1053,spring_faces,3.2.3,60.01700173634375,
condition files/Stage1_2.xlsx,,T3,B3,c,"['c', 'm']","['Clue', 'Monopoly']","[-0.15, 0.5]","[0.15, 0.5]",1,1,,,,,,,,,0,9,9,9,0,5,5,4,,,,,,,,,,,,,,,,,,,,,,,,,,,,,,,,,,,,,,,,,,,,,,,,,,,,,,,724.3895575639999,None,724.3895575639999,None,724.3895575639999,None,c,1,0.8152724699993996,725.9229046730006,None,725.9229046730006,None,725.9229046730006,None,726.8062887440001,None,726.8062887440001,None,726.8062887440001,None,726.8062887440001,None,,,,,,,,,,,,,,,,,,,,,,,,,,,,,,,,,,,,,,,,,,,,001,31,2020_Jan_30_1053,spring_faces,3.2.3,60.01700173634375,
condition files/Stage1_2.xlsx,,B4,T3,c,"['c', 'm']","['Clue', 'Monopoly']","[-0.15, 0.5]","[0.15, 0.5]",1,1,,,,,,,,,0,9,9,9,0,6,6,5,,,,,,,,,,,,,,,,,,,,,,,,,,,,,,,,,,,,,,,,,,,,,,,,,,,,,,,728.7728790360006,None,728.7728790360006,None,728.7728790360006,None,m,0,0.52778560599927,730.3062647030001,None,730.3062647030001,None,730.3062647030001,None,730.8896384509999,None,730.8896384509999,None,730.8896384509999,None,730.8896384509999,None,,,,,,,,,,,,,,,,,,,,,,,,,,,,,,,,,,,,,,,,,,,,001,31,2020_Jan_30_1053,spring_faces,3.2.3,60.01700173634375,
condition files/Stage1_2.xlsx,,B1,T1,c,"['c', 'm']","['Clue', 'Monopoly']","[-0.15, 0.5]","[0.15, 0.5]",1,1,,,,,,,,,0,9,9,9,0,7,7,0,,,,,,,,,,,,,,,,,,,,,,,,,,,,,,,,,,,,,,,,,,,,,,,,,,,,,,,732.8729572420007,None,732.8729572420007,None,732.8729572420007,None,c,1,0.5877568319992861,734.4063020460007,None,734.4063020460007,None,734.4063020460007,None,735.0729725480005,None,735.0729725480005,None,735.0729725480005,None,735.0729725480005,None,,,,,,,,,,,,,,,,,,,,,,,,,,,,,,,,,,,,,,,,,,,,001,31,2020_Jan_30_1053,spring_faces,3.2.3,60.01700173634375,
condition files/Stage1_1.xlsx,,B3,T3,c,"['c', 'm']","['Clue', 'Monopoly']","[-0.15, 0.5]","[0.15, 0.5]",1,1,,,,,,,,,0,10,10,10,0,0,0,4,,,,,,,,,,,,,,,,,,,,,,,,,,,,,,,,,,,,,,,,,,,,,,,,,,,,,,,737.0563172279999,None,737.0563172279999,None,737.0563172279999,None,m,0,0.756355679999615,738.5896583000003,None,738.5896583000003,None,738.5896583000003,None,739.4062652040002,None,739.4062652040002,None,739.4062652040002,None,739.4062652040002,None,,,,,,,,,,,,,,,,,,,,,,,,,,,,,,,,,,,,,,,,,,,,001,31,2020_Jan_30_1053,spring_faces,3.2.3,60.01700173634375,
condition files/Stage1_1.xlsx,,B4,T4,m,"['c', 'm']","['Clue', 'Monopoly']","[-0.15, 0.5]","[0.15, 0.5]",1,1,,,,,,,,,0,10,10,10,0,1,1,7,,,,,,,,,,,,,,,,,,,,,,,,,,,,,,,,,,,,,,,,,,,,,,,,,,,,,,,741.3896536709999,None,741.3896536709999,None,741.3896536709999,None,c,0,0.7431212689998574,742.922973531,None,742.922973531,None,742.922973531,None,743.7396621110001,None,743.7396621110001,None,743.7396621110001,None,743.7396621110001,None,,,,,,,,,,,,,,,,,,,,,,,,,,,,,,,,,,,,,,,,,,,,001,31,2020_Jan_30_1053,spring_faces,3.2.3,60.01700173634375,
condition files/Stage1_1.xlsx,,T3,B4,c,"['c', 'm']","['Clue', 'Monopoly']","[-0.15, 0.5]","[0.15, 0.5]",1,1,,,,,,,,,0,10,10,10,0,2,2,5,,,,,,,,,,,,,,,,,,,,,,,,,,,,,,,,,,,,,,,,,,,,,,,,,,,,,,,745.7063272330006,None,745.7063272330006,None,745.7063272330006,None,c,1,2.3784506020001572,747.2396369570006,None,747.2396369570006,None,747.2396369570006,None,749.6896823730003,None,749.6896823730003,None,749.6896823730003,None,749.6896823730003,None,,,,,,,,,,,,,,,,,,,,,,,,,,,,,,,,,,,,,,,,,,,,001,31,2020_Jan_30_1053,spring_faces,3.2.3,60.01700173634375,
condition files/Stage1_1.xlsx,,B1,T2,c,"['c', 'm']","['Clue', 'Monopoly']","[-0.15, 0.5]","[0.15, 0.5]",1,1,,,,,,,,,0,10,10,10,0,3,3,1,,,,,,,,,,,,,,,,,,,,,,,,,,,,,,,,,,,,,,,,,,,,,,,,,,,,,,,751.6563179960003,None,751.6563179960003,None,751.6563179960003,None,c,1,1.8204995349997262,753.1895791950001,None,753.1895791950001,None,753.1895791950001,None,755.0896339840001,None,755.0896339840001,None,755.0896339840001,None,755.0896339840001,None,,,,,,,,,,,,,,,,,,,,,,,,,,,,,,,,,,,,,,,,,,,,001,31,2020_Jan_30_1053,spring_faces,3.2.3,60.01700173634375,
condition files/Stage1_1.xlsx,,T1,B1,c,"['c', 'm']","['Clue', 'Monopoly']","[-0.15, 0.5]","[0.15, 0.5]",1,1,,,,,,,,,0,10,10,10,0,4,4,0,,,,,,,,,,,,,,,,,,,,,,,,,,,,,,,,,,,,,,,,,,,,,,,,,,,,,,,757.0562769770004,None,757.0562769770004,None,757.0562769770004,None,c,1,4.276468126000509,758.5896222310002,None,758.5896222310002,None,758.5896222310002,None,762.92297435,None,762.92297435,None,762.92297435,None,762.92297435,None,,,,,,,,,,,,,,,,,,,,,,,,,,,,,,,,,,,,,,,,,,,,001,31,2020_Jan_30_1053,spring_faces,3.2.3,60.01700173634375,
condition files/Stage1_1.xlsx,,B2,T1,m,"['c', 'm']","['Clue', 'Monopoly']","[-0.15, 0.5]","[0.15, 0.5]",1,1,,,,,,,,,0,10,10,10,0,5,5,2,,,,,,,,,,,,,,,,,,,,,,,,,,,,,,,,,,,,,,,,,,,,,,,,,,,,,,,764.9063327310005,None,764.9063327310005,None,764.9063327310005,None,m,1,2.954395810999813,766.4396511109999,None,766.4396511109999,None,766.4396511109999,None,769.4729537359999,None,769.4729537359999,None,769.4729537359999,None,769.4729537359999,None,,,,,,,,,,,,,,,,,,,,,,,,,,,,,,,,,,,,,,,,,,,,001,31,2020_Jan_30_1053,spring_faces,3.2.3,60.01700173634375,
condition files/Stage1_1.xlsx,,T2,B2,m,"['c', 'm']","['Clue', 'Monopoly']","[-0.15, 0.5]","[0.15, 0.5]",1,1,,,,,,,,,0,10,10,10,0,6,6,3,,,,,,,,,,,,,,,,,,,,,,,,,,,,,,,,,,,,,,,,,,,,,,,,,,,,,,,771.4396509280004,None,771.4396509280004,None,771.4396509280004,None,c,0,1.8931126050001694,772.9729736120007,None,772.9729736120007,None,772.9729736120007,None,774.92299241,None,774.92299241,None,774.92299241,None,774.92299241,None,,,,,,,,,,,,,,,,,,,,,,,,,,,,,,,,,,,,,,,,,,,,001,31,2020_Jan_30_1053,spring_faces,3.2.3,60.01700173634375,
condition files/Stage1_1.xlsx,,T4,B3,m,"['c', 'm']","['Clue', 'Monopoly']","[-0.15, 0.5]","[0.15, 0.5]",1,1,,,,,,,,,0,10,10,10,0,7,7,6,,,,,,,,,,,,,,,,,,,,,,,,,,,,,,,,,,,,,,,,,,,,,,,,,,,,,,,776.9063301140004,None,776.9063301140004,None,776.9063301140004,None,c,0,1.082537718999447,778.4396214430008,None,778.4396214430008,None,778.4396214430008,None,779.5729014730005,None,779.5729014730005,None,779.5729014730005,None,779.5729014730005,None,,,,,,,,,,,,,,,,,,,,,,,,,,,,,,,,,,,,,,,,,,,,001,31,2020_Jan_30_1053,spring_faces,3.2.3,60.01700173634375,
condition files/Stage1_2.xlsx,,T1,B2,m,"['c', 'm']","['Clue', 'Monopoly']","[-0.15, 0.5]","[0.15, 0.5]",1,1,,,,,,,,,0,11,11,11,0,0,0,2,,,,,,,,,,,,,,,,,,,,,,,,,,,,,,,,,,,,,,,,,,,,,,,,,,,,,,,781.5729699849999,None,781.5729699849999,None,781.5729699849999,None,c,0,2.9917093499998373,783.1063669230007,None,783.1063669230007,None,783.1063669230007,None,786.1562029510005,None,786.1562029510005,None,786.1562029510005,None,786.1562029510005,None,,,,,,,,,,,,,,,,,,,,,,,,,,,,,,,,,,,,,,,,,,,,001,31,2020_Jan_30_1053,spring_faces,3.2.3,60.01700173634375,
condition files/Stage1_2.xlsx,,T3,B3,c,"['c', 'm']","['Clue', 'Monopoly']","[-0.15, 0.5]","[0.15, 0.5]",1,1,,,,,,,,,0,11,11,11,0,1,1,4,,,,,,,,,,,,,,,,,,,,,,,,,,,,,,,,,,,,,,,,,,,,,,,,,,,,,,,788.1396889219996,None,788.1396889219996,None,788.1396889219996,None,c,1,3.3050836020011047,789.6729737330006,None,789.6729737330006,None,789.6729737330006,None,793.0563085169997,None,793.0563085169997,None,793.0563085169997,None,793.0563085169997,None,,,,,,,,,,,,,,,,,,,,,,,,,,,,,,,,,,,,,,,,,,,,001,31,2020_Jan_30_1053,spring_faces,3.2.3,60.01700173634375,
condition files/Stage1_2.xlsx,,B2,T2,m,"['c', 'm']","['Clue', 'Monopoly']","[-0.15, 0.5]","[0.15, 0.5]",1,1,,,,,,,,,0,11,11,11,0,2,2,3,,,,,,,,,,,,,,,,,,,,,,,,,,,,,,,,,,,,,,,,,,,,,,,,,,,,,,,795.0229854860008,None,795.0229854860008,None,795.0229854860008,None,c,0,2.03774666299978,796.5563067060011,None,796.5563067060011,None,796.5563067060011,None,798.6729877920006,None,798.6729877920006,None,798.6729877920006,None,798.6729877920006,None,,,,,,,,,,,,,,,,,,,,,,,,,,,,,,,,,,,,,,,,,,,,001,31,2020_Jan_30_1053,spring_faces,3.2.3,60.01700173634375,
condition files/Stage1_2.xlsx,,B3,T4,m,"['c', 'm']","['Clue', 'Monopoly']","[-0.15, 0.5]","[0.15, 0.5]",1,1,,,,,,,,,0,11,11,11,0,3,3,6,,,,,,,,,,,,,,,,,,,,,,,,,,,,,,,,,,,,,,,,,,,,,,,,,,,,,,,800.6396449599997,None,800.6396449599997,None,800.6396449599997,None,c,0,0.8370902300011949,802.1729802219998,None,802.1729802219998,None,802.1729802219998,None,803.0729373619997,None,803.0729373619997,None,803.0729373619997,None,803.0729373619997,None,,,,,,,,,,,,,,,,,,,,,,,,,,,,,,,,,,,,,,,,,,,,001,31,2020_Jan_30_1053,spring_faces,3.2.3,60.01700173634375,
condition files/Stage1_2.xlsx,,B4,T3,c,"['c', 'm']","['Clue', 'Monopoly']","[-0.15, 0.5]","[0.15, 0.5]",1,1,,,,,,,,,0,11,11,11,0,4,4,5,,,,,,,,,,,,,,,,,,,,,,,,,,,,,,,,,,,,,,,,,,,,,,,,,,,,,,,805.0563054220002,None,805.0563054220002,None,805.0563054220002,None,m,0,0.660465020000629,806.5896209290004,None,806.5896209290004,None,806.5896209290004,None,807.3229767760004,None,807.3229767760004,None,807.3229767760004,None,807.3229767760004,None,,,,,,,,,,,,,,,,,,,,,,,,,,,,,,,,,,,,,,,,,,,,001,31,2020_Jan_30_1053,spring_faces,3.2.3,60.01700173634375,
condition files/Stage1_2.xlsx,,T4,B4,m,"['c', 'm']","['Clue', 'Monopoly']","[-0.15, 0.5]","[0.15, 0.5]",1,1,,,,,,,,,0,11,11,11,0,5,5,7,,,,,,,,,,,,,,,,,,,,,,,,,,,,,,,,,,,,,,,,,,,,,,,,,,,,,,,809.2896647460002,None,809.2896647460002,None,809.2896647460002,None,c,0,1.5311841740003729,810.8229589630009,None,810.8229589630009,None,810.8229589630009,None,812.4229576990001,None,812.4229576990001,None,812.4229576990001,None,812.4229576990001,None,,,,,,,,,,,,,,,,,,,,,,,,,,,,,,,,,,,,,,,,,,,,001,31,2020_Jan_30_1053,spring_faces,3.2.3,60.01700173634375,
condition files/Stage1_2.xlsx,,B1,T1,c,"['c', 'm']","['Clue', 'Monopoly']","[-0.15, 0.5]","[0.15, 0.5]",1,1,,,,,,,,,0,11,11,11,0,6,6,0,,,,,,,,,,,,,,,,,,,,,,,,,,,,,,,,,,,,,,,,,,,,,,,,,,,,,,,814.3896335509999,None,814.3896335509999,None,814.3896335509999,None,m,0,0.6550975549998839,815.9229608879996,None,815.9229608879996,None,815.9229608879996,None,816.6563118369995,None,816.6563118369995,None,816.6563118369995,None,816.6563118369995,None,,,,,,,,,,,,,,,,,,,,,,,,,,,,,,,,,,,,,,,,,,,,001,31,2020_Jan_30_1053,spring_faces,3.2.3,60.01700173634375,
condition files/Stage1_2.xlsx,,T2,B1,c,"['c', 'm']","['Clue', 'Monopoly']","[-0.15, 0.5]","[0.15, 0.5]",1,1,,,,,,,,,0,11,11,11,0,7,7,1,,,,,,,,,,,,,,,,,,,,,,,,,,,,,,,,,,,,,,,,,,,,,,,,,,,,,,,818.6230106330004,None,818.6230106330004,None,818.6230106330004,None,m,0,1.4937514390003344,820.1563231529999,None,820.1563231529999,None,820.1563231529999,None,821.7062827440004,None,821.7062827440004,None,821.7062827440004,None,821.7062827440004,None,,,,,,,,,,,,,,,,,,,,,,,,,,,,,,,,,,,,,,,,,,,,001,31,2020_Jan_30_1053,spring_faces,3.2.3,60.01700173634375,
,,,,,,,,,,,,,,,,,,,,,,,,,,,,,,,,,,,,,,,,,,,,,,,,,,,,,,,,,,,,,,,,,,,,,,,,,,,,,,,,,,,,,,,,,,,,,,,,,,,,,,,,,,,,,,,,823.6896482209995,None,space,2.8170467400013877,828.6729667140007,None,,,,,,,,,,,,,,,,,,,,,,,,,,,,,,001,31,2020_Jan_30_1053,spring_faces,3.2.3,60.01700173634375,
condition files/Stage2_1.xlsx,,B2,T2,r,"['s', 'r']","['Stratego', 'Risk']","[-0.15, 0.5]","[0.15, 0.5]",1,1,,,,,,,,,,,,,,,,,0,0,0,0,0,0,0,3,,,,,,,,,,,,,,,,,,,,,,,,,,,,,,,,,,,,,,,,,,,,,,,831.5563065380011,None,831.5563065380011,None,831.5563065380011,None,r,1,8.737102105000304,833.0729630540009,None,833.0729630540009,None,833.0729630540009,None,841.8896175270002,None,841.8896175270002,None,841.8896175270002,None,841.8896175270002,None,,,,,,,,,,,,,,,828.6729667140007,None,,,,,,,,,,,,,,,,,,,,,,,,,,,,001,31,2020_Jan_30_1053,spring_faces,3.2.3,60.01700173634375,
condition files/Stage2_1.xlsx,,T1,B1,s,"['s', 'r']","['Stratego', 'Risk']","[-0.15, 0.5]","[0.15, 0.5]",1,1,,,,,,,,,,,,,,,,,0,0,0,0,0,1,1,2,,,,,,,,,,,,,,,,,,,,,,,,,,,,,,,,,,,,,,,,,,,,,,,843.8562899930002,None,843.8562899930002,None,843.8562899930002,None,s,1,0.9003804109997873,845.3896185329995,None,845.3896185329995,None,845.3896185329995,None,846.3728852540007,None,846.3728852540007,None,846.3728852540007,None,846.3728852540007,None,,,,,,,,,,,,,,,,,,,,,,,,,,,,,,,,,,,,,,,,,,,,001,31,2020_Jan_30_1053,spring_faces,3.2.3,60.01700173634375,
condition files/Stage2_1.xlsx,,B6,T6,r,"['s', 'r']","['Stratego', 'Risk']","[-0.15, 0.5]","[0.15, 0.5]",1,1,,,,,,,,,,,,,,,,,0,0,0,0,0,2,2,1,,,,,,,,,,,,,,,,,,,,,,,,,,,,,,,,,,,,,,,,,,,,,,,848.339652177001,None,848.339652177001,None,848.339652177001,None,r,1,1.8563369670009706,849.889627945,None,849.889627945,None,849.889627945,None,851.8229931670012,None,851.8229931670012,None,851.8229931670012,None,851.8229931670012,None,,,,,,,,,,,,,,,,,,,,,,,,,,,,,,,,,,,,,,,,,,,,001,31,2020_Jan_30_1053,spring_faces,3.2.3,60.01700173634375,
condition files/Stage2_1.xlsx,,T3,B3,s,"['s', 'r']","['Stratego', 'Risk']","[-0.15, 0.5]","[0.15, 0.5]",1,1,,,,,,,,,,,,,,,,,0,0,0,0,0,3,3,4,,,,,,,,,,,,,,,,,,,,,,,,,,,,,,,,,,,,,,,,,,,,,,,853.7896569000004,None,853.7896569000004,None,853.7896569000004,None,s,1,0.9991845559998183,855.3229754580007,None,855.3229754580007,None,855.3229754580007,None,856.3895655810011,None,856.3895655810011,None,856.3895655810011,None,856.3895655810011,None,,,,,,,,,,,,,,,,,,,,,,,,,,,,,,,,,,,,,,,,,,,,001,31,2020_Jan_30_1053,spring_faces,3.2.3,60.01700173634375,
condition files/Stage2_1.xlsx,,T5,B5,s,"['s', 'r']","['Stratego', 'Risk']","[-0.15, 0.5]","[0.15, 0.5]",1,1,,,,,,,,,,,,,,,,,0,0,0,0,0,4,4,0,,,,,,,,,,,,,,,,,,,,,,,,,,,,,,,,,,,,,,,,,,,,,,,858.3562129319998,None,858.3562129319998,None,858.3562129319998,None,r,0,1.0279292539999005,860.2061778320003,None,860.2061778320003,None,860.2061778320003,None,861.306312699,None,861.306312699,None,861.306312699,None,861.306312699,None,,,,,,,,,,,,,,,,,,,,,,,,,,,,,,,,,,,,,,,,,,,,001,31,2020_Jan_30_1053,spring_faces,3.2.3,60.01700173634375,
condition files/Stage2_1.xlsx,,B4,T4,r,"['s', 'r']","['Stratego', 'Risk']","[-0.15, 0.5]","[0.15, 0.5]",1,1,,,,,,,,,,,,,,,,,0,0,0,0,0,5,5,5,,,,,,,,,,,,,,,,,,,,,,,,,,,,,,,,,,,,,,,,,,,,,,,863.2729879790004,None,863.2729879790004,None,863.2729879790004,None,s,0,0.9237995919993409,864.8063113040007,None,864.8063113040007,None,864.8063113040007,None,865.806304234,None,865.806304234,None,865.806304234,None,865.806304234,None,,,,,,,,,,,,,,,,,,,,,,,,,,,,,,,,,,,,,,,,,,,,001,31,2020_Jan_30_1053,spring_faces,3.2.3,60.01700173634375,
condition files/Stage2_2.xlsx,,T4,B4,r,"['s', 'r']","['Stratego', 'Risk']","[-0.15, 0.5]","[0.15, 0.5]",1,1,,,,,,,,,,,,,,,,,0,1,1,1,0,0,0,5,,,,,,,,,,,,,,,,,,,,,,,,,,,,,,,,,,,,,,,,,,,,,,,867.7896168440002,None,867.7896168440002,None,867.7896168440002,None,s,0,0.6790497350011719,869.3229545619997,None,869.3229545619997,None,869.3229545619997,None,870.056289047001,None,870.056289047001,None,870.056289047001,None,870.056289047001,None,,,,,,,,,,,,,,,,,,,,,,,,,,,,,,,,,,,,,,,,,,,,001,31,2020_Jan_30_1053,spring_faces,3.2.3,60.01700173634375,
condition files/Stage2_2.xlsx,,B5,T5,s,"['s', 'r']","['Stratego', 'Risk']","[-0.15, 0.5]","[0.15, 0.5]",1,1,,,,,,,,,,,,,,,,,0,1,1,1,0,1,1,0,,,,,,,,,,,,,,,,,,,,,,,,,,,,,,,,,,,,,,,,,,,,,,,872.0396758429997,None,872.0396758429997,None,872.0396758429997,None,r,0,0.31709667399991304,873.5729139480009,None,873.5729139480009,None,873.5729139480009,None,873.9728952919995,None,873.9728952919995,None,873.9728952919995,None,873.9728952919995,None,,,,,,,,,,,,,,,,,,,,,,,,,,,,,,,,,,,,,,,,,,,,001,31,2020_Jan_30_1053,spring_faces,3.2.3,60.01700173634375,
condition files/Stage2_2.xlsx,,T2,B2,r,"['s', 'r']","['Stratego', 'Risk']","[-0.15, 0.5]","[0.15, 0.5]",1,1,,,,,,,,,,,,,,,,,0,1,1,1,0,2,2,3,,,,,,,,,,,,,,,,,,,,,,,,,,,,,,,,,,,,,,,,,,,,,,,875.9396508419995,None,875.9396508419995,None,875.9396508419995,None,s,0,0.785035995000726,877.4729550000011,None,877.4729550000011,None,877.4729550000011,None,878.3395794650005,None,878.3395794650005,None,878.3395794650005,None,878.3395794650005,None,,,,,,,,,,,,,,,,,,,,,,,,,,,,,,,,,,,,,,,,,,,,001,31,2020_Jan_30_1053,spring_faces,3.2.3,60.01700173634375,
condition files/Stage2_2.xlsx,,B1,T1,s,"['s', 'r']","['Stratego', 'Risk']","[-0.15, 0.5]","[0.15, 0.5]",1,1,,,,,,,,,,,,,,,,,0,1,1,1,0,3,3,2,,,,,,,,,,,,,,,,,,,,,,,,,,,,,,,,,,,,,,,,,,,,,,,880.3063096300011,None,880.3063096300011,None,880.3063096300011,None,s,1,0.8664848170010373,881.8396517500005,None,881.8396517500005,None,881.8396517500005,None,882.7728997579998,None,882.7728997579998,None,882.7728997579998,None,882.7728997579998,None,,,,,,,,,,,,,,,,,,,,,,,,,,,,,,,,,,,,,,,,,,,,001,31,2020_Jan_30_1053,spring_faces,3.2.3,60.01700173634375,
condition files/Stage2_2.xlsx,,B3,T3,s,"['s', 'r']","['Stratego', 'Risk']","[-0.15, 0.5]","[0.15, 0.5]",1,1,,,,,,,,,,,,,,,,,0,1,1,1,0,4,4,4,,,,,,,,,,,,,,,,,,,,,,,,,,,,,,,,,,,,,,,,,,,,,,,884.7395541050009,None,884.7395541050009,None,884.7395541050009,None,r,0,0.7690824869987409,886.2729567639999,None,886.2729567639999,None,886.2729567639999,None,887.106302395001,None,887.106302395001,None,887.106302395001,None,887.106302395001,None,,,,,,,,,,,,,,,,,,,,,,,,,,,,,,,,,,,,,,,,,,,,001,31,2020_Jan_30_1053,spring_faces,3.2.3,60.01700173634375,
condition files/Stage2_2.xlsx,,T6,B6,r,"['s', 'r']","['Stratego', 'Risk']","[-0.15, 0.5]","[0.15, 0.5]",1,1,,,,,,,,,,,,,,,,,0,1,1,1,0,5,5,1,,,,,,,,,,,,,,,,,,,,,,,,,,,,,,,,,,,,,,,,,,,,,,,889.0896772720007,None,889.0896772720007,None,889.0896772720007,None,r,1,0.9791425660005189,890.6228761910006,None,890.6228761910006,None,890.6228761910006,None,891.6729817779997,None,891.6729817779997,None,891.6729817779997,None,891.6729817779997,None,,,,,,,,,,,,,,,,,,,,,,,,,,,,,,,,,,,,,,,,,,,,001,31,2020_Jan_30_1053,spring_faces,3.2.3,60.01700173634375,
condition files/Stage2_1.xlsx,,B2,T2,r,"['s', 'r']","['Stratego', 'Risk']","[-0.15, 0.5]","[0.15, 0.5]",1,1,,,,,,,,,,,,,,,,,0,2,2,2,0,0,0,3,,,,,,,,,,,,,,,,,,,,,,,,,,,,,,,,,,,,,,,,,,,,,,,893.6563139299997,None,893.6563139299997,None,893.6563139299997,None,s,0,1.1965699060001498,895.1895847409996,None,895.1895847409996,None,895.1895847409996,None,896.4396287910004,None,896.4396287910004,None,896.4396287910004,None,896.4396287910004,None,,,,,,,,,,,,,,,,,,,,,,,,,,,,,,,,,,,,,,,,,,,,001,31,2020_Jan_30_1053,spring_faces,3.2.3,60.01700173634375,
condition files/Stage2_1.xlsx,,B6,T6,r,"['s', 'r']","['Stratego', 'Risk']","[-0.15, 0.5]","[0.15, 0.5]",1,1,,,,,,,,,,,,,,,,,0,2,2,2,0,1,1,1,,,,,,,,,,,,,,,,,,,,,,,,,,,,,,,,,,,,,,,,,,,,,,,898.4230094530012,None,898.4230094530012,None,898.4230094530012,None,s,0,0.6857705870006612,899.9562863829997,None,899.9562863829997,None,899.9562863829997,None,900.7062929639997,None,900.7062929639997,None,900.7062929639997,None,900.7062929639997,None,,,,,,,,,,,,,,,,,,,,,,,,,,,,,,,,,,,,,,,,,,,,001,31,2020_Jan_30_1053,spring_faces,3.2.3,60.01700173634375,
condition files/Stage2_1.xlsx,,T5,B5,s,"['s', 'r']","['Stratego', 'Risk']","[-0.15, 0.5]","[0.15, 0.5]",1,1,,,,,,,,,,,,,,,,,0,2,2,2,0,2,2,0,,,,,,,,,,,,,,,,,,,,,,,,,,,,,,,,,,,,,,,,,,,,,,,902.6895638440001,None,902.6895638440001,None,902.6895638440001,None,r,0,0.5631446939987654,904.2229789539997,None,904.2229789539997,None,904.2229789539997,None,904.8562951010008,None,904.8562951010008,None,904.8562951010008,None,904.8562951010008,None,,,,,,,,,,,,,,,,,,,,,,,,,,,,,,,,,,,,,,,,,,,,001,31,2020_Jan_30_1053,spring_faces,3.2.3,60.01700173634375,
condition files/Stage2_1.xlsx,,T1,B1,s,"['s', 'r']","['Stratego', 'Risk']","[-0.15, 0.5]","[0.15, 0.5]",1,1,,,,,,,,,,,,,,,,,0,2,2,2,0,3,3,2,,,,,,,,,,,,,,,,,,,,,,,,,,,,,,,,,,,,,,,,,,,,,,,906.8229770159996,None,906.8229770159996,None,906.8229770159996,None,r,0,0.845777188998909,908.3562301380007,None,908.3562301380007,None,908.3562301380007,None,909.2562804019999,None,909.2562804019999,None,909.2562804019999,None,909.2562804019999,None,,,,,,,,,,,,,,,,,,,,,,,,,,,,,,,,,,,,,,,,,,,,001,31,2020_Jan_30_1053,spring_faces,3.2.3,60.01700173634375,
condition files/Stage2_1.xlsx,,B4,T4,r,"['s', 'r']","['Stratego', 'Risk']","[-0.15, 0.5]","[0.15, 0.5]",1,1,,,,,,,,,,,,,,,,,0,2,2,2,0,4,4,5,,,,,,,,,,,,,,,,,,,,,,,,,,,,,,,,,,,,,,,,,,,,,,,911.2395534480002,None,911.2395534480002,None,911.2395534480002,None,s,0,0.7652562990006118,912.7729224200011,None,912.7729224200011,None,912.7729224200011,None,913.6062947650007,None,913.6062947650007,None,913.6062947650007,None,913.6062947650007,None,,,,,,,,,,,,,,,,,,,,,,,,,,,,,,,,,,,,,,,,,,,,001,31,2020_Jan_30_1053,spring_faces,3.2.3,60.01700173634375,
condition files/Stage2_1.xlsx,,T3,B3,s,"['s', 'r']","['Stratego', 'Risk']","[-0.15, 0.5]","[0.15, 0.5]",1,1,,,,,,,,,,,,,,,,,0,2,2,2,0,5,5,4,,,,,,,,,,,,,,,,,,,,,,,,,,,,,,,,,,,,,,,,,,,,,,,915.5728726950001,None,915.5728726950001,None,915.5728726950001,None,s,1,0.8158585950004635,917.1062748870008,None,917.1062748870008,None,917.1062748870008,None,917.9895701269998,None,917.9895701269998,None,917.9895701269998,None,917.9895701269998,None,,,,,,,,,,,,,,,,,,,,,,,,,,,,,,,,,,,,,,,,,,,,001,31,2020_Jan_30_1053,spring_faces,3.2.3,60.01700173634375,
condition files/Stage2_2.xlsx,,T4,B4,r,"['s', 'r']","['Stratego', 'Risk']","[-0.15, 0.5]","[0.15, 0.5]",1,1,,,,,,,,,,,,,,,,,0,3,3,3,0,0,0,5,,,,,,,,,,,,,,,,,,,,,,,,,,,,,,,,,,,,,,,,,,,,,,,919.9728894109994,None,919.9728894109994,None,919.9728894109994,None,r,1,0.9757907799994427,921.5062686069996,None,921.5062686069996,None,921.5062686069996,None,922.5562954400011,None,922.5562954400011,None,922.5562954400011,None,922.5562954400011,None,,,,,,,,,,,,,,,,,,,,,,,,,,,,,,,,,,,,,,,,,,,,001,31,2020_Jan_30_1053,spring_faces,3.2.3,60.01700173634375,
condition files/Stage2_2.xlsx,,B1,T1,s,"['s', 'r']","['Stratego', 'Risk']","[-0.15, 0.5]","[0.15, 0.5]",1,1,,,,,,,,,,,,,,,,,0,3,3,3,0,1,1,2,,,,,,,,,,,,,,,,,,,,,,,,,,,,,,,,,,,,,,,,,,,,,,,924.5229826190007,None,924.5229826190007,None,924.5229826190007,None,s,1,0.5377758199992968,926.0562936620008,None,926.0562936620008,None,926.0562936620008,None,926.6729717199996,None,926.6729717199996,None,926.6729717199996,None,926.6729717199996,None,,,,,,,,,,,,,,,,,,,,,,,,,,,,,,,,,,,,,,,,,,,,001,31,2020_Jan_30_1053,spring_faces,3.2.3,60.01700173634375,
condition files/Stage2_2.xlsx,,T6,B6,r,"['s', 'r']","['Stratego', 'Risk']","[-0.15, 0.5]","[0.15, 0.5]",1,1,,,,,,,,,,,,,,,,,0,3,3,3,0,2,2,1,,,,,,,,,,,,,,,,,,,,,,,,,,,,,,,,,,,,,,,,,,,,,,,928.6396364249995,None,928.6396364249995,None,928.6396364249995,None,r,1,1.0451114469997265,930.1729794750008,None,930.1729794750008,None,930.1729794750008,None,931.2896192610006,None,931.2896192610006,None,931.2896192610006,None,931.2896192610006,None,,,,,,,,,,,,,,,,,,,,,,,,,,,,,,,,,,,,,,,,,,,,001,31,2020_Jan_30_1053,spring_faces,3.2.3,60.01700173634375,
condition files/Stage2_2.xlsx,,T2,B2,r,"['s', 'r']","['Stratego', 'Risk']","[-0.15, 0.5]","[0.15, 0.5]",1,1,,,,,,,,,,,,,,,,,0,3,3,3,0,3,3,3,,,,,,,,,,,,,,,,,,,,,,,,,,,,,,,,,,,,,,,,,,,,,,,933.256316500001,None,933.256316500001,None,933.256316500001,None,r,1,1.2444754560001456,934.7896197089995,None,934.7896197089995,None,934.7896197089995,None,936.08963778,None,936.08963778,None,936.08963778,None,936.08963778,None,,,,,,,,,,,,,,,,,,,,,,,,,,,,,,,,,,,,,,,,,,,,001,31,2020_Jan_30_1053,spring_faces,3.2.3,60.01700173634375,
condition files/Stage2_2.xlsx,,B5,T5,s,"['s', 'r']","['Stratego', 'Risk']","[-0.15, 0.5]","[0.15, 0.5]",1,1,,,,,,,,,,,,,,,,,0,3,3,3,0,4,4,0,,,,,,,,,,,,,,,,,,,,,,,,,,,,,,,,,,,,,,,,,,,,,,,938.0729949400011,None,938.0729949400011,None,938.0729949400011,None,s,1,2.731842539000354,939.6063225199996,None,939.6063225199996,None,939.6063225199996,None,942.4063015459997,None,942.4063015459997,None,942.4063015459997,None,942.4063015459997,None,,,,,,,,,,,,,,,,,,,,,,,,,,,,,,,,,,,,,,,,,,,,001,31,2020_Jan_30_1053,spring_faces,3.2.3,60.01700173634375,
condition files/Stage2_2.xlsx,,B3,T3,s,"['s', 'r']","['Stratego', 'Risk']","[-0.15, 0.5]","[0.15, 0.5]",1,1,,,,,,,,,,,,,,,,,0,3,3,3,0,5,5,4,,,,,,,,,,,,,,,,,,,,,,,,,,,,,,,,,,,,,,,,,,,,,,,944.3728762740011,None,944.3728762740011,None,944.3728762740011,None,s,1,1.9998379179996846,945.9063019109999,None,945.9063019109999,None,945.9063019109999,None,947.9562630889995,None,947.9562630889995,None,947.9562630889995,None,947.9562630889995,None,,,,,,,,,,,,,,,,,,,,,,,,,,,,,,,,,,,,,,,,,,,,001,31,2020_Jan_30_1053,spring_faces,3.2.3,60.01700173634375,
condition files/Stage2_1.xlsx,,B4,T4,r,"['s', 'r']","['Stratego', 'Risk']","[-0.15, 0.5]","[0.15, 0.5]",1,1,,,,,,,,,,,,,,,,,0,4,4,4,0,0,0,5,,,,,,,,,,,,,,,,,,,,,,,,,,,,,,,,,,,,,,,,,,,,,,,949.9562342730005,None,949.9562342730005,None,949.9562342730005,None,s,0,3.1524306669998623,951.4896238860001,None,951.4896238860001,None,951.4896238860001,None,954.722853184001,None,954.722853184001,None,954.722853184001,None,954.722853184001,None,,,,,,,,,,,,,,,,,,,,,,,,,,,,,,,,,,,,,,,,,,,,001,31,2020_Jan_30_1053,spring_faces,3.2.3,60.01700173634375,
condition files/Stage2_1.xlsx,,B2,T2,r,"['s', 'r']","['Stratego', 'Risk']","[-0.15, 0.5]","[0.15, 0.5]",1,1,,,,,,,,,,,,,,,,,0,4,4,4,0,1,1,3,,,,,,,,,,,,,,,,,,,,,,,,,,,,,,,,,,,,,,,,,,,,,,,956.6896713330007,None,956.6896713330007,None,956.6896713330007,None,r,1,0.8350047000003542,958.2229987610008,None,958.2229987610008,None,958.2229987610008,None,959.1228928439996,None,959.1228928439996,None,959.1228928439996,None,959.1228928439996,None,,,,,,,,,,,,,,,,,,,,,,,,,,,,,,,,,,,,,,,,,,,,001,31,2020_Jan_30_1053,spring_faces,3.2.3,60.01700173634375,
condition files/Stage2_1.xlsx,,T3,B3,s,"['s', 'r']","['Stratego', 'Risk']","[-0.15, 0.5]","[0.15, 0.5]",1,1,,,,,,,,,,,,,,,,,0,4,4,4,0,2,2,4,,,,,,,,,,,,,,,,,,,,,,,,,,,,,,,,,,,,,,,,,,,,,,,961.1062654810012,None,961.1062654810012,None,961.1062654810012,None,s,1,1.2183740170003148,962.6396228230005,None,962.6396228230005,None,962.6396228230005,None,963.9396526170003,None,963.9396526170003,None,963.9396526170003,None,963.9396526170003,None,,,,,,,,,,,,,,,,,,,,,,,,,,,,,,,,,,,,,,,,,,,,001,31,2020_Jan_30_1053,spring_faces,3.2.3,60.01700173634375,
condition files/Stage2_1.xlsx,,T1,B1,s,"['s', 'r']","['Stratego', 'Risk']","[-0.15, 0.5]","[0.15, 0.5]",1,1,,,,,,,,,,,,,,,,,0,4,4,4,0,3,3,2,,,,,,,,,,,,,,,,,,,,,,,,,,,,,,,,,,,,,,,,,,,,,,,965.9063401910007,None,965.9063401910007,None,965.9063401910007,None,s,1,0.8343495139997685,967.4396489829996,None,967.4396489829996,None,967.4396489829996,None,968.339562051,None,968.339562051,None,968.339562051,None,968.339562051,None,,,,,,,,,,,,,,,,,,,,,,,,,,,,,,,,,,,,,,,,,,,,001,31,2020_Jan_30_1053,spring_faces,3.2.3,60.01700173634375,
