condsFile,subStage,cue1,cue2,correct,responseKeys,responseNames,cue1Position,cue2Position,cue1Opacity,cue2Opacity,stageLoop0.thisRepN,stageLoop0.thisTrialN,stageLoop0.thisN,stageLoop0.thisIndex,blockLoop0.thisRepN,blockLoop0.thisTrialN,blockLoop0.thisN,blockLoop0.thisIndex,stage1Loop.thisRepN,stage1Loop.thisTrialN,stage1Loop.thisN,stage1Loop.thisIndex,blockLoop1.thisRepN,blockLoop1.thisTrialN,blockLoop1.thisN,blockLoop1.thisIndex,stage2Loop.thisRepN,stage2Loop.thisTrialN,stage2Loop.thisN,stage2Loop.thisIndex,blockLoop2.thisRepN,blockLoop2.thisTrialN,blockLoop2.thisN,blockLoop2.thisIndex,testLoop.thisRepN,testLoop.thisTrialN,testLoop.thisN,testLoop.thisIndex,blockLoopTest.thisRepN,blockLoopTest.thisTrialN,blockLoopTest.thisN,blockLoopTest.thisIndex,cuePics,id_instr_text.started,id_instr_text.stopped,space_to_continue_2.started,space_to_continue_2.stopped,end_instructions_resp_3.keys,end_instructions_resp_3.rt,end_instructions_resp_3.started,end_instructions_resp_3.stopped,id_input_instr.started,id_input_instr.stopped,id_input_rect.started,id_input_rect.stopped,id_input_resp.keys,id_input_resp.rt,id_input_resp.started,id_input_resp.stopped,sonaID,id_input_text.started,id_input_text.stopped,final_text.started,final_text.stopped,instructions.started,instructions.stopped,end_instructions_resp.keys,end_instructions_resp.rt,end_instructions_resp.started,end_instructions_resp.stopped,space_to_continue.started,space_to_continue.stopped,instructions_stage0.started,instructions_stage0.stopped,end_instructions_resp_stage0.keys,end_instructions_resp_stage0.rt,end_instructions_resp_stage0.started,end_instructions_resp_stage0.stopped,space_to_continue_stage0.started,space_to_continue_stage0.stopped,text.started,text.stopped,resp_text1.started,resp_text1.stopped,resp_text2.started,resp_text2.stopped,trial_resp.keys,trial_resp.corr,trial_resp.rt,trial_resp.started,trial_resp.stopped,cue1Image.started,cue1Image.stopped,cue2Image.started,cue2Image.stopped,cue1Image_fb.started,cue1Image_fb.stopped,cue2Image_fb.started,cue2Image_fb.stopped,fb_text_answer.started,fb_text_answer.stopped,feedback_image.started,feedback_image.stopped,instructions_stage1.started,instructions_stage1.stopped,end_instructions_resp_stage1.keys,end_instructions_resp_stage1.rt,end_instructions_resp_stage1.started,end_instructions_resp_stage1.stopped,space_to_continue_stage1.started,space_to_continue_stage1.stopped,instructions_2.started,instructions_2.stopped,end_instructions_resp_2.keys,end_instructions_resp_2.rt,end_instructions_resp_2.started,end_instructions_resp_2.stopped,press_space_to_continue_stage2.started,press_space_to_continue_stage2.stopped,instructions_testStage1.started,instructions_testStage1.stopped,end_instructions_resp_test1.keys,end_instructions_resp_test1.rt,end_instructions_resp_test1.started,end_instructions_resp_test1.stopped,press_space_to_continue_test1.started,press_space_to_continue_test1.stopped,cue1Image_testChoice.started,cue1Image_testChoice.stopped,cue2Image_testChoice.started,cue2Image_testChoice.stopped,test_resp.keys,test_resp.corr,test_resp.rt,test_resp.started,test_resp.stopped,cue1Image_testConf.started,cue1Image_testConf.stopped,cue2Image_testConf.started,cue2Image_testConf.stopped,conf_reminder.started,conf_reminder.stopped,conf_rating.response,conf_rating.rt,conf_rating.started,conf_rating.stopped,session,participant,date,expName,psychopyVersion,frameRate,
,,,,,,,,,,,,,,,,,,,,,,,,,,,,,,,,,,,,,,,,,,,"{'none': 'pictures/20M_AN_C.png', 'alpha': 'pictures/SHINEd_pear.png', 'beta': 'pictures/SHINEd_pepper.png', 'theta': 'pictures/SHINEd_apple.png', 'phi': 'pictures/SHINEd_melon.png', 'T1': 'pictures/33M_AN_C.png', 'T2': 'pictures/32M_AN_C.png', 'T3': 'pictures/26M_AN_C.png', 'T4': 'pictures/20M_AN_C.png', 'T5': 'pictures/31M_AN_C.png', 'T6': 'pictures/37M_AN_C.png', 'B1': 'pictures/36M_NE_C.png', 'B2': 'pictures/34M_NE_C.png', 'B3': 'pictures/22M_NE_C.png', 'B4': 'pictures/38M_NE_C.png', 'B5': 'pictures/25M_NE_C.png', 'B6': 'pictures/23M_NE_C.png'}",12.743698100999609,None,17.727301086000807,None,space,34.33525492099943,17.727301086000807,None,,,,,,,,,,,,,,,,,,,,,,,,,,,,,,,,,,,,,,,,,,,,,,,,,,,,,,,,,,,,,,,,,,,,,,,,,,,,,,,,,,,,,,,,,,,,,,,,001,35,2020_Jan_30_1151,spring_faces,3.1.5,59.962271858317145,
,,,,,,,,,,,,,,,,,,,,,,,,,,,,,,,,,,,,,,,,,,,,,,,,,,,,52.49342012499983,None,52.49342012499983,None,"['1', '2', '3', '4', '5', 'backspace', 'backspace', 'backspace', 'backspace', 'backspace', 'backspace', 'backspace', 'backspace', '0', '9', '1', '7', 'j', 'a', 'h', 'a', 'l']","[6.369036499001595, 6.737127471000349, 7.12115667100079, 7.329052857001443, 7.5530551740012015, 24.96119111600092, 25.553123651001442, 25.74508953700024, 25.88915614600046, 26.049142004001624, 26.209183918001145, 26.353122140000778, 26.513095219001116, 29.00917970500086, 29.153092787000787, 31.905158363000737, 32.081119683, 44.849149618999945, 45.15307194200068, 48.5771660670016, 49.137128363001466, 49.425167764000435]",52.49342012499983,None,,,,,,,,,,,,,,,,,,,,,,,,,,,,,,,,,,,,,,,,,,,,,,,,,,,,,,,,,,,,,,,,,,,,,,,,,,,,,,,,,,,,,,,,001,35,2020_Jan_30_1151,spring_faces,3.1.5,59.962271858317145,
,,,,,,,,,,,,,,,,,,,,,,,,,,,,,,,,,,,,,,,,,,,,,,,,,,,,,,,,,,,,0917jahal,52.49342012499983,None,52.49342012499983,None,106.99411794200023,None,space,1.876708953999696,111.9938936210001,None,,,,,,,,,,,,,,,,,,,,,,,,,,,,,,,,,,,,,,,,,,,,,,,,,,,,,,,,,,,,,,,,,,,,,,,,,,,,,001,35,2020_Jan_30_1151,spring_faces,3.1.5,59.962271858317145,
,,,,,,,,,,,,,,,,,,,,,,,,,,,,,,,,,,,,,,,,,,,,,,,,,,,,,,,,,,,,,,,,,,,,,,,111.9938936210001,None,113.91048626200063,None,space,9.040257036000185,118.91036081600032,None,,,,,,,,,,,,,,,,,,,,,,,,,,,,,,,,,,,,,,,,,,,,,,,,,,,,,,,,,,,,,,,,,,,,,001,35,2020_Jan_30_1151,spring_faces,3.1.5,59.962271858317145,
condition files/Stage0a.xlsx,0a,alpha,none,h,"['h', 'g']","['Chess', 'Go']","[0, 0.5]","[0, 0]",1,0,0,0,0,0,0,0,0,0,,,,,,,,,,,,,,,,,,,,,,,,,,,,,,,,,,,,,,,,,,,,,,,,,,,,,,,,,,,,,118.91036081600032,None,128.06070117499985,None,128.06070117499985,None,128.06070117499985,None,g,0,7.620520246000524,129.5940661550012,None,129.5940661550012,None,129.5940661550012,None,137.29416569200112,None,137.29416569200112,None,137.29416569200112,None,137.29416569200112,None,,,,,,,,,,,,,,,,,,,,,,,,,,,,,,,,,,,,,,,,,,,,001,35,2020_Jan_30_1151,spring_faces,3.1.5,59.962271858317145,
condition files/Stage0a.xlsx,0a,beta,none,g,"['h', 'g']","['Chess', 'Go']","[0, 0.5]","[0, 0]",1,0,0,0,0,0,0,1,1,1,,,,,,,,,,,,,,,,,,,,,,,,,,,,,,,,,,,,,,,,,,,,,,,,,,,,,,,,,,,,,,,139.24378048200015,None,139.24378048200015,None,139.24378048200015,None,g,1,4.997038186000282,140.7935085320005,None,140.7935085320005,None,140.7935085320005,None,145.84556633800094,None,145.84556633800094,None,145.84556633800094,None,145.84556633800094,None,,,,,,,,,,,,,,,,,,,,,,,,,,,,,,,,,,,,,,,,,,,,001,35,2020_Jan_30_1151,spring_faces,3.1.5,59.962271858317145,
condition files/Stage0a.xlsx,0a,beta,none,g,"['h', 'g']","['Chess', 'Go']","[0, 0.5]","[0, 0]",1,0,0,1,1,1,0,0,0,1,,,,,,,,,,,,,,,,,,,,,,,,,,,,,,,,,,,,,,,,,,,,,,,,,,,,,,,,,,,,,,,147.82741529600025,None,147.82741529600025,None,147.82741529600025,None,h,0,3.8385393460011983,149.36005679499976,None,149.36005679499976,None,149.36005679499976,None,153.2609880660002,None,153.2609880660002,None,153.2609880660002,None,153.2609880660002,None,,,,,,,,,,,,,,,,,,,,,,,,,,,,,,,,,,,,,,,,,,,,001,35,2020_Jan_30_1151,spring_faces,3.1.5,59.962271858317145,
condition files/Stage0a.xlsx,0a,alpha,none,h,"['h', 'g']","['Chess', 'Go']","[0, 0.5]","[0, 0]",1,0,0,1,1,1,0,1,1,0,,,,,,,,,,,,,,,,,,,,,,,,,,,,,,,,,,,,,,,,,,,,,,,,,,,,,,,,,,,,,,,155.22703646400078,None,155.22703646400078,None,155.22703646400078,None,g,0,3.8142082909998862,156.76034421400072,None,156.76034421400072,None,156.76034421400072,None,160.6278039200006,None,160.6278039200006,None,160.6278039200006,None,160.6278039200006,None,,,,,,,,,,,,,,,,,,,,,,,,,,,,,,,,,,,,,,,,,,,,001,35,2020_Jan_30_1151,spring_faces,3.1.5,59.962271858317145,
condition files/Stage0a.xlsx,0a,beta,none,g,"['h', 'g']","['Chess', 'Go']","[0, 0.5]","[0, 0]",1,0,0,2,2,2,0,0,0,1,,,,,,,,,,,,,,,,,,,,,,,,,,,,,,,,,,,,,,,,,,,,,,,,,,,,,,,,,,,,,,,162.61063419099992,None,162.61063419099992,None,162.61063419099992,None,g,1,4.046634547999929,164.1440508249998,None,164.1440508249998,None,164.1440508249998,None,168.24423406800088,None,168.24423406800088,None,168.24423406800088,None,168.24423406800088,None,,,,,,,,,,,,,,,,,,,,,,,,,,,,,,,,,,,,,,,,,,,,001,35,2020_Jan_30_1151,spring_faces,3.1.5,59.962271858317145,
condition files/Stage0a.xlsx,0a,alpha,none,h,"['h', 'g']","['Chess', 'Go']","[0, 0.5]","[0, 0]",1,0,0,2,2,2,0,1,1,0,,,,,,,,,,,,,,,,,,,,,,,,,,,,,,,,,,,,,,,,,,,,,,,,,,,,,,,,,,,,,,,170.21045325700106,None,170.21045325700106,None,170.21045325700106,None,h,1,1.2461602300008963,171.74432799100032,None,171.74432799100032,None,171.74432799100032,None,173.0436100099996,None,173.0436100099996,None,173.0436100099996,None,173.0436100099996,None,,,,,,,,,,,,,,,,,,,,,,,,,,,,,,,,,,,,,,,,,,,,001,35,2020_Jan_30_1151,spring_faces,3.1.5,59.962271858317145,
condition files/Stage0a.xlsx,0a,alpha,none,h,"['h', 'g']","['Chess', 'Go']","[0, 0.5]","[0, 0]",1,0,0,3,3,3,0,0,0,0,,,,,,,,,,,,,,,,,,,,,,,,,,,,,,,,,,,,,,,,,,,,,,,,,,,,,,,,,,,,,,,175.02748273700126,None,175.02748273700126,None,175.02748273700126,None,h,1,1.357454050999877,176.56115884599967,None,176.56115884599967,None,176.56115884599967,None,177.97746278600061,None,177.97746278600061,None,177.97746278600061,None,177.97746278600061,None,,,,,,,,,,,,,,,,,,,,,,,,,,,,,,,,,,,,,,,,,,,,001,35,2020_Jan_30_1151,spring_faces,3.1.5,59.962271858317145,
condition files/Stage0a.xlsx,0a,beta,none,g,"['h', 'g']","['Chess', 'Go']","[0, 0.5]","[0, 0]",1,0,0,3,3,3,0,1,1,1,,,,,,,,,,,,,,,,,,,,,,,,,,,,,,,,,,,,,,,,,,,,,,,,,,,,,,,,,,,,,,,179.94355108000127,None,179.94355108000127,None,179.94355108000127,None,g,1,0.8570338360004826,181.47755001400037,None,181.47755001400037,None,181.47755001400037,None,182.39449528099976,None,182.39449528099976,None,182.39449528099976,None,182.39449528099976,None,,,,,,,,,,,,,,,,,,,,,,,,,,,,,,,,,,,,,,,,,,,,001,35,2020_Jan_30_1151,spring_faces,3.1.5,59.962271858317145,
condition files/Stage0a.xlsx,0a,alpha,none,h,"['h', 'g']","['Chess', 'Go']","[0, 0.5]","[0, 0]",1,0,0,4,4,4,0,0,0,0,,,,,,,,,,,,,,,,,,,,,,,,,,,,,,,,,,,,,,,,,,,,,,,,,,,,,,,,,,,,,,,184.3774855160009,None,184.3774855160009,None,184.3774855160009,None,h,1,0.9197232179994899,185.91087557600076,None,185.91087557600076,None,185.91087557600076,None,186.89361338300114,None,186.89361338300114,None,186.89361338300114,None,186.89361338300114,None,,,,,,,,,,,,,,,,,,,,,,,,,,,,,,,,,,,,,,,,,,,,001,35,2020_Jan_30_1151,spring_faces,3.1.5,59.962271858317145,
condition files/Stage0a.xlsx,0a,beta,none,g,"['h', 'g']","['Chess', 'Go']","[0, 0.5]","[0, 0]",1,0,0,4,4,4,0,1,1,1,,,,,,,,,,,,,,,,,,,,,,,,,,,,,,,,,,,,,,,,,,,,,,,,,,,,,,,,,,,,,,,188.8598346279996,None,188.8598346279996,None,188.8598346279996,None,g,1,0.8523529590001999,190.39420873699964,None,190.39420873699964,None,190.39420873699964,None,191.31085374100076,None,191.31085374100076,None,191.31085374100076,None,191.31085374100076,None,,,,,,,,,,,,,,,,,,,,,,,,,,,,,,,,,,,,,,,,,,,,001,35,2020_Jan_30_1151,spring_faces,3.1.5,59.962271858317145,
condition files/Stage0a.xlsx,0a,alpha,none,h,"['h', 'g']","['Chess', 'Go']","[0, 0.5]","[0, 0]",1,0,0,5,5,5,0,0,0,0,,,,,,,,,,,,,,,,,,,,,,,,,,,,,,,,,,,,,,,,,,,,,,,,,,,,,,,,,,,,,,,193.29430728100124,None,193.29430728100124,None,193.29430728100124,None,h,1,0.8670906249990367,194.8274315409999,None,194.8274315409999,None,194.8274315409999,None,195.7606323580003,None,195.7606323580003,None,195.7606323580003,None,195.7606323580003,None,,,,,,,,,,,,,,,,,,,,,,,,,,,,,,,,,,,,,,,,,,,,001,35,2020_Jan_30_1151,spring_faces,3.1.5,59.962271858317145,
condition files/Stage0a.xlsx,0a,beta,none,g,"['h', 'g']","['Chess', 'Go']","[0, 0.5]","[0, 0]",1,0,0,5,5,5,0,1,1,1,,,,,,,,,,,,,,,,,,,,,,,,,,,,,,,,,,,,,,,,,,,,,,,,,,,,,,,,,,,,,,,197.7265932950013,None,197.7265932950013,None,197.7265932950013,None,g,1,0.6577011680001306,199.2608961670012,None,199.2608961670012,None,199.2608961670012,None,199.97777821900127,None,199.97777821900127,None,199.97777821900127,None,199.97777821900127,None,,,,,,,,,,,,,,,,,,,,,,,,,,,,,,,,,,,,,,,,,,,,001,35,2020_Jan_30_1151,spring_faces,3.1.5,59.962271858317145,
condition files/Stage0b_1.xlsx,0b,alpha,none,h,"['h', 'g']","['Chess', 'Go']","[-0.15, 0.5]","[0.15, 0.5]",1,0,0,6,6,6,0,0,0,0,,,,,,,,,,,,,,,,,,,,,,,,,,,,,,,,,,,,,,,,,,,,,,,,,,,,,,,,,,,,,,,201.9606073140003,None,201.9606073140003,None,201.9606073140003,None,h,1,0.8411751860003278,203.49343637400125,None,203.49343637400125,None,203.49343637400125,None,204.3936632189998,None,204.3936632189998,None,204.3936632189998,None,204.3936632189998,None,,,,,,,,,,,,,,,,,,,,,,,,,,,,,,,,,,,,,,,,,,,,001,35,2020_Jan_30_1151,spring_faces,3.1.5,59.962271858317145,
condition files/Stage0b_1.xlsx,0b,none,beta,g,"['h', 'g']","['Chess', 'Go']","[-0.15, 0.5]","[0.15, 0.5]",0,1,0,6,6,6,0,1,1,1,,,,,,,,,,,,,,,,,,,,,,,,,,,,,,,,,,,,,,,,,,,,,,,,,,,,,,,,,,,,,,,206.3597632990004,None,206.3597632990004,None,206.3597632990004,None,g,1,0.839696245999221,207.91083148899997,None,207.91083148899997,None,207.91083148899997,None,208.82693409500098,None,208.82693409500098,None,208.82693409500098,None,208.82693409500098,None,,,,,,,,,,,,,,,,,,,,,,,,,,,,,,,,,,,,,,,,,,,,001,35,2020_Jan_30_1151,spring_faces,3.1.5,59.962271858317145,
condition files/Stage0b_2.xlsx,0b,beta,none,g,"['h', 'g']","['Chess', 'Go']","[-0.15, 0.5]","[0.15, 0.5]",1,0,0,7,7,7,0,0,0,1,,,,,,,,,,,,,,,,,,,,,,,,,,,,,,,,,,,,,,,,,,,,,,,,,,,,,,,,,,,,,,,210.79408212900125,None,210.79408212900125,None,210.79408212900125,None,g,1,1.3501479429996834,212.34436406900022,None,212.34436406900022,None,212.34436406900022,None,213.7606657610013,None,213.7606657610013,None,213.7606657610013,None,213.7606657610013,None,,,,,,,,,,,,,,,,,,,,,,,,,,,,,,,,,,,,,,,,,,,,001,35,2020_Jan_30_1151,spring_faces,3.1.5,59.962271858317145,
condition files/Stage0b_2.xlsx,0b,none,alpha,h,"['h', 'g']","['Chess', 'Go']","[-0.15, 0.5]","[0.15, 0.5]",0,1,0,7,7,7,0,1,1,0,,,,,,,,,,,,,,,,,,,,,,,,,,,,,,,,,,,,,,,,,,,,,,,,,,,,,,,,,,,,,,,215.72756009000113,None,215.72756009000113,None,215.72756009000113,None,h,1,1.0254296040002373,217.27716866900118,None,217.27716866900118,None,217.27716866900118,None,218.36474993199954,None,218.36474993199954,None,218.36474993199954,None,218.36474993199954,None,,,,,,,,,,,,,,,,,,,,,,,,,,,,,,,,,,,,,,,,,,,,001,35,2020_Jan_30_1151,spring_faces,3.1.5,59.962271858317145,
condition files/Stage0b_1.xlsx,0b,alpha,none,h,"['h', 'g']","['Chess', 'Go']","[-0.15, 0.5]","[0.15, 0.5]",1,0,0,8,8,8,0,0,0,0,,,,,,,,,,,,,,,,,,,,,,,,,,,,,,,,,,,,,,,,,,,,,,,,,,,,,,,,,,,,,,,220.34387046899974,None,220.34387046899974,None,220.34387046899974,None,g,0,1.7640467669989448,221.882521517,None,221.882521517,None,221.882521517,None,223.7108575660004,None,223.7108575660004,None,223.7108575660004,None,223.7108575660004,None,,,,,,,,,,,,,,,,,,,,,,,,,,,,,,,,,,,,,,,,,,,,001,35,2020_Jan_30_1151,spring_faces,3.1.5,59.962271858317145,
condition files/Stage0b_1.xlsx,0b,none,beta,g,"['h', 'g']","['Chess', 'Go']","[-0.15, 0.5]","[0.15, 0.5]",0,1,0,8,8,8,0,1,1,1,,,,,,,,,,,,,,,,,,,,,,,,,,,,,,,,,,,,,,,,,,,,,,,,,,,,,,,,,,,,,,,225.67713409200041,None,225.67713409200041,None,225.67713409200041,None,g,1,1.3316637730004004,227.21092809500078,None,227.21092809500078,None,227.21092809500078,None,228.59472293,None,228.59472293,None,228.59472293,None,228.59472293,None,,,,,,,,,,,,,,,,,,,,,,,,,,,,,,,,,,,,,,,,,,,,001,35,2020_Jan_30_1151,spring_faces,3.1.5,59.962271858317145,
condition files/Stage0b_2.xlsx,0b,beta,none,g,"['h', 'g']","['Chess', 'Go']","[-0.15, 0.5]","[0.15, 0.5]",1,0,0,9,9,9,0,0,0,1,,,,,,,,,,,,,,,,,,,,,,,,,,,,,,,,,,,,,,,,,,,,,,,,,,,,,,,,,,,,,,,230.57747921900045,None,230.57747921900045,None,230.57747921900045,None,g,1,0.7962373860009393,232.11436750100074,None,232.11436750100074,None,232.11436750100074,None,232.9608084620013,None,232.9608084620013,None,232.9608084620013,None,232.9608084620013,None,,,,,,,,,,,,,,,,,,,,,,,,,,,,,,,,,,,,,,,,,,,,001,35,2020_Jan_30_1151,spring_faces,3.1.5,59.962271858317145,
condition files/Stage0b_2.xlsx,0b,none,alpha,h,"['h', 'g']","['Chess', 'Go']","[-0.15, 0.5]","[0.15, 0.5]",0,1,0,9,9,9,0,1,1,0,,,,,,,,,,,,,,,,,,,,,,,,,,,,,,,,,,,,,,,,,,,,,,,,,,,,,,,,,,,,,,,234.92647370400118,None,234.92647370400118,None,234.92647370400118,None,h,1,0.8803870109986747,236.46220248899954,None,236.46220248899954,None,236.46220248899954,None,237.39541256800112,None,237.39541256800112,None,237.39541256800112,None,237.39541256800112,None,,,,,,,,,,,,,,,,,,,,,,,,,,,,,,,,,,,,,,,,,,,,001,35,2020_Jan_30_1151,spring_faces,3.1.5,59.962271858317145,
condition files/Stage0b_1.xlsx,0b,none,beta,g,"['h', 'g']","['Chess', 'Go']","[-0.15, 0.5]","[0.15, 0.5]",0,1,0,10,10,10,0,0,0,1,,,,,,,,,,,,,,,,,,,,,,,,,,,,,,,,,,,,,,,,,,,,,,,,,,,,,,,,,,,,,,,239.3774844620002,None,239.3774844620002,None,239.3774844620002,None,g,1,0.7681839409997337,240.91033747800066,None,240.91033747800066,None,240.91033747800066,None,241.74418653199973,None,241.74418653199973,None,241.74418653199973,None,241.74418653199973,None,,,,,,,,,,,,,,,,,,,,,,,,,,,,,,,,,,,,,,,,,,,,001,35,2020_Jan_30_1151,spring_faces,3.1.5,59.962271858317145,
condition files/Stage0b_1.xlsx,0b,alpha,none,h,"['h', 'g']","['Chess', 'Go']","[-0.15, 0.5]","[0.15, 0.5]",1,0,0,10,10,10,0,1,1,0,,,,,,,,,,,,,,,,,,,,,,,,,,,,,,,,,,,,,,,,,,,,,,,,,,,,,,,,,,,,,,,243.70989842100062,None,243.70989842100062,None,243.70989842100062,None,h,1,0.7531988930004445,245.261387818,None,245.261387818,None,245.261387818,None,246.07887479700003,None,246.07887479700003,None,246.07887479700003,None,246.07887479700003,None,,,,,,,,,,,,,,,,,,,,,,,,,,,,,,,,,,,,,,,,,,,,001,35,2020_Jan_30_1151,spring_faces,3.1.5,59.962271858317145,
condition files/Stage0b_2.xlsx,0b,beta,none,g,"['h', 'g']","['Chess', 'Go']","[-0.15, 0.5]","[0.15, 0.5]",1,0,0,11,11,11,0,0,0,1,,,,,,,,,,,,,,,,,,,,,,,,,,,,,,,,,,,,,,,,,,,,,,,,,,,,,,,,,,,,,,,248.06083784800103,None,248.06083784800103,None,248.06083784800103,None,g,1,0.6606032330000744,249.59401324400096,None,249.59401324400096,None,249.59401324400096,None,250.31106365400046,None,250.31106365400046,None,250.31106365400046,None,250.31106365400046,None,,,,,,,,,,,,,,,,,,,,,,,,,,,,,,,,,,,,,,,,,,,,001,35,2020_Jan_30_1151,spring_faces,3.1.5,59.962271858317145,
condition files/Stage0b_2.xlsx,0b,none,alpha,h,"['h', 'g']","['Chess', 'Go']","[-0.15, 0.5]","[0.15, 0.5]",0,1,0,11,11,11,0,1,1,0,,,,,,,,,,,,,,,,,,,,,,,,,,,,,,,,,,,,,,,,,,,,,,,,,,,,,,,,,,,,,,,252.27714712499983,None,252.27714712499983,None,252.27714712499983,None,h,1,1.371160944998337,253.82741856100074,None,253.82741856100074,None,253.82741856100074,None,255.2662997110001,None,255.2662997110001,None,255.2662997110001,None,255.2662997110001,None,,,,,,,,,,,,,,,,,,,,,,,,,,,,,,,,,,,,,,,,,,,,001,35,2020_Jan_30_1151,spring_faces,3.1.5,59.962271858317145,
condition files/Stage0c_1.xlsx,0c,phi,beta,g,"['h', 'g']","['Chess', 'Go']","[-0.15, 0.5]","[0.15, 0.5]",1,1,0,12,12,12,0,0,0,3,,,,,,,,,,,,,,,,,,,,,,,,,,,,,,,,,,,,,,,,,,,,,,,,,,,,,,,,,,,,,,,257.2441212970007,None,257.2441212970007,None,257.2441212970007,None,g,1,6.229263097999137,258.7772641920001,None,258.7772641920001,None,258.7772641920001,None,265.0604286270009,None,265.0604286270009,None,265.0604286270009,None,265.0604286270009,None,,,,,,,,,,,,,,,,,,,,,,,,,,,,,,,,,,,,,,,,,,,,001,35,2020_Jan_30_1151,spring_faces,3.1.5,59.962271858317145,
condition files/Stage0c_1.xlsx,0c,theta,alpha,h,"['h', 'g']","['Chess', 'Go']","[-0.15, 0.5]","[0.15, 0.5]",1,1,0,12,12,12,0,1,1,0,,,,,,,,,,,,,,,,,,,,,,,,,,,,,,,,,,,,,,,,,,,,,,,,,,,,,,,,,,,,,,,267.02678652800023,None,267.02678652800023,None,267.02678652800023,None,h,1,1.5338164040003903,268.5606920930004,None,268.5606920930004,None,268.5606920930004,None,270.1605807699998,None,270.1605807699998,None,270.1605807699998,None,270.1605807699998,None,,,,,,,,,,,,,,,,,,,,,,,,,,,,,,,,,,,,,,,,,,,,001,35,2020_Jan_30_1151,spring_faces,3.1.5,59.962271858317145,
condition files/Stage0c_1.xlsx,0c,alpha,phi,h,"['h', 'g']","['Chess', 'Go']","[-0.15, 0.5]","[0.15, 0.5]",1,1,0,12,12,12,0,2,2,1,,,,,,,,,,,,,,,,,,,,,,,,,,,,,,,,,,,,,,,,,,,,,,,,,,,,,,,,,,,,,,,272.1267490379996,None,272.1267490379996,None,272.1267490379996,None,h,1,0.9140288579983462,273.6605257179999,None,273.6605257179999,None,273.6605257179999,None,274.6274250770002,None,274.6274250770002,None,274.6274250770002,None,274.6274250770002,None,,,,,,,,,,,,,,,,,,,,,,,,,,,,,,,,,,,,,,,,,,,,001,35,2020_Jan_30_1151,spring_faces,3.1.5,59.962271858317145,
condition files/Stage0c_1.xlsx,0c,beta,theta,g,"['h', 'g']","['Chess', 'Go']","[-0.15, 0.5]","[0.15, 0.5]",1,1,0,12,12,12,0,3,3,2,,,,,,,,,,,,,,,,,,,,,,,,,,,,,,,,,,,,,,,,,,,,,,,,,,,,,,,,,,,,,,,276.61079285100095,None,276.61079285100095,None,276.61079285100095,None,g,1,0.7191391609994753,278.1274088860009,None,278.1274088860009,None,278.1274088860009,None,278.9110602310011,None,278.9110602310011,None,278.9110602310011,None,278.9110602310011,None,,,,,,,,,,,,,,,,,,,,,,,,,,,,,,,,,,,,,,,,,,,,001,35,2020_Jan_30_1151,spring_faces,3.1.5,59.962271858317145,
condition files/Stage0c_2.xlsx,0c,theta,beta,g,"['h', 'g']","['Chess', 'Go']","[-0.15, 0.5]","[0.15, 0.5]",1,1,0,13,13,13,0,0,0,2,,,,,,,,,,,,,,,,,,,,,,,,,,,,,,,,,,,,,,,,,,,,,,,,,,,,,,,,,,,,,,,280.89409699600037,None,280.89409699600037,None,280.89409699600037,None,g,1,0.8674127070007671,282.4271070579998,None,282.4271070579998,None,282.4271070579998,None,283.3306689260007,None,283.3306689260007,None,283.3306689260007,None,283.3306689260007,None,,,,,,,,,,,,,,,,,,,,,,,,,,,,,,,,,,,,,,,,,,,,001,35,2020_Jan_30_1151,spring_faces,3.1.5,59.962271858317145,
condition files/Stage0c_2.xlsx,0c,alpha,theta,h,"['h', 'g']","['Chess', 'Go']","[-0.15, 0.5]","[0.15, 0.5]",1,1,0,13,13,13,0,1,1,0,,,,,,,,,,,,,,,,,,,,,,,,,,,,,,,,,,,,,,,,,,,,,,,,,,,,,,,,,,,,,,,285.3104879630009,None,285.3104879630009,None,285.3104879630009,None,h,1,1.8425660889988649,286.8440412809996,None,286.8440412809996,None,286.8440412809996,None,288.74375549199976,None,288.74375549199976,None,288.74375549199976,None,288.74375549199976,None,,,,,,,,,,,,,,,,,,,,,,,,,,,,,,,,,,,,,,,,,,,,001,35,2020_Jan_30_1151,spring_faces,3.1.5,59.962271858317145,
condition files/Stage0c_2.xlsx,0c,phi,alpha,h,"['h', 'g']","['Chess', 'Go']","[-0.15, 0.5]","[0.15, 0.5]",1,1,0,13,13,13,0,2,2,1,,,,,,,,,,,,,,,,,,,,,,,,,,,,,,,,,,,,,,,,,,,,,,,,,,,,,,,,,,,,,,,290.7104810960009,None,290.7104810960009,None,290.7104810960009,None,h,1,0.8585409139996045,292.24404219700045,None,292.24404219700045,None,292.24404219700045,None,293.14630442400085,None,293.14630442400085,None,293.14630442400085,None,293.14630442400085,None,,,,,,,,,,,,,,,,,,,,,,,,,,,,,,,,,,,,,,,,,,,,001,35,2020_Jan_30_1151,spring_faces,3.1.5,59.962271858317145,
condition files/Stage0c_2.xlsx,0c,beta,phi,g,"['h', 'g']","['Chess', 'Go']","[-0.15, 0.5]","[0.15, 0.5]",1,1,0,13,13,13,0,3,3,3,,,,,,,,,,,,,,,,,,,,,,,,,,,,,,,,,,,,,,,,,,,,,,,,,,,,,,,,,,,,,,,295.1268699400007,None,295.1268699400007,None,295.1268699400007,None,g,1,1.4983472870007972,296.660192931,None,296.660192931,None,296.660192931,None,298.2108477840011,None,298.2108477840011,None,298.2108477840011,None,298.2108477840011,None,,,,,,,,,,,,,,,,,,,,,,,,,,,,,,,,,,,,,,,,,,,,001,35,2020_Jan_30_1151,spring_faces,3.1.5,59.962271858317145,
condition files/Stage0c_1.xlsx,0c,phi,beta,g,"['h', 'g']","['Chess', 'Go']","[-0.15, 0.5]","[0.15, 0.5]",1,1,0,14,14,14,0,0,0,3,,,,,,,,,,,,,,,,,,,,,,,,,,,,,,,,,,,,,,,,,,,,,,,,,,,,,,,,,,,,,,,300.19384065099985,None,300.19384065099985,None,300.19384065099985,None,g,1,0.9753167079998093,301.72730031300125,None,301.72730031300125,None,301.72730031300125,None,302.7467310160009,None,302.7467310160009,None,302.7467310160009,None,302.7467310160009,None,,,,,,,,,,,,,,,,,,,,,,,,,,,,,,,,,,,,,,,,,,,,001,35,2020_Jan_30_1151,spring_faces,3.1.5,59.962271858317145,
condition files/Stage0c_1.xlsx,0c,theta,alpha,h,"['h', 'g']","['Chess', 'Go']","[-0.15, 0.5]","[0.15, 0.5]",1,1,0,14,14,14,0,1,1,0,,,,,,,,,,,,,,,,,,,,,,,,,,,,,,,,,,,,,,,,,,,,,,,,,,,,,,,,,,,,,,,304.727484301,None,304.727484301,None,304.727484301,None,h,1,0.7941382299995894,306.2604707900009,None,306.2604707900009,None,306.2604707900009,None,307.1107531180005,None,307.1107531180005,None,307.1107531180005,None,307.1107531180005,None,,,,,,,,,,,,,,,,,,,,,,,,,,,,,,,,,,,,,,,,,,,,001,35,2020_Jan_30_1151,spring_faces,3.1.5,59.962271858317145,
condition files/Stage0c_1.xlsx,0c,alpha,phi,h,"['h', 'g']","['Chess', 'Go']","[-0.15, 0.5]","[0.15, 0.5]",1,1,0,14,14,14,0,2,2,1,,,,,,,,,,,,,,,,,,,,,,,,,,,,,,,,,,,,,,,,,,,,,,,,,,,,,,,,,,,,,,,309.07705921900015,None,309.07705921900015,None,309.07705921900015,None,h,1,0.6998581259995262,310.61074543500035,None,310.61074543500035,None,310.61074543500035,None,311.3467165540005,None,311.3467165540005,None,311.3467165540005,None,311.3467165540005,None,,,,,,,,,,,,,,,,,,,,,,,,,,,,,,,,,,,,,,,,,,,,001,35,2020_Jan_30_1151,spring_faces,3.1.5,59.962271858317145,
condition files/Stage0c_1.xlsx,0c,beta,theta,g,"['h', 'g']","['Chess', 'Go']","[-0.15, 0.5]","[0.15, 0.5]",1,1,0,14,14,14,0,3,3,2,,,,,,,,,,,,,,,,,,,,,,,,,,,,,,,,,,,,,,,,,,,,,,,,,,,,,,,,,,,,,,,313.32689821500026,None,313.32689821500026,None,313.32689821500026,None,g,1,0.6419201419994351,314.86068231600075,None,314.86068231600075,None,314.86068231600075,None,315.5601688940005,None,315.5601688940005,None,315.5601688940005,None,315.5601688940005,None,,,,,,,,,,,,,,,,,,,,,,,,,,,,,,,,,,,,,,,,,,,,001,35,2020_Jan_30_1151,spring_faces,3.1.5,59.962271858317145,
condition files/Stage0c_2.xlsx,0c,theta,beta,g,"['h', 'g']","['Chess', 'Go']","[-0.15, 0.5]","[0.15, 0.5]",1,1,0,15,15,15,0,0,0,2,,,,,,,,,,,,,,,,,,,,,,,,,,,,,,,,,,,,,,,,,,,,,,,,,,,,,,,,,,,,,,,317.5439605070005,None,317.5439605070005,None,317.5439605070005,None,g,1,0.7290435349987092,319.0774993840005,None,319.0774993840005,None,319.0774993840005,None,319.8464819960009,None,319.8464819960009,None,319.8464819960009,None,319.8464819960009,None,,,,,,,,,,,,,,,,,,,,,,,,,,,,,,,,,,,,,,,,,,,,001,35,2020_Jan_30_1151,spring_faces,3.1.5,59.962271858317145,
condition files/Stage0c_2.xlsx,0c,beta,phi,g,"['h', 'g']","['Chess', 'Go']","[-0.15, 0.5]","[0.15, 0.5]",1,1,0,15,15,15,0,1,1,3,,,,,,,,,,,,,,,,,,,,,,,,,,,,,,,,,,,,,,,,,,,,,,,,,,,,,,,,,,,,,,,321.8271263509996,None,321.8271263509996,None,321.8271263509996,None,g,1,0.6379244890013069,323.36065033399973,None,323.36065033399973,None,323.36065033399973,None,324.0437821579999,None,324.0437821579999,None,324.0437821579999,None,324.0437821579999,None,,,,,,,,,,,,,,,,,,,,,,,,,,,,,,,,,,,,,,,,,,,,001,35,2020_Jan_30_1151,spring_faces,3.1.5,59.962271858317145,
condition files/Stage0c_2.xlsx,0c,phi,alpha,h,"['h', 'g']","['Chess', 'Go']","[-0.15, 0.5]","[0.15, 0.5]",1,1,0,15,15,15,0,2,2,1,,,,,,,,,,,,,,,,,,,,,,,,,,,,,,,,,,,,,,,,,,,,,,,,,,,,,,,,,,,,,,,326.0439683479999,None,326.0439683479999,None,326.0439683479999,None,h,1,0.6140356389987573,327.5605035240005,None,327.5605035240005,None,327.5605035240005,None,328.2274773780009,None,328.2274773780009,None,328.2274773780009,None,328.2274773780009,None,,,,,,,,,,,,,,,,,,,,,,,,,,,,,,,,,,,,,,,,,,,,001,35,2020_Jan_30_1151,spring_faces,3.1.5,59.962271858317145,
condition files/Stage0c_2.xlsx,0c,alpha,theta,h,"['h', 'g']","['Chess', 'Go']","[-0.15, 0.5]","[0.15, 0.5]",1,1,0,15,15,15,0,3,3,0,,,,,,,,,,,,,,,,,,,,,,,,,,,,,,,,,,,,,,,,,,,,,,,,,,,,,,,,,,,,,,,330.1938212109999,None,330.1938212109999,None,330.1938212109999,None,h,1,1.3431470220002666,331.72744179599977,None,331.72744179599977,None,331.72744179599977,None,333.11291203700057,None,333.11291203700057,None,333.11291203700057,None,333.11291203700057,None,,,,,,,,,,,,,,,,,,,,,,,,,,,,,,,,,,,,,,,,,,,,001,35,2020_Jan_30_1151,spring_faces,3.1.5,59.962271858317145,
condition files/Stage0c_1.xlsx,0c,phi,beta,g,"['h', 'g']","['Chess', 'Go']","[-0.15, 0.5]","[0.15, 0.5]",1,1,0,16,16,16,0,0,0,3,,,,,,,,,,,,,,,,,,,,,,,,,,,,,,,,,,,,,,,,,,,,,,,,,,,,,,,,,,,,,,,335.11072146900005,None,335.11072146900005,None,335.11072146900005,None,g,1,1.8343644269989454,336.64416343800076,None,336.64416343800076,None,336.64416343800076,None,338.5441380909997,None,338.5441380909997,None,338.5441380909997,None,338.5441380909997,None,,,,,,,,,,,,,,,,,,,,,,,,,,,,,,,,,,,,,,,,,,,,001,35,2020_Jan_30_1151,spring_faces,3.1.5,59.962271858317145,
condition files/Stage0c_1.xlsx,0c,theta,alpha,h,"['h', 'g']","['Chess', 'Go']","[-0.15, 0.5]","[0.15, 0.5]",1,1,0,16,16,16,0,1,1,0,,,,,,,,,,,,,,,,,,,,,,,,,,,,,,,,,,,,,,,,,,,,,,,,,,,,,,,,,,,,,,,340.5099713470008,None,340.5099713470008,None,340.5099713470008,None,h,1,2.387231177999638,342.0433482570006,None,342.0433482570006,None,342.0433482570006,None,344.49413072599964,None,344.49413072599964,None,344.49413072599964,None,344.49413072599964,None,,,,,,,,,,,,,,,,,,,,,,,,,,,,,,,,,,,,,,,,,,,,001,35,2020_Jan_30_1151,spring_faces,3.1.5,59.962271858317145,
condition files/Stage0c_1.xlsx,0c,beta,theta,g,"['h', 'g']","['Chess', 'Go']","[-0.15, 0.5]","[0.15, 0.5]",1,1,0,16,16,16,0,2,2,2,,,,,,,,,,,,,,,,,,,,,,,,,,,,,,,,,,,,,,,,,,,,,,,,,,,,,,,,,,,,,,,346.460492047001,None,346.460492047001,None,346.460492047001,None,g,1,2.836681770000723,347.9939000560007,None,347.9939000560007,None,347.9939000560007,None,350.89403825000045,None,350.89403825000045,None,350.89403825000045,None,350.89403825000045,None,,,,,,,,,,,,,,,,,,,,,,,,,,,,,,,,,,,,,,,,,,,,001,35,2020_Jan_30_1151,spring_faces,3.1.5,59.962271858317145,
condition files/Stage0c_1.xlsx,0c,alpha,phi,h,"['h', 'g']","['Chess', 'Go']","[-0.15, 0.5]","[0.15, 0.5]",1,1,0,16,16,16,0,3,3,1,,,,,,,,,,,,,,,,,,,,,,,,,,,,,,,,,,,,,,,,,,,,,,,,,,,,,,,,,,,,,,,352.86075553000046,None,352.86075553000046,None,352.86075553000046,None,h,1,1.5563904770006047,354.3941833299996,None,354.3941833299996,None,354.3941833299996,None,356.01085122100085,None,356.01085122100085,None,356.01085122100085,None,356.01085122100085,None,,,,,,,,,,,,,,,,,,,,,,,,,,,,,,,,,,,,,,,,,,,,001,35,2020_Jan_30_1151,spring_faces,3.1.5,59.962271858317145,
condition files/Stage0c_2.xlsx,0c,beta,phi,g,"['h', 'g']","['Chess', 'Go']","[-0.15, 0.5]","[0.15, 0.5]",1,1,0,17,17,17,0,0,0,3,,,,,,,,,,,,,,,,,,,,,,,,,,,,,,,,,,,,,,,,,,,,,,,,,,,,,,,,,,,,,,,357.9942230020006,None,357.9942230020006,None,357.9942230020006,None,g,1,1.2235016859995085,359.5270813469997,None,359.5270813469997,None,359.5270813469997,None,360.81088891000036,None,360.81088891000036,None,360.81088891000036,None,360.81088891000036,None,,,,,,,,,,,,,,,,,,,,,,,,,,,,,,,,,,,,,,,,,,,,001,35,2020_Jan_30_1151,spring_faces,3.1.5,59.962271858317145,
condition files/Stage0c_2.xlsx,0c,alpha,theta,h,"['h', 'g']","['Chess', 'Go']","[-0.15, 0.5]","[0.15, 0.5]",1,1,0,17,17,17,0,1,1,0,,,,,,,,,,,,,,,,,,,,,,,,,,,,,,,,,,,,,,,,,,,,,,,,,,,,,,,,,,,,,,,362.7766542720001,None,362.7766542720001,None,362.7766542720001,None,h,1,1.1917169000007561,364.3107432830002,None,364.3107432830002,None,364.3107432830002,None,365.5605650840007,None,365.5605650840007,None,365.5605650840007,None,365.5605650840007,None,,,,,,,,,,,,,,,,,,,,,,,,,,,,,,,,,,,,,,,,,,,,001,35,2020_Jan_30_1151,spring_faces,3.1.5,59.962271858317145,
condition files/Stage0c_2.xlsx,0c,theta,beta,g,"['h', 'g']","['Chess', 'Go']","[-0.15, 0.5]","[0.15, 0.5]",1,1,0,17,17,17,0,2,2,2,,,,,,,,,,,,,,,,,,,,,,,,,,,,,,,,,,,,,,,,,,,,,,,,,,,,,,,,,,,,,,,367.52724609300094,None,367.52724609300094,None,367.52724609300094,None,g,1,1.2096845629985182,369.06089700600023,None,369.06089700600023,None,369.06089700600023,None,370.32731767600126,None,370.32731767600126,None,370.32731767600126,None,370.32731767600126,None,,,,,,,,,,,,,,,,,,,,,,,,,,,,,,,,,,,,,,,,,,,,001,35,2020_Jan_30_1151,spring_faces,3.1.5,59.962271858317145,
condition files/Stage0c_2.xlsx,0c,phi,alpha,h,"['h', 'g']","['Chess', 'Go']","[-0.15, 0.5]","[0.15, 0.5]",1,1,0,17,17,17,0,3,3,1,,,,,,,,,,,,,,,,,,,,,,,,,,,,,,,,,,,,,,,,,,,,,,,,,,,,,,,,,,,,,,,372.2936428339999,None,372.2936428339999,None,372.2936428339999,None,h,1,0.955603610000253,373.82697552900026,None,373.82697552900026,None,373.82697552900026,None,374.844252592,None,374.844252592,None,374.844252592,None,374.844252592,None,,,,,,,,,,,,,,,,,,,,,,,,,,,,,,,,,,,,,,,,,,,,001,35,2020_Jan_30_1151,spring_faces,3.1.5,59.962271858317145,
,,,,,,,,,,,,,,,,,,,,,,,,,,,,,,,,,,,,,,,,,,,,,,,,,,,,,,,,,,,,,,,,,,,,,,,,,,,,,,,,,,,,,,,,,,,,,,,,,,,,,,,,376.8272190780008,None,space,1.7389925359984773,381.8276174490002,None,,,,,,,,,,,,,,,,,,,,,,,,,,,,,,,,,,,,,,001,35,2020_Jan_30_1151,spring_faces,3.1.5,59.962271858317145,
condition files/Stage1_1.xlsx,,T2,B2,m,"['c', 'm']","['Clue', 'Monopoly']","[-0.15, 0.5]","[0.15, 0.5]",1,1,,,,,,,,,0,0,0,0,0,0,0,3,,,,,,,,,,,,,,,,,,,,,,,,,,,,,,,,,,,,,,,,,,,,,,,,,,,,,,,383.6275690980001,None,383.6275690980001,None,383.6275690980001,None,m,1,1.7477390229996672,385.2268131230012,None,385.2268131230012,None,385.2268131230012,None,387.04394017100094,None,387.04394017100094,None,387.04394017100094,None,387.04394017100094,None,,,,,,,381.8276174490002,None,,,,,,,,,,,,,,,,,,,,,,,,,,,,,,,,,,,,001,35,2020_Jan_30_1151,spring_faces,3.1.5,59.962271858317145,
condition files/Stage1_1.xlsx,,B4,T4,m,"['c', 'm']","['Clue', 'Monopoly']","[-0.15, 0.5]","[0.15, 0.5]",1,1,,,,,,,,,0,0,0,0,0,1,1,7,,,,,,,,,,,,,,,,,,,,,,,,,,,,,,,,,,,,,,,,,,,,,,,,,,,,,,,388.9936451579997,None,388.9936451579997,None,388.9936451579997,None,c,0,1.7751318289992923,390.54347326400057,None,390.54347326400057,None,390.54347326400057,None,392.3772296389998,None,392.3772296389998,None,392.3772296389998,None,392.3772296389998,None,,,,,,,,,,,,,,,,,,,,,,,,,,,,,,,,,,,,,,,,,,,,001,35,2020_Jan_30_1151,spring_faces,3.1.5,59.962271858317145,
condition files/Stage1_1.xlsx,,B1,T2,c,"['c', 'm']","['Clue', 'Monopoly']","[-0.15, 0.5]","[0.15, 0.5]",1,1,,,,,,,,,0,0,0,0,0,2,2,1,,,,,,,,,,,,,,,,,,,,,,,,,,,,,,,,,,,,,,,,,,,,,,,,,,,,,,,394.34381251000013,None,394.34381251000013,None,394.34381251000013,None,m,0,1.4802980000004027,395.8782723940003,None,395.8782723940003,None,395.8782723940003,None,397.426620319,None,397.426620319,None,397.426620319,None,397.426620319,None,,,,,,,,,,,,,,,,,,,,,,,,,,,,,,,,,,,,,,,,,,,,001,35,2020_Jan_30_1151,spring_faces,3.1.5,59.962271858317145,
condition files/Stage1_1.xlsx,,T4,B3,m,"['c', 'm']","['Clue', 'Monopoly']","[-0.15, 0.5]","[0.15, 0.5]",1,1,,,,,,,,,0,0,0,0,0,3,3,6,,,,,,,,,,,,,,,,,,,,,,,,,,,,,,,,,,,,,,,,,,,,,,,,,,,,,,,399.37734276500123,None,399.37734276500123,None,399.37734276500123,None,c,0,3.263445477999994,400.92733380000027,None,400.92733380000027,None,400.92733380000027,None,404.245070242001,None,404.245070242001,None,404.245070242001,None,404.245070242001,None,,,,,,,,,,,,,,,,,,,,,,,,,,,,,,,,,,,,,,,,,,,,001,35,2020_Jan_30_1151,spring_faces,3.1.5,59.962271858317145,
condition files/Stage1_1.xlsx,,T1,B1,c,"['c', 'm']","['Clue', 'Monopoly']","[-0.15, 0.5]","[0.15, 0.5]",1,1,,,,,,,,,0,0,0,0,0,4,4,0,,,,,,,,,,,,,,,,,,,,,,,,,,,,,,,,,,,,,,,,,,,,,,,,,,,,,,,406.210478029001,None,406.210478029001,None,406.210478029001,None,c,1,2.989635891999569,407.76096099000097,None,407.76096099000097,None,407.76096099000097,None,410.8273892920006,None,410.8273892920006,None,410.8273892920006,None,410.8273892920006,None,,,,,,,,,,,,,,,,,,,,,,,,,,,,,,,,,,,,,,,,,,,,001,35,2020_Jan_30_1151,spring_faces,3.1.5,59.962271858317145,
condition files/Stage1_1.xlsx,,B3,T3,c,"['c', 'm']","['Clue', 'Monopoly']","[-0.15, 0.5]","[0.15, 0.5]",1,1,,,,,,,,,0,0,0,0,0,5,5,4,,,,,,,,,,,,,,,,,,,,,,,,,,,,,,,,,,,,,,,,,,,,,,,,,,,,,,,412.7769509690006,None,412.7769509690006,None,412.7769509690006,None,m,0,2.933920854000462,414.32856460600124,None,414.32856460600124,None,414.32856460600124,None,417.32745500000055,None,417.32745500000055,None,417.32745500000055,None,417.32745500000055,None,,,,,,,,,,,,,,,,,,,,,,,,,,,,,,,,,,,,,,,,,,,,001,35,2020_Jan_30_1151,spring_faces,3.1.5,59.962271858317145,
condition files/Stage1_1.xlsx,,B2,T1,m,"['c', 'm']","['Clue', 'Monopoly']","[-0.15, 0.5]","[0.15, 0.5]",1,1,,,,,,,,,0,0,0,0,0,6,6,2,,,,,,,,,,,,,,,,,,,,,,,,,,,,,,,,,,,,,,,,,,,,,,,,,,,,,,,419.2939693879998,None,419.2939693879998,None,419.2939693879998,None,c,0,1.9695217580010649,420.82908391099954,None,420.82908391099954,None,420.82908391099954,None,422.86091590100114,None,422.86091590100114,None,422.86091590100114,None,422.86091590100114,None,,,,,,,,,,,,,,,,,,,,,,,,,,,,,,,,,,,,,,,,,,,,001,35,2020_Jan_30_1151,spring_faces,3.1.5,59.962271858317145,
condition files/Stage1_1.xlsx,,T3,B4,c,"['c', 'm']","['Clue', 'Monopoly']","[-0.15, 0.5]","[0.15, 0.5]",1,1,,,,,,,,,0,0,0,0,0,7,7,5,,,,,,,,,,,,,,,,,,,,,,,,,,,,,,,,,,,,,,,,,,,,,,,,,,,,,,,424.8277062289999,None,424.8277062289999,None,424.8277062289999,None,m,0,1.0925473170009354,426.3620723180011,None,426.3620723180011,None,426.3620723180011,None,427.51170281899977,None,427.51170281899977,None,427.51170281899977,None,427.51170281899977,None,,,,,,,,,,,,,,,,,,,,,,,,,,,,,,,,,,,,,,,,,,,,001,35,2020_Jan_30_1151,spring_faces,3.1.5,59.962271858317145,
condition files/Stage1_2.xlsx,,B4,T3,c,"['c', 'm']","['Clue', 'Monopoly']","[-0.15, 0.5]","[0.15, 0.5]",1,1,,,,,,,,,0,1,1,1,0,0,0,5,,,,,,,,,,,,,,,,,,,,,,,,,,,,,,,,,,,,,,,,,,,,,,,,,,,,,,,429.49416325899983,None,429.49416325899983,None,429.49416325899983,None,c,1,2.1226879240002745,431.0279435430002,None,431.0279435430002,None,431.0279435430002,None,433.2107456920003,None,433.2107456920003,None,433.2107456920003,None,433.2107456920003,None,,,,,,,,,,,,,,,,,,,,,,,,,,,,,,,,,,,,,,,,,,,,001,35,2020_Jan_30_1151,spring_faces,3.1.5,59.962271858317145,
condition files/Stage1_2.xlsx,,T2,B1,c,"['c', 'm']","['Clue', 'Monopoly']","[-0.15, 0.5]","[0.15, 0.5]",1,1,,,,,,,,,0,1,1,1,0,1,1,1,,,,,,,,,,,,,,,,,,,,,,,,,,,,,,,,,,,,,,,,,,,,,,,,,,,,,,,435.17692423300105,None,435.17692423300105,None,435.17692423300105,None,m,0,1.623796156998651,436.7267426369999,None,436.7267426369999,None,436.7267426369999,None,438.41109216600125,None,438.41109216600125,None,438.41109216600125,None,438.41109216600125,None,,,,,,,,,,,,,,,,,,,,,,,,,,,,,,,,,,,,,,,,,,,,001,35,2020_Jan_30_1151,spring_faces,3.1.5,59.962271858317145,
condition files/Stage1_2.xlsx,,B3,T4,m,"['c', 'm']","['Clue', 'Monopoly']","[-0.15, 0.5]","[0.15, 0.5]",1,1,,,,,,,,,0,1,1,1,0,2,2,6,,,,,,,,,,,,,,,,,,,,,,,,,,,,,,,,,,,,,,,,,,,,,,,,,,,,,,,440.3770427420004,None,440.3770427420004,None,440.3770427420004,None,c,0,4.935756513999877,441.910807925,None,441.910807925,None,441.910807925,None,446.9106254720009,None,446.9106254720009,None,446.9106254720009,None,446.9106254720009,None,,,,,,,,,,,,,,,,,,,,,,,,,,,,,,,,,,,,,,,,,,,,001,35,2020_Jan_30_1151,spring_faces,3.1.5,59.962271858317145,
condition files/Stage1_2.xlsx,,B2,T2,m,"['c', 'm']","['Clue', 'Monopoly']","[-0.15, 0.5]","[0.15, 0.5]",1,1,,,,,,,,,0,1,1,1,0,3,3,3,,,,,,,,,,,,,,,,,,,,,,,,,,,,,,,,,,,,,,,,,,,,,,,,,,,,,,,448.8773779359999,None,448.8773779359999,None,448.8773779359999,None,c,0,3.0743948590006767,450.41225342300095,None,450.41225342300095,None,450.41225342300095,None,453.54417710800044,None,453.54417710800044,None,453.54417710800044,None,453.54417710800044,None,,,,,,,,,,,,,,,,,,,,,,,,,,,,,,,,,,,,,,,,,,,,001,35,2020_Jan_30_1151,spring_faces,3.1.5,59.962271858317145,
condition files/Stage1_2.xlsx,,T3,B3,c,"['c', 'm']","['Clue', 'Monopoly']","[-0.15, 0.5]","[0.15, 0.5]",1,1,,,,,,,,,0,1,1,1,0,4,4,4,,,,,,,,,,,,,,,,,,,,,,,,,,,,,,,,,,,,,,,,,,,,,,,,,,,,,,,455.510592871,None,455.510592871,None,455.510592871,None,m,0,4.84176313900025,457.04488113499974,None,457.04488113499974,None,457.04488113499974,None,461.945184487,None,461.945184487,None,461.945184487,None,461.945184487,None,,,,,,,,,,,,,,,,,,,,,,,,,,,,,,,,,,,,,,,,,,,,001,35,2020_Jan_30_1151,spring_faces,3.1.5,59.962271858317145,
condition files/Stage1_2.xlsx,,T1,B2,m,"['c', 'm']","['Clue', 'Monopoly']","[-0.15, 0.5]","[0.15, 0.5]",1,1,,,,,,,,,0,1,1,1,0,5,5,2,,,,,,,,,,,,,,,,,,,,,,,,,,,,,,,,,,,,,,,,,,,,,,,,,,,,,,,463.9101694130004,None,463.9101694130004,None,463.9101694130004,None,c,0,2.090494728001431,465.444128354,None,465.444128354,None,465.444128354,None,467.5960197460008,None,467.5960197460008,None,467.5960197460008,None,467.5960197460008,None,,,,,,,,,,,,,,,,,,,,,,,,,,,,,,,,,,,,,,,,,,,,001,35,2020_Jan_30_1151,spring_faces,3.1.5,59.962271858317145,
condition files/Stage1_2.xlsx,,B1,T1,c,"['c', 'm']","['Clue', 'Monopoly']","[-0.15, 0.5]","[0.15, 0.5]",1,1,,,,,,,,,0,1,1,1,0,6,6,0,,,,,,,,,,,,,,,,,,,,,,,,,,,,,,,,,,,,,,,,,,,,,,,,,,,,,,,469.5604653099999,None,469.5604653099999,None,469.5604653099999,None,m,0,2.3771902910011704,471.0933954690008,None,471.0933954690008,None,471.0933954690008,None,473.5442805210005,None,473.5442805210005,None,473.5442805210005,None,473.5442805210005,None,,,,,,,,,,,,,,,,,,,,,,,,,,,,,,,,,,,,,,,,,,,,001,35,2020_Jan_30_1151,spring_faces,3.1.5,59.962271858317145,
condition files/Stage1_2.xlsx,,T4,B4,m,"['c', 'm']","['Clue', 'Monopoly']","[-0.15, 0.5]","[0.15, 0.5]",1,1,,,,,,,,,0,1,1,1,0,7,7,7,,,,,,,,,,,,,,,,,,,,,,,,,,,,,,,,,,,,,,,,,,,,,,,,,,,,,,,475.49355941199974,None,475.49355941199974,None,475.49355941199974,None,c,0,1.691570523998962,477.0270204570006,None,477.0270204570006,None,477.0270204570006,None,478.77705394999975,None,478.77705394999975,None,478.77705394999975,None,478.77705394999975,None,,,,,,,,,,,,,,,,,,,,,,,,,,,,,,,,,,,,,,,,,,,,001,35,2020_Jan_30_1151,spring_faces,3.1.5,59.962271858317145,
condition files/Stage1_1.xlsx,,B3,T3,c,"['c', 'm']","['Clue', 'Monopoly']","[-0.15, 0.5]","[0.15, 0.5]",1,1,,,,,,,,,0,2,2,2,0,0,0,4,,,,,,,,,,,,,,,,,,,,,,,,,,,,,,,,,,,,,,,,,,,,,,,,,,,,,,,480.7609738709998,None,480.7609738709998,None,480.7609738709998,None,c,1,1.8317325269999856,482.3108582320001,None,482.3108582320001,None,482.3108582320001,None,484.19558907600003,None,484.19558907600003,None,484.19558907600003,None,484.19558907600003,None,,,,,,,,,,,,,,,,,,,,,,,,,,,,,,,,,,,,,,,,,,,,001,35,2020_Jan_30_1151,spring_faces,3.1.5,59.962271858317145,
condition files/Stage1_1.xlsx,,B2,T1,m,"['c', 'm']","['Clue', 'Monopoly']","[-0.15, 0.5]","[0.15, 0.5]",1,1,,,,,,,,,0,2,2,2,0,1,1,2,,,,,,,,,,,,,,,,,,,,,,,,,,,,,,,,,,,,,,,,,,,,,,,,,,,,,,,486.16050410299977,None,486.16050410299977,None,486.16050410299977,None,c,0,3.1847650520012394,487.6937745970008,None,487.6937745970008,None,487.6937745970008,None,490.9455488290005,None,490.9455488290005,None,490.9455488290005,None,490.9455488290005,None,,,,,,,,,,,,,,,,,,,,,,,,,,,,,,,,,,,,,,,,,,,,001,35,2020_Jan_30_1151,spring_faces,3.1.5,59.962271858317145,
condition files/Stage1_1.xlsx,,B1,T2,c,"['c', 'm']","['Clue', 'Monopoly']","[-0.15, 0.5]","[0.15, 0.5]",1,1,,,,,,,,,0,2,2,2,0,2,2,1,,,,,,,,,,,,,,,,,,,,,,,,,,,,,,,,,,,,,,,,,,,,,,,,,,,,,,,492.91055828000026,None,492.91055828000026,None,492.91055828000026,None,m,0,2.241834671000106,494.4607707560008,None,494.4607707560008,None,494.4607707560008,None,496.7774508880011,None,496.7774508880011,None,496.7774508880011,None,496.7774508880011,None,,,,,,,,,,,,,,,,,,,,,,,,,,,,,,,,,,,,,,,,,,,,001,35,2020_Jan_30_1151,spring_faces,3.1.5,59.962271858317145,
condition files/Stage1_1.xlsx,,T3,B4,c,"['c', 'm']","['Clue', 'Monopoly']","[-0.15, 0.5]","[0.15, 0.5]",1,1,,,,,,,,,0,2,2,2,0,3,3,5,,,,,,,,,,,,,,,,,,,,,,,,,,,,,,,,,,,,,,,,,,,,,,,,,,,,,,,498.72680363700056,None,498.72680363700056,None,498.72680363700056,None,m,0,3.6238893039990216,500.2627541439997,None,500.2627541439997,None,500.2627541439997,None,503.9441488550001,None,503.9441488550001,None,503.9441488550001,None,503.9441488550001,None,,,,,,,,,,,,,,,,,,,,,,,,,,,,,,,,,,,,,,,,,,,,001,35,2020_Jan_30_1151,spring_faces,3.1.5,59.962271858317145,
condition files/Stage1_1.xlsx,,B4,T4,m,"['c', 'm']","['Clue', 'Monopoly']","[-0.15, 0.5]","[0.15, 0.5]",1,1,,,,,,,,,0,2,2,2,0,4,4,7,,,,,,,,,,,,,,,,,,,,,,,,,,,,,,,,,,,,,,,,,,,,,,,,,,,,,,,505.9102399860003,None,505.9102399860003,None,505.9102399860003,None,m,1,2.3138973229997646,507.44468913499986,None,507.44468913499986,None,507.44468913499986,None,509.81330834000073,None,509.81330834000073,None,509.81330834000073,None,509.81330834000073,None,,,,,,,,,,,,,,,,,,,,,,,,,,,,,,,,,,,,,,,,,,,,001,35,2020_Jan_30_1151,spring_faces,3.1.5,59.962271858317145,
condition files/Stage1_1.xlsx,,T1,B1,c,"['c', 'm']","['Clue', 'Monopoly']","[-0.15, 0.5]","[0.15, 0.5]",1,1,,,,,,,,,0,2,2,2,0,5,5,0,,,,,,,,,,,,,,,,,,,,,,,,,,,,,,,,,,,,,,,,,,,,,,,,,,,,,,,511.7772164070011,None,511.7772164070011,None,511.7772164070011,None,c,1,0.9097944269997242,513.3127835880005,None,513.3127835880005,None,513.3127835880005,None,514.2801807970009,None,514.2801807970009,None,514.2801807970009,None,514.2801807970009,None,,,,,,,,,,,,,,,,,,,,,,,,,,,,,,,,,,,,,,,,,,,,001,35,2020_Jan_30_1151,spring_faces,3.1.5,59.962271858317145,
condition files/Stage1_1.xlsx,,T4,B3,m,"['c', 'm']","['Clue', 'Monopoly']","[-0.15, 0.5]","[0.15, 0.5]",1,1,,,,,,,,,0,2,2,2,0,6,6,6,,,,,,,,,,,,,,,,,,,,,,,,,,,,,,,,,,,,,,,,,,,,,,,,,,,,,,,516.2439510969998,None,516.2439510969998,None,516.2439510969998,None,c,0,6.1894045709996135,517.7770817239998,None,517.7770817239998,None,517.7770817239998,None,524.0288043640012,None,524.0288043640012,None,524.0288043640012,None,524.0288043640012,None,,,,,,,,,,,,,,,,,,,,,,,,,,,,,,,,,,,,,,,,,,,,001,35,2020_Jan_30_1151,spring_faces,3.1.5,59.962271858317145,
condition files/Stage1_1.xlsx,,T2,B2,m,"['c', 'm']","['Clue', 'Monopoly']","[-0.15, 0.5]","[0.15, 0.5]",1,1,,,,,,,,,0,2,2,2,0,7,7,3,,,,,,,,,,,,,,,,,,,,,,,,,,,,,,,,,,,,,,,,,,,,,,,,,,,,,,,525.9936269110003,None,525.9936269110003,None,525.9936269110003,None,m,1,0.5348751479996281,527.5436462039997,None,527.5436462039997,None,527.5436462039997,None,528.143947265,None,528.143947265,None,528.143947265,None,528.143947265,None,,,,,,,,,,,,,,,,,,,,,,,,,,,,,,,,,,,,,,,,,,,,001,35,2020_Jan_30_1151,spring_faces,3.1.5,59.962271858317145,
condition files/Stage1_2.xlsx,,T1,B2,m,"['c', 'm']","['Clue', 'Monopoly']","[-0.15, 0.5]","[0.15, 0.5]",1,1,,,,,,,,,0,3,3,3,0,0,0,2,,,,,,,,,,,,,,,,,,,,,,,,,,,,,,,,,,,,,,,,,,,,,,,,,,,,,,,530.127250468,None,530.127250468,None,530.127250468,None,c,0,1.2654938970008516,531.6611173700003,None,531.6611173700003,None,531.6611173700003,None,532.9773617030005,None,532.9773617030005,None,532.9773617030005,None,532.9773617030005,None,,,,,,,,,,,,,,,,,,,,,,,,,,,,,,,,,,,,,,,,,,,,001,35,2020_Jan_30_1151,spring_faces,3.1.5,59.962271858317145,
condition files/Stage1_2.xlsx,,B3,T4,m,"['c', 'm']","['Clue', 'Monopoly']","[-0.15, 0.5]","[0.15, 0.5]",1,1,,,,,,,,,0,3,3,3,0,1,1,6,,,,,,,,,,,,,,,,,,,,,,,,,,,,,,,,,,,,,,,,,,,,,,,,,,,,,,,534.9437667430011,None,534.9437667430011,None,534.9437667430011,None,m,1,0.7686269910009287,536.493939326001,None,536.493939326001,None,536.493939326001,None,537.3275545899996,None,537.3275545899996,None,537.3275545899996,None,537.3275545899996,None,,,,,,,,,,,,,,,,,,,,,,,,,,,,,,,,,,,,,,,,,,,,001,35,2020_Jan_30_1151,spring_faces,3.1.5,59.962271858317145,
condition files/Stage1_2.xlsx,,B1,T1,c,"['c', 'm']","['Clue', 'Monopoly']","[-0.15, 0.5]","[0.15, 0.5]",1,1,,,,,,,,,0,3,3,3,0,2,2,0,,,,,,,,,,,,,,,,,,,,,,,,,,,,,,,,,,,,,,,,,,,,,,,,,,,,,,,539.2935110070011,None,539.2935110070011,None,539.2935110070011,None,c,1,0.5944778619996214,540.8440329650002,None,540.8440329650002,None,540.8440329650002,None,541.4962732000004,None,541.4962732000004,None,541.4962732000004,None,541.4962732000004,None,,,,,,,,,,,,,,,,,,,,,,,,,,,,,,,,,,,,,,,,,,,,001,35,2020_Jan_30_1151,spring_faces,3.1.5,59.962271858317145,
condition files/Stage1_2.xlsx,,T2,B1,c,"['c', 'm']","['Clue', 'Monopoly']","[-0.15, 0.5]","[0.15, 0.5]",1,1,,,,,,,,,0,3,3,3,0,3,3,1,,,,,,,,,,,,,,,,,,,,,,,,,,,,,,,,,,,,,,,,,,,,,,,,,,,,,,,543.4603081000005,None,543.4603081000005,None,543.4603081000005,None,c,1,1.8208291820010345,544.9937705230004,None,544.9937705230004,None,544.9937705230004,None,546.8774418970006,None,546.8774418970006,None,546.8774418970006,None,546.8774418970006,None,,,,,,,,,,,,,,,,,,,,,,,,,,,,,,,,,,,,,,,,,,,,001,35,2020_Jan_30_1151,spring_faces,3.1.5,59.962271858317145,
condition files/Stage1_2.xlsx,,T3,B3,c,"['c', 'm']","['Clue', 'Monopoly']","[-0.15, 0.5]","[0.15, 0.5]",1,1,,,,,,,,,0,3,3,3,0,4,4,4,,,,,,,,,,,,,,,,,,,,,,,,,,,,,,,,,,,,,,,,,,,,,,,,,,,,,,,548.8440579910002,None,548.8440579910002,None,548.8440579910002,None,m,0,2.597002151000197,550.3775532070013,None,550.3775532070013,None,550.3775532070013,None,553.0270397390013,None,553.0270397390013,None,553.0270397390013,None,553.0270397390013,None,,,,,,,,,,,,,,,,,,,,,,,,,,,,,,,,,,,,,,,,,,,,001,35,2020_Jan_30_1151,spring_faces,3.1.5,59.962271858317145,
condition files/Stage1_2.xlsx,,T4,B4,m,"['c', 'm']","['Clue', 'Monopoly']","[-0.15, 0.5]","[0.15, 0.5]",1,1,,,,,,,,,0,3,3,3,0,5,5,7,,,,,,,,,,,,,,,,,,,,,,,,,,,,,,,,,,,,,,,,,,,,,,,,,,,,,,,554.9938267300004,None,554.9938267300004,None,554.9938267300004,None,m,1,1.0711337339998863,556.5434435759998,None,556.5434435759998,None,556.5434435759998,None,557.6783761940005,None,557.6783761940005,None,557.6783761940005,None,557.6783761940005,None,,,,,,,,,,,,,,,,,,,,,,,,,,,,,,,,,,,,,,,,,,,,001,35,2020_Jan_30_1151,spring_faces,3.1.5,59.962271858317145,
condition files/Stage1_2.xlsx,,B4,T3,c,"['c', 'm']","['Clue', 'Monopoly']","[-0.15, 0.5]","[0.15, 0.5]",1,1,,,,,,,,,0,3,3,3,0,6,6,5,,,,,,,,,,,,,,,,,,,,,,,,,,,,,,,,,,,,,,,,,,,,,,,,,,,,,,,559.6435164430004,None,559.6435164430004,None,559.6435164430004,None,c,1,1.3322050759998092,561.1783866630012,None,561.1783866630012,None,561.1783866630012,None,562.561764258,None,562.561764258,None,562.561764258,None,562.561764258,None,,,,,,,,,,,,,,,,,,,,,,,,,,,,,,,,,,,,,,,,,,,,001,35,2020_Jan_30_1151,spring_faces,3.1.5,59.962271858317145,
condition files/Stage1_2.xlsx,,B2,T2,m,"['c', 'm']","['Clue', 'Monopoly']","[-0.15, 0.5]","[0.15, 0.5]",1,1,,,,,,,,,0,3,3,3,0,7,7,3,,,,,,,,,,,,,,,,,,,,,,,,,,,,,,,,,,,,,,,,,,,,,,,,,,,,,,,564.5267012889999,None,564.5267012889999,None,564.5267012889999,None,c,0,1.441359251000904,566.0612669090006,None,566.0612669090006,None,566.0612669090006,None,567.5621751840008,None,567.5621751840008,None,567.5621751840008,None,567.5621751840008,None,,,,,,,,,,,,,,,,,,,,,,,,,,,,,,,,,,,,,,,,,,,,001,35,2020_Jan_30_1151,spring_faces,3.1.5,59.962271858317145,
condition files/Stage1_1.xlsx,,B2,T1,m,"['c', 'm']","['Clue', 'Monopoly']","[-0.15, 0.5]","[0.15, 0.5]",1,1,,,,,,,,,0,4,4,4,0,0,0,2,,,,,,,,,,,,,,,,,,,,,,,,,,,,,,,,,,,,,,,,,,,,,,,,,,,,,,,569.5437763210011,None,569.5437763210011,None,569.5437763210011,None,m,1,0.7268818869997631,571.0796582390012,None,571.0796582390012,None,571.0796582390012,None,571.8608012430013,None,571.8608012430013,None,571.8608012430013,None,571.8608012430013,None,,,,,,,,,,,,,,,,,,,,,,,,,,,,,,,,,,,,,,,,,,,,001,35,2020_Jan_30_1151,spring_faces,3.1.5,59.962271858317145,
condition files/Stage1_1.xlsx,,B4,T4,m,"['c', 'm']","['Clue', 'Monopoly']","[-0.15, 0.5]","[0.15, 0.5]",1,1,,,,,,,,,0,4,4,4,0,1,1,7,,,,,,,,,,,,,,,,,,,,,,,,,,,,,,,,,,,,,,,,,,,,,,,,,,,,,,,573.8268474560009,None,573.8268474560009,None,573.8268474560009,None,c,0,0.670197442999779,575.3603854140001,None,575.3603854140001,None,575.3603854140001,None,576.0942016520003,None,576.0942016520003,None,576.0942016520003,None,576.0942016520003,None,,,,,,,,,,,,,,,,,,,,,,,,,,,,,,,,,,,,,,,,,,,,001,35,2020_Jan_30_1151,spring_faces,3.1.5,59.962271858317145,
condition files/Stage1_1.xlsx,,B3,T3,c,"['c', 'm']","['Clue', 'Monopoly']","[-0.15, 0.5]","[0.15, 0.5]",1,1,,,,,,,,,0,4,4,4,0,2,2,4,,,,,,,,,,,,,,,,,,,,,,,,,,,,,,,,,,,,,,,,,,,,,,,,,,,,,,,578.0603890889997,None,578.0603890889997,None,578.0603890889997,None,m,0,0.8673619979999785,579.6111307360006,None,579.6111307360006,None,579.6111307360006,None,580.5441857280002,None,580.5441857280002,None,580.5441857280002,None,580.5441857280002,None,,,,,,,,,,,,,,,,,,,,,,,,,,,,,,,,,,,,,,,,,,,,001,35,2020_Jan_30_1151,spring_faces,3.1.5,59.962271858317145,
condition files/Stage1_1.xlsx,,T2,B2,m,"['c', 'm']","['Clue', 'Monopoly']","[-0.15, 0.5]","[0.15, 0.5]",1,1,,,,,,,,,0,4,4,4,0,3,3,3,,,,,,,,,,,,,,,,,,,,,,,,,,,,,,,,,,,,,,,,,,,,,,,,,,,,,,,582.5106590369996,None,582.5106590369996,None,582.5106590369996,None,c,0,0.6257254860011017,584.0609266850006,None,584.0609266850006,None,584.0609266850006,None,584.760403839,None,584.760403839,None,584.760403839,None,584.760403839,None,,,,,,,,,,,,,,,,,,,,,,,,,,,,,,,,,,,,,,,,,,,,001,35,2020_Jan_30_1151,spring_faces,3.1.5,59.962271858317145,
condition files/Stage1_1.xlsx,,B1,T2,c,"['c', 'm']","['Clue', 'Monopoly']","[-0.15, 0.5]","[0.15, 0.5]",1,1,,,,,,,,,0,4,4,4,0,4,4,1,,,,,,,,,,,,,,,,,,,,,,,,,,,,,,,,,,,,,,,,,,,,,,,,,,,,,,,586.7105285489997,None,586.7105285489997,None,586.7105285489997,None,m,0,2.0413425709994044,588.2452822659998,None,588.2452822659998,None,588.2452822659998,None,590.3437580130012,None,590.3437580130012,None,590.3437580130012,None,590.3437580130012,None,,,,,,,,,,,,,,,,,,,,,,,,,,,,,,,,,,,,,,,,,,,,001,35,2020_Jan_30_1151,spring_faces,3.1.5,59.962271858317145,
condition files/Stage1_1.xlsx,,T1,B1,c,"['c', 'm']","['Clue', 'Monopoly']","[-0.15, 0.5]","[0.15, 0.5]",1,1,,,,,,,,,0,4,4,4,0,5,5,0,,,,,,,,,,,,,,,,,,,,,,,,,,,,,,,,,,,,,,,,,,,,,,,,,,,,,,,592.3104157739999,None,592.3104157739999,None,592.3104157739999,None,m,0,0.8908417009988625,593.8437668509996,None,593.8437668509996,None,593.8437668509996,None,594.7936115430002,None,594.7936115430002,None,594.7936115430002,None,594.7936115430002,None,,,,,,,,,,,,,,,,,,,,,,,,,,,,,,,,,,,,,,,,,,,,001,35,2020_Jan_30_1151,spring_faces,3.1.5,59.962271858317145,
condition files/Stage1_1.xlsx,,T4,B3,m,"['c', 'm']","['Clue', 'Monopoly']","[-0.15, 0.5]","[0.15, 0.5]",1,1,,,,,,,,,0,4,4,4,0,6,6,6,,,,,,,,,,,,,,,,,,,,,,,,,,,,,,,,,,,,,,,,,,,,,,,,,,,,,,,596.7605991319997,None,596.7605991319997,None,596.7605991319997,None,c,0,0.48801885200009565,598.294581260001,None,598.294581260001,None,598.294581260001,None,598.8609574420007,None,598.8609574420007,None,598.8609574420007,None,598.8609574420007,None,,,,,,,,,,,,,,,,,,,,,,,,,,,,,,,,,,,,,,,,,,,,001,35,2020_Jan_30_1151,spring_faces,3.1.5,59.962271858317145,
condition files/Stage1_1.xlsx,,T3,B4,c,"['c', 'm']","['Clue', 'Monopoly']","[-0.15, 0.5]","[0.15, 0.5]",1,1,,,,,,,,,0,4,4,4,0,7,7,5,,,,,,,,,,,,,,,,,,,,,,,,,,,,,,,,,,,,,,,,,,,,,,,,,,,,,,,600.810282294,None,600.810282294,None,600.810282294,None,c,1,1.2853070519995526,602.3452907669998,None,602.3452907669998,None,602.3452907669998,None,603.7108519450012,None,603.7108519450012,None,603.7108519450012,None,603.7108519450012,None,,,,,,,,,,,,,,,,,,,,,,,,,,,,,,,,,,,,,,,,,,,,001,35,2020_Jan_30_1151,spring_faces,3.1.5,59.962271858317145,
condition files/Stage1_2.xlsx,,B2,T2,m,"['c', 'm']","['Clue', 'Monopoly']","[-0.15, 0.5]","[0.15, 0.5]",1,1,,,,,,,,,0,5,5,5,0,0,0,3,,,,,,,,,,,,,,,,,,,,,,,,,,,,,,,,,,,,,,,,,,,,,,,,,,,,,,,605.6771859050004,None,605.6771859050004,None,605.6771859050004,None,m,1,1.4266758409994509,607.2118485540013,None,607.2118485540013,None,607.2118485540013,None,608.6970230890001,None,608.6970230890001,None,608.6970230890001,None,608.6970230890001,None,,,,,,,,,,,,,,,,,,,,,,,,,,,,,,,,,,,,,,,,,,,,001,35,2020_Jan_30_1151,spring_faces,3.1.5,59.962271858317145,
condition files/Stage1_2.xlsx,,T1,B2,m,"['c', 'm']","['Clue', 'Monopoly']","[-0.15, 0.5]","[0.15, 0.5]",1,1,,,,,,,,,0,5,5,5,0,1,1,2,,,,,,,,,,,,,,,,,,,,,,,,,,,,,,,,,,,,,,,,,,,,,,,,,,,,,,,610.6607542950005,None,610.6607542950005,None,610.6607542950005,None,c,0,0.8440410499988502,612.1944798220011,None,612.1944798220011,None,612.1944798220011,None,613.0941093300007,None,613.0941093300007,None,613.0941093300007,None,613.0941093300007,None,,,,,,,,,,,,,,,,,,,,,,,,,,,,,,,,,,,,,,,,,,,,001,35,2020_Jan_30_1151,spring_faces,3.1.5,59.962271858317145,
condition files/Stage1_2.xlsx,,B3,T4,m,"['c', 'm']","['Clue', 'Monopoly']","[-0.15, 0.5]","[0.15, 0.5]",1,1,,,,,,,,,0,5,5,5,0,2,2,6,,,,,,,,,,,,,,,,,,,,,,,,,,,,,,,,,,,,,,,,,,,,,,,,,,,,,,,615.0601899980011,None,615.0601899980011,None,615.0601899980011,None,m,1,0.7317382339988399,616.6108346359997,None,616.6108346359997,None,616.6108346359997,None,617.3940031450002,None,617.3940031450002,None,617.3940031450002,None,617.3940031450002,None,,,,,,,,,,,,,,,,,,,,,,,,,,,,,,,,,,,,,,,,,,,,001,35,2020_Jan_30_1151,spring_faces,3.1.5,59.962271858317145,
condition files/Stage1_2.xlsx,,B4,T3,c,"['c', 'm']","['Clue', 'Monopoly']","[-0.15, 0.5]","[0.15, 0.5]",1,1,,,,,,,,,0,5,5,5,0,3,3,5,,,,,,,,,,,,,,,,,,,,,,,,,,,,,,,,,,,,,,,,,,,,,,,,,,,,,,,619.3602312580006,None,619.3602312580006,None,619.3602312580006,None,c,1,1.2323813540006086,620.8942293430009,None,620.8942293430009,None,620.8942293430009,None,622.1940885100012,None,622.1940885100012,None,622.1940885100012,None,622.1940885100012,None,,,,,,,,,,,,,,,,,,,,,,,,,,,,,,,,,,,,,,,,,,,,001,35,2020_Jan_30_1151,spring_faces,3.1.5,59.962271858317145,
condition files/Stage1_2.xlsx,,T2,B1,c,"['c', 'm']","['Clue', 'Monopoly']","[-0.15, 0.5]","[0.15, 0.5]",1,1,,,,,,,,,0,5,5,5,0,4,4,1,,,,,,,,,,,,,,,,,,,,,,,,,,,,,,,,,,,,,,,,,,,,,,,,,,,,,,,624.1435495679998,None,624.1435495679998,None,624.1435495679998,None,c,1,1.3271923840002273,625.6793370510004,None,625.6793370510004,None,625.6793370510004,None,627.0600541660006,None,627.0600541660006,None,627.0600541660006,None,627.0600541660006,None,,,,,,,,,,,,,,,,,,,,,,,,,,,,,,,,,,,,,,,,,,,,001,35,2020_Jan_30_1151,spring_faces,3.1.5,59.962271858317145,
condition files/Stage1_2.xlsx,,T4,B4,m,"['c', 'm']","['Clue', 'Monopoly']","[-0.15, 0.5]","[0.15, 0.5]",1,1,,,,,,,,,0,5,5,5,0,5,5,7,,,,,,,,,,,,,,,,,,,,,,,,,,,,,,,,,,,,,,,,,,,,,,,,,,,,,,,629.0269423080008,None,629.0269423080008,None,629.0269423080008,None,m,1,0.7647610519998125,630.5618398170009,None,630.5618398170009,None,630.5618398170009,None,631.3794667559996,None,631.3794667559996,None,631.3794667559996,None,631.3794667559996,None,,,,,,,,,,,,,,,,,,,,,,,,,,,,,,,,,,,,,,,,,,,,001,35,2020_Jan_30_1151,spring_faces,3.1.5,59.962271858317145,
condition files/Stage1_2.xlsx,,B1,T1,c,"['c', 'm']","['Clue', 'Monopoly']","[-0.15, 0.5]","[0.15, 0.5]",1,1,,,,,,,,,0,5,5,5,0,6,6,0,,,,,,,,,,,,,,,,,,,,,,,,,,,,,,,,,,,,,,,,,,,,,,,,,,,,,,,633.343565385001,None,633.343565385001,None,633.343565385001,None,m,0,1.2961903499999607,634.8783720760002,None,634.8783720760002,None,634.8783720760002,None,636.2297633030012,None,636.2297633030012,None,636.2297633030012,None,636.2297633030012,None,,,,,,,,,,,,,,,,,,,,,,,,,,,,,,,,,,,,,,,,,,,,001,35,2020_Jan_30_1151,spring_faces,3.1.5,59.962271858317145,
condition files/Stage1_2.xlsx,,T3,B3,c,"['c', 'm']","['Clue', 'Monopoly']","[-0.15, 0.5]","[0.15, 0.5]",1,1,,,,,,,,,0,5,5,5,0,7,7,4,,,,,,,,,,,,,,,,,,,,,,,,,,,,,,,,,,,,,,,,,,,,,,,,,,,,,,,638.1938483770009,None,638.1938483770009,None,638.1938483770009,None,c,1,0.8622883440002624,639.7442223380003,None,639.7442223380003,None,639.7442223380003,None,640.6600660029999,None,640.6600660029999,None,640.6600660029999,None,640.6600660029999,None,,,,,,,,,,,,,,,,,,,,,,,,,,,,,,,,,,,,,,,,,,,,001,35,2020_Jan_30_1151,spring_faces,3.1.5,59.962271858317145,
condition files/Stage1_1.xlsx,,B2,T1,m,"['c', 'm']","['Clue', 'Monopoly']","[-0.15, 0.5]","[0.15, 0.5]",1,1,,,,,,,,,0,6,6,6,0,0,0,2,,,,,,,,,,,,,,,,,,,,,,,,,,,,,,,,,,,,,,,,,,,,,,,,,,,,,,,642.6444383380003,None,642.6444383380003,None,642.6444383380003,None,c,0,0.828613753999889,644.1938871990005,None,644.1938871990005,None,644.1938871990005,None,645.0791034499998,None,645.0791034499998,None,645.0791034499998,None,645.0791034499998,None,,,,,,,,,,,,,,,,,,,,,,,,,,,,,,,,,,,,,,,,,,,,001,35,2020_Jan_30_1151,spring_faces,3.1.5,59.962271858317145,
condition files/Stage1_1.xlsx,,T1,B1,c,"['c', 'm']","['Clue', 'Monopoly']","[-0.15, 0.5]","[0.15, 0.5]",1,1,,,,,,,,,0,6,6,6,0,1,1,0,,,,,,,,,,,,,,,,,,,,,,,,,,,,,,,,,,,,,,,,,,,,,,,,,,,,,,,647.0432775789996,None,647.0432775789996,None,647.0432775789996,None,c,1,1.8375277499999356,648.5770754470013,None,648.5770754470013,None,648.5770754470013,None,650.4941394430007,None,650.4941394430007,None,650.4941394430007,None,650.4941394430007,None,,,,,,,,,,,,,,,,,,,,,,,,,,,,,,,,,,,,,,,,,,,,001,35,2020_Jan_30_1151,spring_faces,3.1.5,59.962271858317145,
condition files/Stage1_1.xlsx,,T2,B2,m,"['c', 'm']","['Clue', 'Monopoly']","[-0.15, 0.5]","[0.15, 0.5]",1,1,,,,,,,,,0,6,6,6,0,2,2,3,,,,,,,,,,,,,,,,,,,,,,,,,,,,,,,,,,,,,,,,,,,,,,,,,,,,,,,652.4438522370001,None,652.4438522370001,None,652.4438522370001,None,c,0,1.7163383160004742,653.9781827349998,None,653.9781827349998,None,653.9781827349998,None,655.7774885260005,None,655.7774885260005,None,655.7774885260005,None,655.7774885260005,None,,,,,,,,,,,,,,,,,,,,,,,,,,,,,,,,,,,,,,,,,,,,001,35,2020_Jan_30_1151,spring_faces,3.1.5,59.962271858317145,
condition files/Stage1_1.xlsx,,T4,B3,m,"['c', 'm']","['Clue', 'Monopoly']","[-0.15, 0.5]","[0.15, 0.5]",1,1,,,,,,,,,0,6,6,6,0,3,3,6,,,,,,,,,,,,,,,,,,,,,,,,,,,,,,,,,,,,,,,,,,,,,,,,,,,,,,,657.7266308380003,None,657.7266308380003,None,657.7266308380003,None,m,1,0.8157903380015341,659.2626972830003,None,659.2626972830003,None,659.2626972830003,None,660.1444210640002,None,660.1444210640002,None,660.1444210640002,None,660.1444210640002,None,,,,,,,,,,,,,,,,,,,,,,,,,,,,,,,,,,,,,,,,,,,,001,35,2020_Jan_30_1151,spring_faces,3.1.5,59.962271858317145,
condition files/Stage1_1.xlsx,,T3,B4,c,"['c', 'm']","['Clue', 'Monopoly']","[-0.15, 0.5]","[0.15, 0.5]",1,1,,,,,,,,,0,6,6,6,0,4,4,5,,,,,,,,,,,,,,,,,,,,,,,,,,,,,,,,,,,,,,,,,,,,,,,,,,,,,,,662.1102185030013,None,662.1102185030013,None,662.1102185030013,None,c,1,1.281724247000966,663.6608581830005,None,663.6608581830005,None,663.6608581830005,None,664.9953460790002,None,664.9953460790002,None,664.9953460790002,None,664.9953460790002,None,,,,,,,,,,,,,,,,,,,,,,,,,,,,,,,,,,,,,,,,,,,,001,35,2020_Jan_30_1151,spring_faces,3.1.5,59.962271858317145,
condition files/Stage1_1.xlsx,,B4,T4,m,"['c', 'm']","['Clue', 'Monopoly']","[-0.15, 0.5]","[0.15, 0.5]",1,1,,,,,,,,,0,6,6,6,0,5,5,7,,,,,,,,,,,,,,,,,,,,,,,,,,,,,,,,,,,,,,,,,,,,,,,,,,,,,,,666.9605126290007,None,666.9605126290007,None,666.9605126290007,None,m,1,0.7203991940004926,668.5101706360001,None,668.5101706360001,None,668.5101706360001,None,669.294408062,None,669.294408062,None,669.294408062,None,669.294408062,None,,,,,,,,,,,,,,,,,,,,,,,,,,,,,,,,,,,,,,,,,,,,001,35,2020_Jan_30_1151,spring_faces,3.1.5,59.962271858317145,
condition files/Stage1_1.xlsx,,B3,T3,c,"['c', 'm']","['Clue', 'Monopoly']","[-0.15, 0.5]","[0.15, 0.5]",1,1,,,,,,,,,0,6,6,6,0,6,6,4,,,,,,,,,,,,,,,,,,,,,,,,,,,,,,,,,,,,,,,,,,,,,,,,,,,,,,,671.2605783660001,None,671.2605783660001,None,671.2605783660001,None,c,1,1.2510996139990311,672.7954818850012,None,672.7954818850012,None,672.7954818850012,None,674.1114264150001,None,674.1114264150001,None,674.1114264150001,None,674.1114264150001,None,,,,,,,,,,,,,,,,,,,,,,,,,,,,,,,,,,,,,,,,,,,,001,35,2020_Jan_30_1151,spring_faces,3.1.5,59.962271858317145,
condition files/Stage1_1.xlsx,,B1,T2,c,"['c', 'm']","['Clue', 'Monopoly']","[-0.15, 0.5]","[0.15, 0.5]",1,1,,,,,,,,,0,6,6,6,0,7,7,1,,,,,,,,,,,,,,,,,,,,,,,,,,,,,,,,,,,,,,,,,,,,,,,,,,,,,,,676.0768839949997,None,676.0768839949997,None,676.0768839949997,None,c,1,1.1546655850015668,677.6119581029998,None,677.6119581029998,None,677.6119581029998,None,678.8276305489999,None,678.8276305489999,None,678.8276305489999,None,678.8276305489999,None,,,,,,,,,,,,,,,,,,,,,,,,,,,,,,,,,,,,,,,,,,,,001,35,2020_Jan_30_1151,spring_faces,3.1.5,59.962271858317145,
condition files/Stage1_2.xlsx,,T1,B2,m,"['c', 'm']","['Clue', 'Monopoly']","[-0.15, 0.5]","[0.15, 0.5]",1,1,,,,,,,,,0,7,7,7,0,0,0,2,,,,,,,,,,,,,,,,,,,,,,,,,,,,,,,,,,,,,,,,,,,,,,,,,,,,,,,680.8108704839997,None,680.8108704839997,None,680.8108704839997,None,m,1,1.1896690590001526,682.3609439200009,None,682.3609439200009,None,682.3609439200009,None,683.6116567900008,None,683.6116567900008,None,683.6116567900008,None,683.6116567900008,None,,,,,,,,,,,,,,,,,,,,,,,,,,,,,,,,,,,,,,,,,,,,001,35,2020_Jan_30_1151,spring_faces,3.1.5,59.962271858317145,
condition files/Stage1_2.xlsx,,T4,B4,m,"['c', 'm']","['Clue', 'Monopoly']","[-0.15, 0.5]","[0.15, 0.5]",1,1,,,,,,,,,0,7,7,7,0,1,1,7,,,,,,,,,,,,,,,,,,,,,,,,,,,,,,,,,,,,,,,,,,,,,,,,,,,,,,,685.5767194130003,None,685.5767194130003,None,685.5767194130003,None,m,1,0.9196468549998826,687.1109598900002,None,687.1109598900002,None,687.1109598900002,None,688.0942071999998,None,688.0942071999998,None,688.0942071999998,None,688.0942071999998,None,,,,,,,,,,,,,,,,,,,,,,,,,,,,,,,,,,,,,,,,,,,,001,35,2020_Jan_30_1151,spring_faces,3.1.5,59.962271858317145,
condition files/Stage1_2.xlsx,,B4,T3,c,"['c', 'm']","['Clue', 'Monopoly']","[-0.15, 0.5]","[0.15, 0.5]",1,1,,,,,,,,,0,7,7,7,0,2,2,5,,,,,,,,,,,,,,,,,,,,,,,,,,,,,,,,,,,,,,,,,,,,,,,,,,,,,,,690.0602901120001,None,690.0602901120001,None,690.0602901120001,None,c,1,1.1705579589997797,691.5960559100004,None,691.5960559100004,None,691.5960559100004,None,692.8442113670008,None,692.8442113670008,None,692.8442113670008,None,692.8442113670008,None,,,,,,,,,,,,,,,,,,,,,,,,,,,,,,,,,,,,,,,,,,,,001,35,2020_Jan_30_1151,spring_faces,3.1.5,59.962271858317145,
condition files/Stage1_2.xlsx,,B3,T4,m,"['c', 'm']","['Clue', 'Monopoly']","[-0.15, 0.5]","[0.15, 0.5]",1,1,,,,,,,,,0,7,7,7,0,3,3,6,,,,,,,,,,,,,,,,,,,,,,,,,,,,,,,,,,,,,,,,,,,,,,,,,,,,,,,694.7934239950009,None,694.7934239950009,None,694.7934239950009,None,m,1,0.5024329940006282,696.3441549750005,None,696.3441549750005,None,696.3441549750005,None,696.9275222300002,None,696.9275222300002,None,696.9275222300002,None,696.9275222300002,None,,,,,,,,,,,,,,,,,,,,,,,,,,,,,,,,,,,,,,,,,,,,001,35,2020_Jan_30_1151,spring_faces,3.1.5,59.962271858317145,
condition files/Stage1_2.xlsx,,T2,B1,c,"['c', 'm']","['Clue', 'Monopoly']","[-0.15, 0.5]","[0.15, 0.5]",1,1,,,,,,,,,0,7,7,7,0,4,4,1,,,,,,,,,,,,,,,,,,,,,,,,,,,,,,,,,,,,,,,,,,,,,,,,,,,,,,,698.8766939329998,None,698.8766939329998,None,698.8766939329998,None,c,1,1.28279977999955,700.4117251959997,None,700.4117251959997,None,700.4117251959997,None,701.7775185200007,None,701.7775185200007,None,701.7775185200007,None,701.7775185200007,None,,,,,,,,,,,,,,,,,,,,,,,,,,,,,,,,,,,,,,,,,,,,001,35,2020_Jan_30_1151,spring_faces,3.1.5,59.962271858317145,
condition files/Stage1_2.xlsx,,B2,T2,m,"['c', 'm']","['Clue', 'Monopoly']","[-0.15, 0.5]","[0.15, 0.5]",1,1,,,,,,,,,0,7,7,7,0,5,5,3,,,,,,,,,,,,,,,,,,,,,,,,,,,,,,,,,,,,,,,,,,,,,,,,,,,,,,,703.7268958490004,None,703.7268958490004,None,703.7268958490004,None,c,0,1.953741507999439,705.276848802001,None,705.276848802001,None,705.276848802001,None,707.2946844070011,None,707.2946844070011,None,707.2946844070011,None,707.2946844070011,None,,,,,,,,,,,,,,,,,,,,,,,,,,,,,,,,,,,,,,,,,,,,001,35,2020_Jan_30_1151,spring_faces,3.1.5,59.962271858317145,
condition files/Stage1_2.xlsx,,T3,B3,c,"['c', 'm']","['Clue', 'Monopoly']","[-0.15, 0.5]","[0.15, 0.5]",1,1,,,,,,,,,0,7,7,7,0,6,6,4,,,,,,,,,,,,,,,,,,,,,,,,,,,,,,,,,,,,,,,,,,,,,,,,,,,,,,,709.260657750001,None,709.260657750001,None,709.260657750001,None,c,1,1.90745025599972,710.7951804510012,None,710.7951804510012,None,710.7951804510012,None,712.761926227,None,712.761926227,None,712.761926227,None,712.761926227,None,,,,,,,,,,,,,,,,,,,,,,,,,,,,,,,,,,,,,,,,,,,,001,35,2020_Jan_30_1151,spring_faces,3.1.5,59.962271858317145,
condition files/Stage1_2.xlsx,,B1,T1,c,"['c', 'm']","['Clue', 'Monopoly']","[-0.15, 0.5]","[0.15, 0.5]",1,1,,,,,,,,,0,7,7,7,0,7,7,0,,,,,,,,,,,,,,,,,,,,,,,,,,,,,,,,,,,,,,,,,,,,,,,,,,,,,,,714.7268991380006,None,714.7268991380006,None,714.7268991380006,None,m,0,1.1936882059999334,716.2769126170006,None,716.2769126170006,None,716.2769126170006,None,717.527399949,None,717.527399949,None,717.527399949,None,717.527399949,None,,,,,,,,,,,,,,,,,,,,,,,,,,,,,,,,,,,,,,,,,,,,001,35,2020_Jan_30_1151,spring_faces,3.1.5,59.962271858317145,
condition files/Stage1_1.xlsx,,B4,T4,m,"['c', 'm']","['Clue', 'Monopoly']","[-0.15, 0.5]","[0.15, 0.5]",1,1,,,,,,,,,0,8,8,8,0,0,0,7,,,,,,,,,,,,,,,,,,,,,,,,,,,,,,,,,,,,,,,,,,,,,,,,,,,,,,,719.5105553410012,None,719.5105553410012,None,719.5105553410012,None,m,1,0.6824203289997968,721.0441981160002,None,721.0441981160002,None,721.0441981160002,None,721.7941579430008,None,721.7941579430008,None,721.7941579430008,None,721.7941579430008,None,,,,,,,,,,,,,,,,,,,,,,,,,,,,,,,,,,,,,,,,,,,,001,35,2020_Jan_30_1151,spring_faces,3.1.5,59.962271858317145,
condition files/Stage1_1.xlsx,,B1,T2,c,"['c', 'm']","['Clue', 'Monopoly']","[-0.15, 0.5]","[0.15, 0.5]",1,1,,,,,,,,,0,8,8,8,0,1,1,1,,,,,,,,,,,,,,,,,,,,,,,,,,,,,,,,,,,,,,,,,,,,,,,,,,,,,,,723.7438342799996,None,723.7438342799996,None,723.7438342799996,None,c,1,0.9123460619994148,725.2941610739999,None,725.2941610739999,None,725.2941610739999,None,726.2775326580013,None,726.2775326580013,None,726.2775326580013,None,726.2775326580013,None,,,,,,,,,,,,,,,,,,,,,,,,,,,,,,,,,,,,,,,,,,,,001,35,2020_Jan_30_1151,spring_faces,3.1.5,59.962271858317145,
condition files/Stage1_1.xlsx,,T3,B4,c,"['c', 'm']","['Clue', 'Monopoly']","[-0.15, 0.5]","[0.15, 0.5]",1,1,,,,,,,,,0,8,8,8,0,2,2,5,,,,,,,,,,,,,,,,,,,,,,,,,,,,,,,,,,,,,,,,,,,,,,,,,,,,,,,728.2272401680002,None,728.2272401680002,None,728.2272401680002,None,m,0,1.1653196600000228,729.7772783029995,None,729.7772783029995,None,729.7772783029995,None,730.9940287150002,None,730.9940287150002,None,730.9940287150002,None,730.9940287150002,None,,,,,,,,,,,,,,,,,,,,,,,,,,,,,,,,,,,,,,,,,,,,001,35,2020_Jan_30_1151,spring_faces,3.1.5,59.962271858317145,
condition files/Stage1_1.xlsx,,B3,T3,c,"['c', 'm']","['Clue', 'Monopoly']","[-0.15, 0.5]","[0.15, 0.5]",1,1,,,,,,,,,0,8,8,8,0,3,3,4,,,,,,,,,,,,,,,,,,,,,,,,,,,,,,,,,,,,,,,,,,,,,,,,,,,,,,,732.9605567210001,None,732.9605567210001,None,732.9605567210001,None,c,1,0.7994906089988945,734.5109989200009,None,734.5109989200009,None,734.5109989200009,None,735.360407260001,None,735.360407260001,None,735.360407260001,None,735.360407260001,None,,,,,,,,,,,,,,,,,,,,,,,,,,,,,,,,,,,,,,,,,,,,001,35,2020_Jan_30_1151,spring_faces,3.1.5,59.962271858317145,
condition files/Stage1_1.xlsx,,T1,B1,c,"['c', 'm']","['Clue', 'Monopoly']","[-0.15, 0.5]","[0.15, 0.5]",1,1,,,,,,,,,0,8,8,8,0,4,4,0,,,,,,,,,,,,,,,,,,,,,,,,,,,,,,,,,,,,,,,,,,,,,,,,,,,,,,,737.327433587001,None,737.327433587001,None,737.327433587001,None,c,1,0.8656690299994807,738.876911374,None,738.876911374,None,738.876911374,None,739.7940939689997,None,739.7940939689997,None,739.7940939689997,None,739.7940939689997,None,,,,,,,,,,,,,,,,,,,,,,,,,,,,,,,,,,,,,,,,,,,,001,35,2020_Jan_30_1151,spring_faces,3.1.5,59.962271858317145,
condition files/Stage1_1.xlsx,,T4,B3,m,"['c', 'm']","['Clue', 'Monopoly']","[-0.15, 0.5]","[0.15, 0.5]",1,1,,,,,,,,,0,8,8,8,0,5,5,6,,,,,,,,,,,,,,,,,,,,,,,,,,,,,,,,,,,,,,,,,,,,,,,,,,,,,,,741.7603417950013,None,741.7603417950013,None,741.7603417950013,None,m,1,0.6878983160004282,743.2946997850013,None,743.2946997850013,None,743.2946997850013,None,744.0437567360004,None,744.0437567360004,None,744.0437567360004,None,744.0437567360004,None,,,,,,,,,,,,,,,,,,,,,,,,,,,,,,,,,,,,,,,,,,,,001,35,2020_Jan_30_1151,spring_faces,3.1.5,59.962271858317145,
condition files/Stage1_1.xlsx,,T2,B2,m,"['c', 'm']","['Clue', 'Monopoly']","[-0.15, 0.5]","[0.15, 0.5]",1,1,,,,,,,,,0,8,8,8,0,6,6,3,,,,,,,,,,,,,,,,,,,,,,,,,,,,,,,,,,,,,,,,,,,,,,,,,,,,,,,746.010489059001,None,746.010489059001,None,746.010489059001,None,m,1,0.8062960530005512,747.5443230970013,None,747.5443230970013,None,747.5443230970013,None,748.4111721560002,None,748.4111721560002,None,748.4111721560002,None,748.4111721560002,None,,,,,,,,,,,,,,,,,,,,,,,,,,,,,,,,,,,,,,,,,,,,001,35,2020_Jan_30_1151,spring_faces,3.1.5,59.962271858317145,
condition files/Stage1_1.xlsx,,B2,T1,m,"['c', 'm']","['Clue', 'Monopoly']","[-0.15, 0.5]","[0.15, 0.5]",1,1,,,,,,,,,0,8,8,8,0,7,7,2,,,,,,,,,,,,,,,,,,,,,,,,,,,,,,,,,,,,,,,,,,,,,,,,,,,,,,,750.3772258629997,None,750.3772258629997,None,750.3772258629997,None,c,0,0.8071582899992791,751.9274568970013,None,751.9274568970013,None,751.9274568970013,None,752.7945974040013,None,752.7945974040013,None,752.7945974040013,None,752.7945974040013,None,,,,,,,,,,,,,,,,,,,,,,,,,,,,,,,,,,,,,,,,,,,,001,35,2020_Jan_30_1151,spring_faces,3.1.5,59.962271858317145,
condition files/Stage1_2.xlsx,,T1,B2,m,"['c', 'm']","['Clue', 'Monopoly']","[-0.15, 0.5]","[0.15, 0.5]",1,1,,,,,,,,,0,9,9,9,0,0,0,2,,,,,,,,,,,,,,,,,,,,,,,,,,,,,,,,,,,,,,,,,,,,,,,,,,,,,,,754.7769439500007,None,754.7769439500007,None,754.7769439500007,None,m,1,0.6801508480002667,756.310452787,None,756.310452787,None,756.310452787,None,757.0440800169999,None,757.0440800169999,None,757.0440800169999,None,757.0440800169999,None,,,,,,,,,,,,,,,,,,,,,,,,,,,,,,,,,,,,,,,,,,,,001,35,2020_Jan_30_1151,spring_faces,3.1.5,59.962271858317145,
condition files/Stage1_2.xlsx,,T4,B4,m,"['c', 'm']","['Clue', 'Monopoly']","[-0.15, 0.5]","[0.15, 0.5]",1,1,,,,,,,,,0,9,9,9,0,1,1,7,,,,,,,,,,,,,,,,,,,,,,,,,,,,,,,,,,,,,,,,,,,,,,,,,,,,,,,759.0107077060002,None,759.0107077060002,None,759.0107077060002,None,c,0,1.2123119160005444,760.546260907,None,760.546260907,None,760.546260907,None,761.8112122849998,None,761.8112122849998,None,761.8112122849998,None,761.8112122849998,None,,,,,,,,,,,,,,,,,,,,,,,,,,,,,,,,,,,,,,,,,,,,001,35,2020_Jan_30_1151,spring_faces,3.1.5,59.962271858317145,
condition files/Stage1_2.xlsx,,B3,T4,m,"['c', 'm']","['Clue', 'Monopoly']","[-0.15, 0.5]","[0.15, 0.5]",1,1,,,,,,,,,0,9,9,9,0,2,2,6,,,,,,,,,,,,,,,,,,,,,,,,,,,,,,,,,,,,,,,,,,,,,,,,,,,,,,,763.7768242750008,None,763.7768242750008,None,763.7768242750008,None,m,1,0.7038734670004487,765.3107196510009,None,765.3107196510009,None,765.3107196510009,None,766.077287782,None,766.077287782,None,766.077287782,None,766.077287782,None,,,,,,,,,,,,,,,,,,,,,,,,,,,,,,,,,,,,,,,,,,,,001,35,2020_Jan_30_1151,spring_faces,3.1.5,59.962271858317145,
condition files/Stage1_2.xlsx,,B4,T3,c,"['c', 'm']","['Clue', 'Monopoly']","[-0.15, 0.5]","[0.15, 0.5]",1,1,,,,,,,,,0,9,9,9,0,3,3,5,,,,,,,,,,,,,,,,,,,,,,,,,,,,,,,,,,,,,,,,,,,,,,,,,,,,,,,768.0439038759996,None,768.0439038759996,None,768.0439038759996,None,m,0,1.9254966459993739,769.577123721001,None,769.577123721001,None,769.577123721001,None,771.5632471870013,None,771.5632471870013,None,771.5632471870013,None,771.5632471870013,None,,,,,,,,,,,,,,,,,,,,,,,,,,,,,,,,,,,,,,,,,,,,001,35,2020_Jan_30_1151,spring_faces,3.1.5,59.962271858317145,
condition files/Stage1_2.xlsx,,B1,T1,c,"['c', 'm']","['Clue', 'Monopoly']","[-0.15, 0.5]","[0.15, 0.5]",1,1,,,,,,,,,0,9,9,9,0,4,4,0,,,,,,,,,,,,,,,,,,,,,,,,,,,,,,,,,,,,,,,,,,,,,,,,,,,,,,,773.5273522770003,None,773.5273522770003,None,773.5273522770003,None,c,1,0.3605242560006445,775.0619866140005,None,775.0619866140005,None,775.0619866140005,None,775.4776882120004,None,775.4776882120004,None,775.4776882120004,None,775.4776882120004,None,,,,,,,,,,,,,,,,,,,,,,,,,,,,,,,,,,,,,,,,,,,,001,35,2020_Jan_30_1151,spring_faces,3.1.5,59.962271858317145,
condition files/Stage1_2.xlsx,,T2,B1,c,"['c', 'm']","['Clue', 'Monopoly']","[-0.15, 0.5]","[0.15, 0.5]",1,1,,,,,,,,,0,9,9,9,0,5,5,1,,,,,,,,,,,,,,,,,,,,,,,,,,,,,,,,,,,,,,,,,,,,,,,,,,,,,,,777.4434889780005,None,777.4434889780005,None,777.4434889780005,None,c,1,0.8764380400007212,778.9941277480011,None,778.9941277480011,None,778.9941277480011,None,779.9273910800002,None,779.9273910800002,None,779.9273910800002,None,779.9273910800002,None,,,,,,,,,,,,,,,,,,,,,,,,,,,,,,,,,,,,,,,,,,,,001,35,2020_Jan_30_1151,spring_faces,3.1.5,59.962271858317145,
condition files/Stage1_2.xlsx,,T3,B3,c,"['c', 'm']","['Clue', 'Monopoly']","[-0.15, 0.5]","[0.15, 0.5]",1,1,,,,,,,,,0,9,9,9,0,6,6,4,,,,,,,,,,,,,,,,,,,,,,,,,,,,,,,,,,,,,,,,,,,,,,,,,,,,,,,781.893762017,None,781.893762017,None,781.893762017,None,c,1,1.0835096549999435,783.427087565,None,783.427087565,None,783.427087565,None,784.5608581730012,None,784.5608581730012,None,784.5608581730012,None,784.5608581730012,None,,,,,,,,,,,,,,,,,,,,,,,,,,,,,,,,,,,,,,,,,,,,001,35,2020_Jan_30_1151,spring_faces,3.1.5,59.962271858317145,
condition files/Stage1_2.xlsx,,B2,T2,m,"['c', 'm']","['Clue', 'Monopoly']","[-0.15, 0.5]","[0.15, 0.5]",1,1,,,,,,,,,0,9,9,9,0,7,7,3,,,,,,,,,,,,,,,,,,,,,,,,,,,,,,,,,,,,,,,,,,,,,,,,,,,,,,,786.5270371990009,None,786.5270371990009,None,786.5270371990009,None,m,1,0.880396873000791,788.0622092020003,None,788.0622092020003,None,788.0622092020003,None,788.9964657319997,None,788.9964657319997,None,788.9964657319997,None,788.9964657319997,None,,,,,,,,,,,,,,,,,,,,,,,,,,,,,,,,,,,,,,,,,,,,001,35,2020_Jan_30_1151,spring_faces,3.1.5,59.962271858317145,
condition files/Stage1_1.xlsx,,T1,B1,c,"['c', 'm']","['Clue', 'Monopoly']","[-0.15, 0.5]","[0.15, 0.5]",1,1,,,,,,,,,0,10,10,10,0,0,0,0,,,,,,,,,,,,,,,,,,,,,,,,,,,,,,,,,,,,,,,,,,,,,,,,,,,,,,,790.9772920560008,None,790.9772920560008,None,790.9772920560008,None,c,1,0.5763495769988367,792.5103037469999,None,792.5103037469999,None,792.5103037469999,None,793.143735388001,None,793.143735388001,None,793.143735388001,None,793.143735388001,None,,,,,,,,,,,,,,,,,,,,,,,,,,,,,,,,,,,,,,,,,,,,001,35,2020_Jan_30_1151,spring_faces,3.1.5,59.962271858317145,
condition files/Stage1_1.xlsx,,T3,B4,c,"['c', 'm']","['Clue', 'Monopoly']","[-0.15, 0.5]","[0.15, 0.5]",1,1,,,,,,,,,0,10,10,10,0,1,1,5,,,,,,,,,,,,,,,,,,,,,,,,,,,,,,,,,,,,,,,,,,,,,,,,,,,,,,,795.1104944510007,None,795.1104944510007,None,795.1104944510007,None,c,1,0.5858443140004965,796.6607290680004,None,796.6607290680004,None,796.6607290680004,None,797.3101939509997,None,797.3101939509997,None,797.3101939509997,None,797.3101939509997,None,,,,,,,,,,,,,,,,,,,,,,,,,,,,,,,,,,,,,,,,,,,,001,35,2020_Jan_30_1151,spring_faces,3.1.5,59.962271858317145,
condition files/Stage1_1.xlsx,,B2,T1,m,"['c', 'm']","['Clue', 'Monopoly']","[-0.15, 0.5]","[0.15, 0.5]",1,1,,,,,,,,,0,10,10,10,0,2,2,2,,,,,,,,,,,,,,,,,,,,,,,,,,,,,,,,,,,,,,,,,,,,,,,,,,,,,,,799.2772027080009,None,799.2772027080009,None,799.2772027080009,None,m,1,0.7713886050005385,800.8271996760013,None,800.8271996760013,None,800.8271996760013,None,801.6608492260002,None,801.6608492260002,None,801.6608492260002,None,801.6608492260002,None,,,,,,,,,,,,,,,,,,,,,,,,,,,,,,,,,,,,,,,,,,,,001,35,2020_Jan_30_1151,spring_faces,3.1.5,59.962271858317145,
condition files/Stage1_1.xlsx,,T4,B3,m,"['c', 'm']","['Clue', 'Monopoly']","[-0.15, 0.5]","[0.15, 0.5]",1,1,,,,,,,,,0,10,10,10,0,3,3,6,,,,,,,,,,,,,,,,,,,,,,,,,,,,,,,,,,,,,,,,,,,,,,,,,,,,,,,803.6271478319995,None,803.6271478319995,None,803.6271478319995,None,c,0,0.6457688259997667,805.1607586250011,None,805.1607586250011,None,805.1607586250011,None,805.8607456460013,None,805.8607456460013,None,805.8607456460013,None,805.8607456460013,None,,,,,,,,,,,,,,,,,,,,,,,,,,,,,,,,,,,,,,,,,,,,001,35,2020_Jan_30_1151,spring_faces,3.1.5,59.962271858317145,
condition files/Stage1_1.xlsx,,T2,B2,m,"['c', 'm']","['Clue', 'Monopoly']","[-0.15, 0.5]","[0.15, 0.5]",1,1,,,,,,,,,0,10,10,10,0,4,4,3,,,,,,,,,,,,,,,,,,,,,,,,,,,,,,,,,,,,,,,,,,,,,,,,,,,,,,,807.8271489100007,None,807.8271489100007,None,807.8271489100007,None,m,1,0.4771203519994742,809.3774933229997,None,809.3774933229997,None,809.3774933229997,None,809.9107622909996,None,809.9107622909996,None,809.9107622909996,None,809.9107622909996,None,,,,,,,,,,,,,,,,,,,,,,,,,,,,,,,,,,,,,,,,,,,,001,35,2020_Jan_30_1151,spring_faces,3.1.5,59.962271858317145,
condition files/Stage1_1.xlsx,,B3,T3,c,"['c', 'm']","['Clue', 'Monopoly']","[-0.15, 0.5]","[0.15, 0.5]",1,1,,,,,,,,,0,10,10,10,0,5,5,4,,,,,,,,,,,,,,,,,,,,,,,,,,,,,,,,,,,,,,,,,,,,,,,,,,,,,,,811.8773281370013,None,811.8773281370013,None,811.8773281370013,None,c,1,0.9068468370005576,813.4117753160008,None,813.4117753160008,None,813.4117753160008,None,814.3943070740006,None,814.3943070740006,None,814.3943070740006,None,814.3943070740006,None,,,,,,,,,,,,,,,,,,,,,,,,,,,,,,,,,,,,,,,,,,,,001,35,2020_Jan_30_1151,spring_faces,3.1.5,59.962271858317145,
condition files/Stage1_1.xlsx,,B1,T2,c,"['c', 'm']","['Clue', 'Monopoly']","[-0.15, 0.5]","[0.15, 0.5]",1,1,,,,,,,,,0,10,10,10,0,6,6,1,,,,,,,,,,,,,,,,,,,,,,,,,,,,,,,,,,,,,,,,,,,,,,,,,,,,,,,816.3440194490013,None,816.3440194490013,None,816.3440194490013,None,c,1,0.95292852700004,817.8776784929996,None,817.8776784929996,None,817.8776784929996,None,818.8940966339997,None,818.8940966339997,None,818.8940966339997,None,818.8940966339997,None,,,,,,,,,,,,,,,,,,,,,,,,,,,,,,,,,,,,,,,,,,,,001,35,2020_Jan_30_1151,spring_faces,3.1.5,59.962271858317145,
condition files/Stage1_1.xlsx,,B4,T4,m,"['c', 'm']","['Clue', 'Monopoly']","[-0.15, 0.5]","[0.15, 0.5]",1,1,,,,,,,,,0,10,10,10,0,7,7,7,,,,,,,,,,,,,,,,,,,,,,,,,,,,,,,,,,,,,,,,,,,,,,,,,,,,,,,820.8604612090003,None,820.8604612090003,None,820.8604612090003,None,m,1,0.788357729999916,822.3942249379998,None,822.3942249379998,None,822.3942249379998,None,823.2438406500005,None,823.2438406500005,None,823.2438406500005,None,823.2438406500005,None,,,,,,,,,,,,,,,,,,,,,,,,,,,,,,,,,,,,,,,,,,,,001,35,2020_Jan_30_1151,spring_faces,3.1.5,59.962271858317145,
condition files/Stage1_2.xlsx,,T2,B1,c,"['c', 'm']","['Clue', 'Monopoly']","[-0.15, 0.5]","[0.15, 0.5]",1,1,,,,,,,,,0,11,11,11,0,0,0,1,,,,,,,,,,,,,,,,,,,,,,,,,,,,,,,,,,,,,,,,,,,,,,,,,,,,,,,825.2276897299998,None,825.2276897299998,None,825.2276897299998,None,c,1,0.3563494910013105,826.7622903930005,None,826.7622903930005,None,826.7622903930005,None,827.1800653950013,None,827.1800653950013,None,827.1800653950013,None,827.1800653950013,None,,,,,,,,,,,,,,,,,,,,,,,,,,,,,,,,,,,,,,,,,,,,001,35,2020_Jan_30_1151,spring_faces,3.1.5,59.962271858317145,
condition files/Stage1_2.xlsx,,B3,T4,m,"['c', 'm']","['Clue', 'Monopoly']","[-0.15, 0.5]","[0.15, 0.5]",1,1,,,,,,,,,0,11,11,11,0,1,1,6,,,,,,,,,,,,,,,,,,,,,,,,,,,,,,,,,,,,,,,,,,,,,,,,,,,,,,,829.1444291309999,None,829.1444291309999,None,829.1444291309999,None,m,1,0.488561877000393,830.6940153570013,None,830.6940153570013,None,830.6940153570013,None,831.2437570680013,None,831.2437570680013,None,831.2437570680013,None,831.2437570680013,None,,,,,,,,,,,,,,,,,,,,,,,,,,,,,,,,,,,,,,,,,,,,001,35,2020_Jan_30_1151,spring_faces,3.1.5,59.962271858317145,
condition files/Stage1_2.xlsx,,B4,T3,c,"['c', 'm']","['Clue', 'Monopoly']","[-0.15, 0.5]","[0.15, 0.5]",1,1,,,,,,,,,0,11,11,11,0,2,2,5,,,,,,,,,,,,,,,,,,,,,,,,,,,,,,,,,,,,,,,,,,,,,,,,,,,,,,,833.2104436669997,None,833.2104436669997,None,833.2104436669997,None,c,1,0.5802072919996135,834.7463912580006,None,834.7463912580006,None,834.7463912580006,None,835.379567729,None,835.379567729,None,835.379567729,None,835.379567729,None,,,,,,,,,,,,,,,,,,,,,,,,,,,,,,,,,,,,,,,,,,,,001,35,2020_Jan_30_1151,spring_faces,3.1.5,59.962271858317145,
condition files/Stage1_2.xlsx,,T4,B4,m,"['c', 'm']","['Clue', 'Monopoly']","[-0.15, 0.5]","[0.15, 0.5]",1,1,,,,,,,,,0,11,11,11,0,3,3,7,,,,,,,,,,,,,,,,,,,,,,,,,,,,,,,,,,,,,,,,,,,,,,,,,,,,,,,837.3438402129996,None,837.3438402129996,None,837.3438402129996,None,m,1,0.5921056460010732,838.8785055930002,None,838.8785055930002,None,838.8785055930002,None,839.530259661,None,839.530259661,None,839.530259661,None,839.530259661,None,,,,,,,,,,,,,,,,,,,,,,,,,,,,,,,,,,,,,,,,,,,,001,35,2020_Jan_30_1151,spring_faces,3.1.5,59.962271858317145,
condition files/Stage1_2.xlsx,,B2,T2,m,"['c', 'm']","['Clue', 'Monopoly']","[-0.15, 0.5]","[0.15, 0.5]",1,1,,,,,,,,,0,11,11,11,0,4,4,3,,,,,,,,,,,,,,,,,,,,,,,,,,,,,,,,,,,,,,,,,,,,,,,,,,,,,,,841.493935681001,None,841.493935681001,None,841.493935681001,None,c,0,0.8574219220008672,843.029235684,None,843.029235684,None,843.029235684,None,843.9441688549996,None,843.9441688549996,None,843.9441688549996,None,843.9441688549996,None,,,,,,,,,,,,,,,,,,,,,,,,,,,,,,,,,,,,,,,,,,,,001,35,2020_Jan_30_1151,spring_faces,3.1.5,59.962271858317145,
condition files/Stage1_2.xlsx,,T3,B3,c,"['c', 'm']","['Clue', 'Monopoly']","[-0.15, 0.5]","[0.15, 0.5]",1,1,,,,,,,,,0,11,11,11,0,5,5,4,,,,,,,,,,,,,,,,,,,,,,,,,,,,,,,,,,,,,,,,,,,,,,,,,,,,,,,845.9106834400009,None,845.9106834400009,None,845.9106834400009,None,c,1,1.4975175950003177,847.4450720929999,None,847.4450720929999,None,847.4450720929999,None,848.995136298001,None,848.995136298001,None,848.995136298001,None,848.995136298001,None,,,,,,,,,,,,,,,,,,,,,,,,,,,,,,,,,,,,,,,,,,,,001,35,2020_Jan_30_1151,spring_faces,3.1.5,59.962271858317145,
condition files/Stage1_2.xlsx,,B1,T1,c,"['c', 'm']","['Clue', 'Monopoly']","[-0.15, 0.5]","[0.15, 0.5]",1,1,,,,,,,,,0,11,11,11,0,6,6,0,,,,,,,,,,,,,,,,,,,,,,,,,,,,,,,,,,,,,,,,,,,,,,,,,,,,,,,850.9605792250004,None,850.9605792250004,None,850.9605792250004,None,c,1,1.0562375250010518,852.5103504750005,None,852.5103504750005,None,852.5103504750005,None,853.6272646960006,None,853.6272646960006,None,853.6272646960006,None,853.6272646960006,None,,,,,,,,,,,,,,,,,,,,,,,,,,,,,,,,,,,,,,,,,,,,001,35,2020_Jan_30_1151,spring_faces,3.1.5,59.962271858317145,
condition files/Stage1_2.xlsx,,T1,B2,m,"['c', 'm']","['Clue', 'Monopoly']","[-0.15, 0.5]","[0.15, 0.5]",1,1,,,,,,,,,0,11,11,11,0,7,7,2,,,,,,,,,,,,,,,,,,,,,,,,,,,,,,,,,,,,,,,,,,,,,,,,,,,,,,,855.5936214690009,None,855.5936214690009,None,855.5936214690009,None,m,1,0.9832504669993796,857.1273639880001,None,857.1273639880001,None,857.1273639880001,None,858.1628634429999,None,858.1628634429999,None,858.1628634429999,None,858.1628634429999,None,,,,,,,,,,,,,,,,,,,,,,,,,,,,,,,,,,,,,,,,,,,,001,35,2020_Jan_30_1151,spring_faces,3.1.5,59.962271858317145,
,,,,,,,,,,,,,,,,,,,,,,,,,,,,,,,,,,,,,,,,,,,,,,,,,,,,,,,,,,,,,,,,,,,,,,,,,,,,,,,,,,,,,,,,,,,,,,,,,,,,,,,,,,,,,,,,860.1441159180013,None,space,6.902524880999408,865.1440780900011,None,,,,,,,,,,,,,,,,,,,,,,,,,,,,,,001,35,2020_Jan_30_1151,spring_faces,3.1.5,59.962271858317145,
condition files/Stage2_1.xlsx,,B6,T6,r,"['s', 'r']","['Stratego', 'Risk']","[-0.15, 0.5]","[0.15, 0.5]",1,1,,,,,,,,,,,,,,,,,0,0,0,0,0,0,0,1,,,,,,,,,,,,,,,,,,,,,,,,,,,,,,,,,,,,,,,,,,,,,,,872.1102986160004,None,872.1102986160004,None,872.1102986160004,None,s,0,1.2658064179995563,873.6127218350011,None,873.6127218350011,None,873.6127218350011,None,874.946568075,None,874.946568075,None,874.946568075,None,874.946568075,None,,,,,,,,,,,,,,,865.1440780900011,None,,,,,,,,,,,,,,,,,,,,,,,,,,,,001,35,2020_Jan_30_1151,spring_faces,3.1.5,59.962271858317145,
condition files/Stage2_1.xlsx,,T1,B1,s,"['s', 'r']","['Stratego', 'Risk']","[-0.15, 0.5]","[0.15, 0.5]",1,1,,,,,,,,,,,,,,,,,0,0,0,0,0,1,1,2,,,,,,,,,,,,,,,,,,,,,,,,,,,,,,,,,,,,,,,,,,,,,,,876.9099483410009,None,876.9099483410009,None,876.9099483410009,None,s,1,1.7617389449987968,878.4607658700006,None,878.4607658700006,None,878.4607658700006,None,880.2939173340001,None,880.2939173340001,None,880.2939173340001,None,880.2939173340001,None,,,,,,,,,,,,,,,,,,,,,,,,,,,,,,,,,,,,,,,,,,,,001,35,2020_Jan_30_1151,spring_faces,3.1.5,59.962271858317145,
condition files/Stage2_1.xlsx,,T5,B5,s,"['s', 'r']","['Stratego', 'Risk']","[-0.15, 0.5]","[0.15, 0.5]",1,1,,,,,,,,,,,,,,,,,0,0,0,0,0,2,2,0,,,,,,,,,,,,,,,,,,,,,,,,,,,,,,,,,,,,,,,,,,,,,,,882.243865456001,None,882.243865456001,None,882.243865456001,None,r,0,1.7567924029990536,883.7938335440012,None,883.7938335440012,None,883.7938335440012,None,885.6107059130009,None,885.6107059130009,None,885.6107059130009,None,885.6107059130009,None,,,,,,,,,,,,,,,,,,,,,,,,,,,,,,,,,,,,,,,,,,,,001,35,2020_Jan_30_1151,spring_faces,3.1.5,59.962271858317145,
condition files/Stage2_1.xlsx,,T3,B3,s,"['s', 'r']","['Stratego', 'Risk']","[-0.15, 0.5]","[0.15, 0.5]",1,1,,,,,,,,,,,,,,,,,0,0,0,0,0,3,3,4,,,,,,,,,,,,,,,,,,,,,,,,,,,,,,,,,,,,,,,,,,,,,,,887.5769590110012,None,887.5769590110012,None,887.5769590110012,None,s,1,1.8637761840000167,889.1107934290012,None,889.1107934290012,None,889.1107934290012,None,891.0271660220005,None,891.0271660220005,None,891.0271660220005,None,891.0271660220005,None,,,,,,,,,,,,,,,,,,,,,,,,,,,,,,,,,,,,,,,,,,,,001,35,2020_Jan_30_1151,spring_faces,3.1.5,59.962271858317145,
condition files/Stage2_1.xlsx,,B4,T4,r,"['s', 'r']","['Stratego', 'Risk']","[-0.15, 0.5]","[0.15, 0.5]",1,1,,,,,,,,,,,,,,,,,0,0,0,0,0,4,4,5,,,,,,,,,,,,,,,,,,,,,,,,,,,,,,,,,,,,,,,,,,,,,,,892.9938307430002,None,892.9938307430002,None,892.9938307430002,None,r,1,1.2301124250006978,894.528470788,None,894.528470788,None,894.528470788,None,895.8110906689999,None,895.8110906689999,None,895.8110906689999,None,895.8110906689999,None,,,,,,,,,,,,,,,,,,,,,,,,,,,,,,,,,,,,,,,,,,,,001,35,2020_Jan_30_1151,spring_faces,3.1.5,59.962271858317145,
condition files/Stage2_1.xlsx,,B2,T2,r,"['s', 'r']","['Stratego', 'Risk']","[-0.15, 0.5]","[0.15, 0.5]",1,1,,,,,,,,,,,,,,,,,0,0,0,0,0,5,5,3,,,,,,,,,,,,,,,,,,,,,,,,,,,,,,,,,,,,,,,,,,,,,,,897.7773845709999,None,897.7773845709999,None,897.7773845709999,None,s,0,0.9918736340005125,899.3107538820004,None,899.3107538820004,None,899.3107538820004,None,900.3604299899998,None,900.3604299899998,None,900.3604299899998,None,900.3604299899998,None,,,,,,,,,,,,,,,,,,,,,,,,,,,,,,,,,,,,,,,,,,,,001,35,2020_Jan_30_1151,spring_faces,3.1.5,59.962271858317145,
condition files/Stage2_2.xlsx,,B3,T3,s,"['s', 'r']","['Stratego', 'Risk']","[-0.15, 0.5]","[0.15, 0.5]",1,1,,,,,,,,,,,,,,,,,0,1,1,1,0,0,0,4,,,,,,,,,,,,,,,,,,,,,,,,,,,,,,,,,,,,,,,,,,,,,,,902.3438867990008,None,902.3438867990008,None,902.3438867990008,None,s,1,2.5523839620000217,903.8942138450002,None,903.8942138450002,None,903.8942138450002,None,906.5108939350011,None,906.5108939350011,None,906.5108939350011,None,906.5108939350011,None,,,,,,,,,,,,,,,,,,,,,,,,,,,,,,,,,,,,,,,,,,,,001,35,2020_Jan_30_1151,spring_faces,3.1.5,59.962271858317145,
condition files/Stage2_2.xlsx,,T6,B6,r,"['s', 'r']","['Stratego', 'Risk']","[-0.15, 0.5]","[0.15, 0.5]",1,1,,,,,,,,,,,,,,,,,0,1,1,1,0,1,1,1,,,,,,,,,,,,,,,,,,,,,,,,,,,,,,,,,,,,,,,,,,,,,,,908.4773526120007,None,908.4773526120007,None,908.4773526120007,None,r,1,0.8829264859996329,910.027675669,None,910.027675669,None,910.027675669,None,910.976880993001,None,910.976880993001,None,910.976880993001,None,910.976880993001,None,,,,,,,,,,,,,,,,,,,,,,,,,,,,,,,,,,,,,,,,,,,,001,35,2020_Jan_30_1151,spring_faces,3.1.5,59.962271858317145,
condition files/Stage2_2.xlsx,,B5,T5,s,"['s', 'r']","['Stratego', 'Risk']","[-0.15, 0.5]","[0.15, 0.5]",1,1,,,,,,,,,,,,,,,,,0,1,1,1,0,2,2,0,,,,,,,,,,,,,,,,,,,,,,,,,,,,,,,,,,,,,,,,,,,,,,,912.9271694910003,None,912.9271694910003,None,912.9271694910003,None,s,1,2.9767761769999197,914.4617830900006,None,914.4617830900006,None,914.4617830900006,None,917.5104323249998,None,917.5104323249998,None,917.5104323249998,None,917.5104323249998,None,,,,,,,,,,,,,,,,,,,,,,,,,,,,,,,,,,,,,,,,,,,,001,35,2020_Jan_30_1151,spring_faces,3.1.5,59.962271858317145,
condition files/Stage2_2.xlsx,,T4,B4,r,"['s', 'r']","['Stratego', 'Risk']","[-0.15, 0.5]","[0.15, 0.5]",1,1,,,,,,,,,,,,,,,,,0,1,1,1,0,3,3,5,,,,,,,,,,,,,,,,,,,,,,,,,,,,,,,,,,,,,,,,,,,,,,,919.4602804990009,None,919.4602804990009,None,919.4602804990009,None,r,1,1.4988322789995436,920.995707170001,None,920.995707170001,None,920.995707170001,None,922.5602612370003,None,922.5602612370003,None,922.5602612370003,None,922.5602612370003,None,,,,,,,,,,,,,,,,,,,,,,,,,,,,,,,,,,,,,,,,,,,,001,35,2020_Jan_30_1151,spring_faces,3.1.5,59.962271858317145,
condition files/Stage2_2.xlsx,,B1,T1,s,"['s', 'r']","['Stratego', 'Risk']","[-0.15, 0.5]","[0.15, 0.5]",1,1,,,,,,,,,,,,,,,,,0,1,1,1,0,4,4,2,,,,,,,,,,,,,,,,,,,,,,,,,,,,,,,,,,,,,,,,,,,,,,,924.5269550110006,None,924.5269550110006,None,924.5269550110006,None,s,1,0.8958488090011087,926.0627292910012,None,926.0627292910012,None,926.0627292910012,None,927.0108647920006,None,927.0108647920006,None,927.0108647920006,None,927.0108647920006,None,,,,,,,,,,,,,,,,,,,,,,,,,,,,,,,,,,,,,,,,,,,,001,35,2020_Jan_30_1151,spring_faces,3.1.5,59.962271858317145,
condition files/Stage2_2.xlsx,,T2,B2,r,"['s', 'r']","['Stratego', 'Risk']","[-0.15, 0.5]","[0.15, 0.5]",1,1,,,,,,,,,,,,,,,,,0,1,1,1,0,5,5,3,,,,,,,,,,,,,,,,,,,,,,,,,,,,,,,,,,,,,,,,,,,,,,,928.9776670700012,None,928.9776670700012,None,928.9776670700012,None,r,1,1.6630972200000542,930.5275996310011,None,930.5275996310011,None,930.5275996310011,None,932.2602559469997,None,932.2602559469997,None,932.2602559469997,None,932.2602559469997,None,,,,,,,,,,,,,,,,,,,,,,,,,,,,,,,,,,,,,,,,,,,,001,35,2020_Jan_30_1151,spring_faces,3.1.5,59.962271858317145,
condition files/Stage2_1.xlsx,,T3,B3,s,"['s', 'r']","['Stratego', 'Risk']","[-0.15, 0.5]","[0.15, 0.5]",1,1,,,,,,,,,,,,,,,,,0,2,2,2,0,0,0,4,,,,,,,,,,,,,,,,,,,,,,,,,,,,,,,,,,,,,,,,,,,,,,,934.2275564700012,None,934.2275564700012,None,934.2275564700012,None,r,0,1.1323454920002405,935.7621843870002,None,935.7621843870002,None,935.7621843870002,None,936.9625804380012,None,936.9625804380012,None,936.9625804380012,None,936.9625804380012,None,,,,,,,,,,,,,,,,,,,,,,,,,,,,,,,,,,,,,,,,,,,,001,35,2020_Jan_30_1151,spring_faces,3.1.5,59.962271858317145,
condition files/Stage2_1.xlsx,,T5,B5,s,"['s', 'r']","['Stratego', 'Risk']","[-0.15, 0.5]","[0.15, 0.5]",1,1,,,,,,,,,,,,,,,,,0,2,2,2,0,1,1,0,,,,,,,,,,,,,,,,,,,,,,,,,,,,,,,,,,,,,,,,,,,,,,,938.9272954629996,None,938.9272954629996,None,938.9272954629996,None,s,1,1.713370125999063,940.4772099330003,None,940.4772099330003,None,940.4772099330003,None,942.2444611909996,None,942.2444611909996,None,942.2444611909996,None,942.2444611909996,None,,,,,,,,,,,,,,,,,,,,,,,,,,,,,,,,,,,,,,,,,,,,001,35,2020_Jan_30_1151,spring_faces,3.1.5,59.962271858317145,
condition files/Stage2_1.xlsx,,B6,T6,r,"['s', 'r']","['Stratego', 'Risk']","[-0.15, 0.5]","[0.15, 0.5]",1,1,,,,,,,,,,,,,,,,,0,2,2,2,0,2,2,1,,,,,,,,,,,,,,,,,,,,,,,,,,,,,,,,,,,,,,,,,,,,,,,944.2105251940011,None,944.2105251940011,None,944.2105251940011,None,s,0,0.7978550549996726,945.744749165,None,945.744749165,None,945.744749165,None,946.6104596160003,None,946.6104596160003,None,946.6104596160003,None,946.6104596160003,None,,,,,,,,,,,,,,,,,,,,,,,,,,,,,,,,,,,,,,,,,,,,001,35,2020_Jan_30_1151,spring_faces,3.1.5,59.962271858317145,
condition files/Stage2_1.xlsx,,B4,T4,r,"['s', 'r']","['Stratego', 'Risk']","[-0.15, 0.5]","[0.15, 0.5]",1,1,,,,,,,,,,,,,,,,,0,2,2,2,0,3,3,5,,,,,,,,,,,,,,,,,,,,,,,,,,,,,,,,,,,,,,,,,,,,,,,948.5600761340011,None,948.5600761340011,None,948.5600761340011,None,r,1,2.048535902000367,950.094073577,None,950.094073577,None,950.094073577,None,952.194189662001,None,952.194189662001,None,952.194189662001,None,952.194189662001,None,,,,,,,,,,,,,,,,,,,,,,,,,,,,,,,,,,,,,,,,,,,,001,35,2020_Jan_30_1151,spring_faces,3.1.5,59.962271858317145,
condition files/Stage2_1.xlsx,,B2,T2,r,"['s', 'r']","['Stratego', 'Risk']","[-0.15, 0.5]","[0.15, 0.5]",1,1,,,,,,,,,,,,,,,,,0,2,2,2,0,4,4,3,,,,,,,,,,,,,,,,,,,,,,,,,,,,,,,,,,,,,,,,,,,,,,,954.1601647469997,None,954.1601647469997,None,954.1601647469997,None,r,1,0.9598653070006549,955.7107314969999,None,955.7107314969999,None,955.7107314969999,None,956.7269512599996,None,956.7269512599996,None,956.7269512599996,None,956.7269512599996,None,,,,,,,,,,,,,,,,,,,,,,,,,,,,,,,,,,,,,,,,,,,,001,35,2020_Jan_30_1151,spring_faces,3.1.5,59.962271858317145,
condition files/Stage2_1.xlsx,,T1,B1,s,"['s', 'r']","['Stratego', 'Risk']","[-0.15, 0.5]","[0.15, 0.5]",1,1,,,,,,,,,,,,,,,,,0,2,2,2,0,5,5,2,,,,,,,,,,,,,,,,,,,,,,,,,,,,,,,,,,,,,,,,,,,,,,,958.6938940880009,None,958.6938940880009,None,958.6938940880009,None,r,0,1.0675131989992224,960.2270220350001,None,960.2270220350001,None,960.2270220350001,None,961.3621147260001,None,961.3621147260001,None,961.3621147260001,None,961.3621147260001,None,,,,,,,,,,,,,,,,,,,,,,,,,,,,,,,,,,,,,,,,,,,,001,35,2020_Jan_30_1151,spring_faces,3.1.5,59.962271858317145,
condition files/Stage2_2.xlsx,,T6,B6,r,"['s', 'r']","['Stratego', 'Risk']","[-0.15, 0.5]","[0.15, 0.5]",1,1,,,,,,,,,,,,,,,,,0,3,3,3,0,0,0,1,,,,,,,,,,,,,,,,,,,,,,,,,,,,,,,,,,,,,,,,,,,,,,,963.3438305050004,None,963.3438305050004,None,963.3438305050004,None,r,1,2.078868627999327,964.8797224179998,None,964.8797224179998,None,964.8797224179998,None,967.0120436369998,None,967.0120436369998,None,967.0120436369998,None,967.0120436369998,None,,,,,,,,,,,,,,,,,,,,,,,,,,,,,,,,,,,,,,,,,,,,001,35,2020_Jan_30_1151,spring_faces,3.1.5,59.962271858317145,
condition files/Stage2_2.xlsx,,T4,B4,r,"['s', 'r']","['Stratego', 'Risk']","[-0.15, 0.5]","[0.15, 0.5]",1,1,,,,,,,,,,,,,,,,,0,3,3,3,0,1,1,5,,,,,,,,,,,,,,,,,,,,,,,,,,,,,,,,,,,,,,,,,,,,,,,968.9772701640013,None,968.9772701640013,None,968.9772701640013,None,s,0,0.6241535189983551,970.5104659230001,None,970.5104659230001,None,970.5104659230001,None,971.194085905001,None,971.194085905001,None,971.194085905001,None,971.194085905001,None,,,,,,,,,,,,,,,,,,,,,,,,,,,,,,,,,,,,,,,,,,,,001,35,2020_Jan_30_1151,spring_faces,3.1.5,59.962271858317145,
condition files/Stage2_2.xlsx,,B3,T3,s,"['s', 'r']","['Stratego', 'Risk']","[-0.15, 0.5]","[0.15, 0.5]",1,1,,,,,,,,,,,,,,,,,0,3,3,3,0,2,2,4,,,,,,,,,,,,,,,,,,,,,,,,,,,,,,,,,,,,,,,,,,,,,,,973.1606099630008,None,973.1606099630008,None,973.1606099630008,None,r,0,1.688201316001141,974.7103915320004,None,974.7103915320004,None,974.7103915320004,None,976.4609392920011,None,976.4609392920011,None,976.4609392920011,None,976.4609392920011,None,,,,,,,,,,,,,,,,,,,,,,,,,,,,,,,,,,,,,,,,,,,,001,35,2020_Jan_30_1151,spring_faces,3.1.5,59.962271858317145,
condition files/Stage2_2.xlsx,,B5,T5,s,"['s', 'r']","['Stratego', 'Risk']","[-0.15, 0.5]","[0.15, 0.5]",1,1,,,,,,,,,,,,,,,,,0,3,3,3,0,3,3,0,,,,,,,,,,,,,,,,,,,,,,,,,,,,,,,,,,,,,,,,,,,,,,,978.4271789390004,None,978.4271789390004,None,978.4271789390004,None,r,0,1.4291707579996,979.9773446070012,None,979.9773446070012,None,979.9773446070012,None,981.4603315470013,None,981.4603315470013,None,981.4603315470013,None,981.4603315470013,None,,,,,,,,,,,,,,,,,,,,,,,,,,,,,,,,,,,,,,,,,,,,001,35,2020_Jan_30_1151,spring_faces,3.1.5,59.962271858317145,
condition files/Stage2_2.xlsx,,B1,T1,s,"['s', 'r']","['Stratego', 'Risk']","[-0.15, 0.5]","[0.15, 0.5]",1,1,,,,,,,,,,,,,,,,,0,3,3,3,0,4,4,2,,,,,,,,,,,,,,,,,,,,,,,,,,,,,,,,,,,,,,,,,,,,,,,983.4271486810012,None,983.4271486810012,None,983.4271486810012,None,s,1,1.502115576999131,984.9604665130009,None,984.9604665130009,None,984.9604665130009,None,986.5274190399996,None,986.5274190399996,None,986.5274190399996,None,986.5274190399996,None,,,,,,,,,,,,,,,,,,,,,,,,,,,,,,,,,,,,,,,,,,,,001,35,2020_Jan_30_1151,spring_faces,3.1.5,59.962271858317145,
condition files/Stage2_2.xlsx,,T2,B2,r,"['s', 'r']","['Stratego', 'Risk']","[-0.15, 0.5]","[0.15, 0.5]",1,1,,,,,,,,,,,,,,,,,0,3,3,3,0,5,5,3,,,,,,,,,,,,,,,,,,,,,,,,,,,,,,,,,,,,,,,,,,,,,,,988.493511308001,None,988.493511308001,None,988.493511308001,None,r,1,1.0103636429994367,990.0442469870013,None,990.0442469870013,None,990.0442469870013,None,991.1270189830011,None,991.1270189830011,None,991.1270189830011,None,991.1270189830011,None,,,,,,,,,,,,,,,,,,,,,,,,,,,,,,,,,,,,,,,,,,,,001,35,2020_Jan_30_1151,spring_faces,3.1.5,59.962271858317145,
condition files/Stage2_1.xlsx,,B4,T4,r,"['s', 'r']","['Stratego', 'Risk']","[-0.15, 0.5]","[0.15, 0.5]",1,1,,,,,,,,,,,,,,,,,0,4,4,4,0,0,0,5,,,,,,,,,,,,,,,,,,,,,,,,,,,,,,,,,,,,,,,,,,,,,,,993.0937211680011,None,993.0937211680011,None,993.0937211680011,None,r,1,1.722154512999623,994.6284751359999,None,994.6284751359999,None,994.6284751359999,None,996.4105365169999,None,996.4105365169999,None,996.4105365169999,None,996.4105365169999,None,,,,,,,,,,,,,,,,,,,,,,,,,,,,,,,,,,,,,,,,,,,,001,35,2020_Jan_30_1151,spring_faces,3.1.5,59.962271858317145,
condition files/Stage2_1.xlsx,,T1,B1,s,"['s', 'r']","['Stratego', 'Risk']","[-0.15, 0.5]","[0.15, 0.5]",1,1,,,,,,,,,,,,,,,,,0,4,4,4,0,1,1,2,,,,,,,,,,,,,,,,,,,,,,,,,,,,,,,,,,,,,,,,,,,,,,,998.3771717920008,None,998.3771717920008,None,998.3771717920008,None,s,1,0.3445024030006607,999.9101329519999,None,999.9101329519999,None,999.9101329519999,None,1000.3124536470004,None,1000.3124536470004,None,1000.3124536470004,None,1000.3124536470004,None,,,,,,,,,,,,,,,,,,,,,,,,,,,,,,,,,,,,,,,,,,,,001,35,2020_Jan_30_1151,spring_faces,3.1.5,59.962271858317145,
condition files/Stage2_1.xlsx,,B2,T2,r,"['s', 'r']","['Stratego', 'Risk']","[-0.15, 0.5]","[0.15, 0.5]",1,1,,,,,,,,,,,,,,,,,0,4,4,4,0,2,2,3,,,,,,,,,,,,,,,,,,,,,,,,,,,,,,,,,,,,,,,,,,,,,,,1002.2765593050008,None,1002.2765593050008,None,1002.2765593050008,None,s,0,1.6285068899996986,1003.8100864970002,None,1003.8100864970002,None,1003.8100864970002,None,1005.4965658029996,None,1005.4965658029996,None,1005.4965658029996,None,1005.4965658029996,None,,,,,,,,,,,,,,,,,,,,,,,,,,,,,,,,,,,,,,,,,,,,001,35,2020_Jan_30_1151,spring_faces,3.1.5,59.962271858317145,
