condsFile,subStage,cue1,cue2,correct,responseKeys,responseNames,cue1Position,cue2Position,cue1Opacity,cue2Opacity,stageLoop0.thisRepN,stageLoop0.thisTrialN,stageLoop0.thisN,stageLoop0.thisIndex,blockLoop0.thisRepN,blockLoop0.thisTrialN,blockLoop0.thisN,blockLoop0.thisIndex,stage1Loop.thisRepN,stage1Loop.thisTrialN,stage1Loop.thisN,stage1Loop.thisIndex,blockLoop1.thisRepN,blockLoop1.thisTrialN,blockLoop1.thisN,blockLoop1.thisIndex,stage2Loop.thisRepN,stage2Loop.thisTrialN,stage2Loop.thisN,stage2Loop.thisIndex,blockLoop2.thisRepN,blockLoop2.thisTrialN,blockLoop2.thisN,blockLoop2.thisIndex,testLoop.thisRepN,testLoop.thisTrialN,testLoop.thisN,testLoop.thisIndex,blockLoopTest.thisRepN,blockLoopTest.thisTrialN,blockLoopTest.thisN,blockLoopTest.thisIndex,cuePics,id_instr_text.started,id_instr_text.stopped,space_to_continue_2.started,space_to_continue_2.stopped,end_instructions_resp_3.keys,end_instructions_resp_3.rt,end_instructions_resp_3.started,end_instructions_resp_3.stopped,id_input_instr.started,id_input_instr.stopped,id_input_rect.started,id_input_rect.stopped,id_input_resp.keys,id_input_resp.rt,id_input_resp.started,id_input_resp.stopped,sonaID,id_input_text.started,id_input_text.stopped,final_text.started,final_text.stopped,instructions.started,instructions.stopped,end_instructions_resp.keys,end_instructions_resp.rt,end_instructions_resp.started,end_instructions_resp.stopped,space_to_continue.started,space_to_continue.stopped,instructions_stage0.started,instructions_stage0.stopped,end_instructions_resp_stage0.keys,end_instructions_resp_stage0.rt,end_instructions_resp_stage0.started,end_instructions_resp_stage0.stopped,space_to_continue_stage0.started,space_to_continue_stage0.stopped,text.started,text.stopped,resp_text1.started,resp_text1.stopped,resp_text2.started,resp_text2.stopped,trial_resp.keys,trial_resp.corr,trial_resp.rt,trial_resp.started,trial_resp.stopped,cue1Image.started,cue1Image.stopped,cue2Image.started,cue2Image.stopped,cue1Image_fb.started,cue1Image_fb.stopped,cue2Image_fb.started,cue2Image_fb.stopped,fb_text_answer.started,fb_text_answer.stopped,feedback_image.started,feedback_image.stopped,instructions_stage1.started,instructions_stage1.stopped,end_instructions_resp_stage1.keys,end_instructions_resp_stage1.rt,end_instructions_resp_stage1.started,end_instructions_resp_stage1.stopped,space_to_continue_stage1.started,space_to_continue_stage1.stopped,instructions_2.started,instructions_2.stopped,end_instructions_resp_2.keys,end_instructions_resp_2.rt,end_instructions_resp_2.started,end_instructions_resp_2.stopped,press_space_to_continue_stage2.started,press_space_to_continue_stage2.stopped,instructions_testStage1.started,instructions_testStage1.stopped,end_instructions_resp_test1.keys,end_instructions_resp_test1.rt,end_instructions_resp_test1.started,end_instructions_resp_test1.stopped,press_space_to_continue_test1.started,press_space_to_continue_test1.stopped,cue1Image_testChoice.started,cue1Image_testChoice.stopped,cue2Image_testChoice.started,cue2Image_testChoice.stopped,test_resp.keys,test_resp.corr,test_resp.rt,test_resp.started,test_resp.stopped,cue1Image_testConf.started,cue1Image_testConf.stopped,cue2Image_testConf.started,cue2Image_testConf.stopped,conf_reminder.started,conf_reminder.stopped,conf_rating.response,conf_rating.rt,conf_rating.started,conf_rating.stopped,session,participant,date,expName,psychopyVersion,frameRate,
,,,,,,,,,,,,,,,,,,,,,,,,,,,,,,,,,,,,,,,,,,,"{'none': 'pictures/20M_AN_C.png', 'alpha': 'pictures/SHINEd_pepper.png', 'beta': 'pictures/SHINEd_melon.png', 'theta': 'pictures/SHINEd_pear.png', 'phi': 'pictures/SHINEd_apple.png', 'T1': 'pictures/26M_AN_C.png', 'T2': 'pictures/20M_AN_C.png', 'T3': 'pictures/38M_AN_C.png', 'T4': 'pictures/23M_AN_C.png', 'T5': 'pictures/34M_AN_C.png', 'T6': 'pictures/25M_AN_C.png', 'B1': 'pictures/31M_NE_C.png', 'B2': 'pictures/37M_NE_C.png', 'B3': 'pictures/36M_NE_C.png', 'B4': 'pictures/32M_NE_C.png', 'B5': 'pictures/33M_NE_C.png', 'B6': 'pictures/22M_NE_C.png'}",22.109638805999566,None,27.092807265999,None,space,6.134450790999836,27.092807265999,None,,,,,,,,,,,,,,,,,,,,,,,,,,,,,,,,,,,,,,,,,,,,,,,,,,,,,,,,,,,,,,,,,,,,,,,,,,,,,,,,,,,,,,,,,,,,,,,,001,37,2020_Jan_30_1205,spring_faces,3.1.5,60.061638256041476,
,,,,,,,,,,,,,,,,,,,,,,,,,,,,,,,,,,,,,,,,,,,,,,,,,,,,33.70927217099961,None,33.70927217099961,None,"['0', '8', '1', '0', 'k', 'a', 's', 't', 'e']","[7.742084499999692, 8.046011483000257, 13.501921261000462, 13.758081190000667, 17.006030848999217, 17.886011116999725, 26.990015762999974, 27.101958167999328, 27.51796123799977]",33.70927217099961,None,,,,,,,,,,,,,,,,,,,,,,,,,,,,,,,,,,,,,,,,,,,,,,,,,,,,,,,,,,,,,,,,,,,,,,,,,,,,,,,,,,,,,,,,001,37,2020_Jan_30_1205,spring_faces,3.1.5,60.061638256041476,
,,,,,,,,,,,,,,,,,,,,,,,,,,,,,,,,,,,,,,,,,,,,,,,,,,,,,,,,,,,,0810kaste,33.70927217099961,None,33.70927217099961,None,66.30945243199858,None,space,2.414077753001038,71.30921490499895,None,,,,,,,,,,,,,,,,,,,,,,,,,,,,,,,,,,,,,,,,,,,,,,,,,,,,,,,,,,,,,,,,,,,,,,,,,,,,,001,37,2020_Jan_30_1205,spring_faces,3.1.5,60.061638256041476,
,,,,,,,,,,,,,,,,,,,,,,,,,,,,,,,,,,,,,,,,,,,,,,,,,,,,,,,,,,,,,,,,,,,,,,,71.30921490499895,None,73.759150210999,None,space,6.404072344999804,78.75921066699993,None,,,,,,,,,,,,,,,,,,,,,,,,,,,,,,,,,,,,,,,,,,,,,,,,,,,,,,,,,,,,,,,,,,,,,001,37,2020_Jan_30_1205,spring_faces,3.1.5,60.061638256041476,
condition files/Stage0a.xlsx,0a,alpha,none,h,"['h', 'g']","['Chess', 'Go']","[0, 0.5]","[0, 0]",1,0,0,0,0,0,0,0,0,0,,,,,,,,,,,,,,,,,,,,,,,,,,,,,,,,,,,,,,,,,,,,,,,,,,,,,,,,,,,,,78.75921066699993,None,85.29290201799995,None,85.29290201799995,None,85.29290201799995,None,g,0,2.3507821380007954,86.89247759599857,None,86.89247759599857,None,86.89247759599857,None,89.35941149299833,None,89.35941149299833,None,89.35941149299833,None,89.35941149299833,None,,,,,,,,,,,,,,,,,,,,,,,,,,,,,,,,,,,,,,,,,,,,001,37,2020_Jan_30_1205,spring_faces,3.1.5,60.061638256041476,
condition files/Stage0a.xlsx,0a,beta,none,g,"['h', 'g']","['Chess', 'Go']","[0, 0.5]","[0, 0]",1,0,0,0,0,0,0,1,1,1,,,,,,,,,,,,,,,,,,,,,,,,,,,,,,,,,,,,,,,,,,,,,,,,,,,,,,,,,,,,,,,91.27587517599932,None,91.27587517599932,None,91.27587517599932,None,h,0,3.088619452000785,92.82668024199847,None,92.82668024199847,None,92.82668024199847,None,95.97574852999969,None,95.97574852999969,None,95.97574852999969,None,95.97574852999969,None,,,,,,,,,,,,,,,,,,,,,,,,,,,,,,,,,,,,,,,,,,,,001,37,2020_Jan_30_1205,spring_faces,3.1.5,60.061638256041476,
condition files/Stage0a.xlsx,0a,beta,none,g,"['h', 'g']","['Chess', 'Go']","[0, 0.5]","[0, 0]",1,0,0,1,1,1,0,0,0,1,,,,,,,,,,,,,,,,,,,,,,,,,,,,,,,,,,,,,,,,,,,,,,,,,,,,,,,,,,,,,,,97.9588824099992,None,97.9588824099992,None,97.9588824099992,None,g,1,1.719771051000862,99.475509504,None,99.475509504,None,99.475509504,None,101.30981472199892,None,101.30981472199892,None,101.30981472199892,None,101.30981472199892,None,,,,,,,,,,,,,,,,,,,,,,,,,,,,,,,,,,,,,,,,,,,,001,37,2020_Jan_30_1205,spring_faces,3.1.5,60.061638256041476,
condition files/Stage0a.xlsx,0a,alpha,none,h,"['h', 'g']","['Chess', 'Go']","[0, 0.5]","[0, 0]",1,0,0,1,1,1,0,1,1,0,,,,,,,,,,,,,,,,,,,,,,,,,,,,,,,,,,,,,,,,,,,,,,,,,,,,,,,,,,,,,,,103.22570453199842,None,103.22570453199842,None,103.22570453199842,None,g,0,0.8358679469984054,104.75943982099852,None,104.75943982099852,None,104.75943982099852,None,105.66022583799895,None,105.66022583799895,None,105.66022583799895,None,105.66022583799895,None,,,,,,,,,,,,,,,,,,,,,,,,,,,,,,,,,,,,,,,,,,,,001,37,2020_Jan_30_1205,spring_faces,3.1.5,60.061638256041476,
condition files/Stage0a.xlsx,0a,alpha,none,h,"['h', 'g']","['Chess', 'Go']","[0, 0.5]","[0, 0]",1,0,0,2,2,2,0,0,0,0,,,,,,,,,,,,,,,,,,,,,,,,,,,,,,,,,,,,,,,,,,,,,,,,,,,,,,,,,,,,,,,107.64261886299937,None,107.64261886299937,None,107.64261886299937,None,h,1,0.7241118470010406,109.1752286689989,None,109.1752286689989,None,109.1752286689989,None,109.95943733399872,None,109.95943733399872,None,109.95943733399872,None,109.95943733399872,None,,,,,,,,,,,,,,,,,,,,,,,,,,,,,,,,,,,,,,,,,,,,001,37,2020_Jan_30_1205,spring_faces,3.1.5,60.061638256041476,
condition files/Stage0a.xlsx,0a,beta,none,g,"['h', 'g']","['Chess', 'Go']","[0, 0.5]","[0, 0]",1,0,0,2,2,2,0,1,1,1,,,,,,,,,,,,,,,,,,,,,,,,,,,,,,,,,,,,,,,,,,,,,,,,,,,,,,,,,,,,,,,111.92580448399895,None,111.92580448399895,None,111.92580448399895,None,g,1,0.7438622360004956,113.45949660599945,None,113.45949660599945,None,113.45949660599945,None,114.25941993899869,None,114.25941993899869,None,114.25941993899869,None,114.25941993899869,None,,,,,,,,,,,,,,,,,,,,,,,,,,,,,,,,,,,,,,,,,,,,001,37,2020_Jan_30_1205,spring_faces,3.1.5,60.061638256041476,
condition files/Stage0a.xlsx,0a,alpha,none,h,"['h', 'g']","['Chess', 'Go']","[0, 0.5]","[0, 0]",1,0,0,3,3,3,0,0,0,0,,,,,,,,,,,,,,,,,,,,,,,,,,,,,,,,,,,,,,,,,,,,,,,,,,,,,,,,,,,,,,,116.24268730699987,None,116.24268730699987,None,116.24268730699987,None,h,1,0.6192123319997336,117.77611440999863,None,117.77611440999863,None,117.77611440999863,None,118.45901544099979,None,118.45901544099979,None,118.45901544099979,None,118.45901544099979,None,,,,,,,,,,,,,,,,,,,,,,,,,,,,,,,,,,,,,,,,,,,,001,37,2020_Jan_30_1205,spring_faces,3.1.5,60.061638256041476,
condition files/Stage0a.xlsx,0a,beta,none,g,"['h', 'g']","['Chess', 'Go']","[0, 0.5]","[0, 0]",1,0,0,3,3,3,0,1,1,1,,,,,,,,,,,,,,,,,,,,,,,,,,,,,,,,,,,,,,,,,,,,,,,,,,,,,,,,,,,,,,,120.42583117100003,None,120.42583117100003,None,120.42583117100003,None,g,1,0.7721234200016625,121.95916010699875,None,121.95916010699875,None,121.95916010699875,None,122.79252586799885,None,122.79252586799885,None,122.79252586799885,None,122.79252586799885,None,,,,,,,,,,,,,,,,,,,,,,,,,,,,,,,,,,,,,,,,,,,,001,37,2020_Jan_30_1205,spring_faces,3.1.5,60.061638256041476,
condition files/Stage0a.xlsx,0a,alpha,none,h,"['h', 'g']","['Chess', 'Go']","[0, 0.5]","[0, 0]",1,0,0,4,4,4,0,0,0,0,,,,,,,,,,,,,,,,,,,,,,,,,,,,,,,,,,,,,,,,,,,,,,,,,,,,,,,,,,,,,,,124.77624367799945,None,124.77624367799945,None,124.77624367799945,None,h,1,0.5348622990004515,126.29240150899932,None,126.29240150899932,None,126.29240150899932,None,126.89244584599874,None,126.89244584599874,None,126.89244584599874,None,126.89244584599874,None,,,,,,,,,,,,,,,,,,,,,,,,,,,,,,,,,,,,,,,,,,,,001,37,2020_Jan_30_1205,spring_faces,3.1.5,60.061638256041476,
condition files/Stage0a.xlsx,0a,beta,none,g,"['h', 'g']","['Chess', 'Go']","[0, 0.5]","[0, 0]",1,0,0,4,4,4,0,1,1,1,,,,,,,,,,,,,,,,,,,,,,,,,,,,,,,,,,,,,,,,,,,,,,,,,,,,,,,,,,,,,,,128.85925395999948,None,128.85925395999948,None,128.85925395999948,None,g,1,0.5942864939988795,130.39298282399977,None,130.39298282399977,None,130.39298282399977,None,131.04190985899913,None,131.04190985899913,None,131.04190985899913,None,131.04190985899913,None,,,,,,,,,,,,,,,,,,,,,,,,,,,,,,,,,,,,,,,,,,,,001,37,2020_Jan_30_1205,spring_faces,3.1.5,60.061638256041476,
condition files/Stage0a.xlsx,0a,beta,none,g,"['h', 'g']","['Chess', 'Go']","[0, 0.5]","[0, 0]",1,0,0,5,5,5,0,0,0,1,,,,,,,,,,,,,,,,,,,,,,,,,,,,,,,,,,,,,,,,,,,,,,,,,,,,,,,,,,,,,,,133.0254020960001,None,133.0254020960001,None,133.0254020960001,None,g,1,0.6838363200004096,134.55941367999912,None,134.55941367999912,None,134.55941367999912,None,135.30930668199835,None,135.30930668199835,None,135.30930668199835,None,135.30930668199835,None,,,,,,,,,,,,,,,,,,,,,,,,,,,,,,,,,,,,,,,,,,,,001,37,2020_Jan_30_1205,spring_faces,3.1.5,60.061638256041476,
condition files/Stage0a.xlsx,0a,alpha,none,h,"['h', 'g']","['Chess', 'Go']","[0, 0.5]","[0, 0]",1,0,0,5,5,5,0,1,1,0,,,,,,,,,,,,,,,,,,,,,,,,,,,,,,,,,,,,,,,,,,,,,,,,,,,,,,,,,,,,,,,137.27592154800004,None,137.27592154800004,None,137.27592154800004,None,h,1,0.48212749999947846,138.80916081799842,None,138.80916081799842,None,138.80916081799842,None,139.3425564270001,None,139.3425564270001,None,139.3425564270001,None,139.3425564270001,None,,,,,,,,,,,,,,,,,,,,,,,,,,,,,,,,,,,,,,,,,,,,001,37,2020_Jan_30_1205,spring_faces,3.1.5,60.061638256041476,
condition files/Stage0b_1.xlsx,0b,none,beta,g,"['h', 'g']","['Chess', 'Go']","[-0.15, 0.5]","[0.15, 0.5]",0,1,0,6,6,6,0,0,0,1,,,,,,,,,,,,,,,,,,,,,,,,,,,,,,,,,,,,,,,,,,,,,,,,,,,,,,,,,,,,,,,141.37605630799953,None,141.37605630799953,None,141.37605630799953,None,g,1,0.671735500000068,142.8755775589998,None,142.8755775589998,None,142.8755775589998,None,143.62605087999873,None,143.62605087999873,None,143.62605087999873,None,143.62605087999873,None,,,,,,,,,,,,,,,,,,,,,,,,,,,,,,,,,,,,,,,,,,,,001,37,2020_Jan_30_1205,spring_faces,3.1.5,60.061638256041476,
condition files/Stage0b_1.xlsx,0b,alpha,none,h,"['h', 'g']","['Chess', 'Go']","[-0.15, 0.5]","[0.15, 0.5]",1,0,0,6,6,6,0,1,1,0,,,,,,,,,,,,,,,,,,,,,,,,,,,,,,,,,,,,,,,,,,,,,,,,,,,,,,,,,,,,,,,145.57604585699846,None,145.57604585699846,None,145.57604585699846,None,h,1,0.6290840830006346,147.12619692899898,None,147.12619692899898,None,147.12619692899898,None,147.81087731099979,None,147.81087731099979,None,147.81087731099979,None,147.81087731099979,None,,,,,,,,,,,,,,,,,,,,,,,,,,,,,,,,,,,,,,,,,,,,001,37,2020_Jan_30_1205,spring_faces,3.1.5,60.061638256041476,
condition files/Stage0b_2.xlsx,0b,none,alpha,h,"['h', 'g']","['Chess', 'Go']","[-0.15, 0.5]","[0.15, 0.5]",0,1,0,7,7,7,0,0,0,0,,,,,,,,,,,,,,,,,,,,,,,,,,,,,,,,,,,,,,,,,,,,,,,,,,,,,,,,,,,,,,,149.8426617869991,None,149.8426617869991,None,149.8426617869991,None,g,0,2.570920936999755,151.32844997999928,None,151.32844997999928,None,151.32844997999928,None,153.96067669399963,None,153.96067669399963,None,153.96067669399963,None,153.96067669399963,None,,,,,,,,,,,,,,,,,,,,,,,,,,,,,,,,,,,,,,,,,,,,001,37,2020_Jan_30_1205,spring_faces,3.1.5,60.061638256041476,
condition files/Stage0b_2.xlsx,0b,beta,none,g,"['h', 'g']","['Chess', 'Go']","[-0.15, 0.5]","[0.15, 0.5]",1,0,0,7,7,7,0,1,1,1,,,,,,,,,,,,,,,,,,,,,,,,,,,,,,,,,,,,,,,,,,,,,,,,,,,,,,,,,,,,,,,155.9258573829993,None,155.9258573829993,None,155.9258573829993,None,g,1,1.1104068719996576,157.46083127199927,None,157.46083127199927,None,157.46083127199927,None,158.6305099099991,None,158.6305099099991,None,158.6305099099991,None,158.6305099099991,None,,,,,,,,,,,,,,,,,,,,,,,,,,,,,,,,,,,,,,,,,,,,001,37,2020_Jan_30_1205,spring_faces,3.1.5,60.061638256041476,
condition files/Stage0b_1.xlsx,0b,alpha,none,h,"['h', 'g']","['Chess', 'Go']","[-0.15, 0.5]","[0.15, 0.5]",1,0,0,8,8,8,0,0,0,0,,,,,,,,,,,,,,,,,,,,,,,,,,,,,,,,,,,,,,,,,,,,,,,,,,,,,,,,,,,,,,,160.6094538439993,None,160.6094538439993,None,160.6094538439993,None,h,1,1.0042308800002502,162.14307186799851,None,162.14307186799851,None,162.14307186799851,None,163.20854886599955,None,163.20854886599955,None,163.20854886599955,None,163.20854886599955,None,,,,,,,,,,,,,,,,,,,,,,,,,,,,,,,,,,,,,,,,,,,,001,37,2020_Jan_30_1205,spring_faces,3.1.5,60.061638256041476,
condition files/Stage0b_1.xlsx,0b,none,beta,g,"['h', 'g']","['Chess', 'Go']","[-0.15, 0.5]","[0.15, 0.5]",0,1,0,8,8,8,0,1,1,1,,,,,,,,,,,,,,,,,,,,,,,,,,,,,,,,,,,,,,,,,,,,,,,,,,,,,,,,,,,,,,,165.17591400399942,None,165.17591400399942,None,165.17591400399942,None,g,1,0.6418990469992423,166.7133444309984,None,166.7133444309984,None,166.7133444309984,None,167.41293142099858,None,167.41293142099858,None,167.41293142099858,None,167.41293142099858,None,,,,,,,,,,,,,,,,,,,,,,,,,,,,,,,,,,,,,,,,,,,,001,37,2020_Jan_30_1205,spring_faces,3.1.5,60.061638256041476,
condition files/Stage0b_2.xlsx,0b,none,alpha,h,"['h', 'g']","['Chess', 'Go']","[-0.15, 0.5]","[0.15, 0.5]",0,1,0,9,9,9,0,0,0,0,,,,,,,,,,,,,,,,,,,,,,,,,,,,,,,,,,,,,,,,,,,,,,,,,,,,,,,,,,,,,,,169.39318029499918,None,169.39318029499918,None,169.39318029499918,None,h,1,0.6525254290008888,170.9267873209992,None,170.9267873209992,None,170.9267873209992,None,171.642832825999,None,171.642832825999,None,171.642832825999,None,171.642832825999,None,,,,,,,,,,,,,,,,,,,,,,,,,,,,,,,,,,,,,,,,,,,,001,37,2020_Jan_30_1205,spring_faces,3.1.5,60.061638256041476,
condition files/Stage0b_2.xlsx,0b,beta,none,g,"['h', 'g']","['Chess', 'Go']","[-0.15, 0.5]","[0.15, 0.5]",1,0,0,9,9,9,0,1,1,1,,,,,,,,,,,,,,,,,,,,,,,,,,,,,,,,,,,,,,,,,,,,,,,,,,,,,,,,,,,,,,,173.6091843459999,None,173.6091843459999,None,173.6091843459999,None,g,1,0.9282029799996963,175.1470729369994,None,175.1470729369994,None,175.1470729369994,None,176.1319578449984,None,176.1319578449984,None,176.1319578449984,None,176.1319578449984,None,,,,,,,,,,,,,,,,,,,,,,,,,,,,,,,,,,,,,,,,,,,,001,37,2020_Jan_30_1205,spring_faces,3.1.5,60.061638256041476,
condition files/Stage0b_1.xlsx,0b,alpha,none,h,"['h', 'g']","['Chess', 'Go']","[-0.15, 0.5]","[0.15, 0.5]",1,0,0,10,10,10,0,0,0,0,,,,,,,,,,,,,,,,,,,,,,,,,,,,,,,,,,,,,,,,,,,,,,,,,,,,,,,,,,,,,,,178.10926880099942,None,178.10926880099942,None,178.10926880099942,None,h,1,0.6725547400001233,179.64277104399844,None,179.64277104399844,None,179.64277104399844,None,180.37583574899872,None,180.37583574899872,None,180.37583574899872,None,180.37583574899872,None,,,,,,,,,,,,,,,,,,,,,,,,,,,,,,,,,,,,,,,,,,,,001,37,2020_Jan_30_1205,spring_faces,3.1.5,60.061638256041476,
condition files/Stage0b_1.xlsx,0b,none,beta,g,"['h', 'g']","['Chess', 'Go']","[-0.15, 0.5]","[0.15, 0.5]",0,1,0,10,10,10,0,1,1,1,,,,,,,,,,,,,,,,,,,,,,,,,,,,,,,,,,,,,,,,,,,,,,,,,,,,,,,,,,,,,,,182.34251148599833,None,182.34251148599833,None,182.34251148599833,None,g,1,0.6586466539993125,183.88078472799862,None,183.88078472799862,None,183.88078472799862,None,184.59683752599994,None,184.59683752599994,None,184.59683752599994,None,184.59683752599994,None,,,,,,,,,,,,,,,,,,,,,,,,,,,,,,,,,,,,,,,,,,,,001,37,2020_Jan_30_1205,spring_faces,3.1.5,60.061638256041476,
condition files/Stage0b_2.xlsx,0b,none,alpha,h,"['h', 'g']","['Chess', 'Go']","[-0.15, 0.5]","[0.15, 0.5]",0,1,0,11,11,11,0,0,0,0,,,,,,,,,,,,,,,,,,,,,,,,,,,,,,,,,,,,,,,,,,,,,,,,,,,,,,,,,,,,,,,186.57632188599928,None,186.57632188599928,None,186.57632188599928,None,h,1,1.694138718999966,188.1092278519991,None,188.1092278519991,None,188.1092278519991,None,189.859812142,None,189.859812142,None,189.859812142,None,189.859812142,None,,,,,,,,,,,,,,,,,,,,,,,,,,,,,,,,,,,,,,,,,,,,001,37,2020_Jan_30_1205,spring_faces,3.1.5,60.061638256041476,
condition files/Stage0b_2.xlsx,0b,beta,none,g,"['h', 'g']","['Chess', 'Go']","[-0.15, 0.5]","[0.15, 0.5]",1,0,0,11,11,11,0,1,1,1,,,,,,,,,,,,,,,,,,,,,,,,,,,,,,,,,,,,,,,,,,,,,,,,,,,,,,,,,,,,,,,191.8259623899994,None,191.8259623899994,None,191.8259623899994,None,g,1,0.535859472998709,193.36349084099857,None,193.36349084099857,None,193.36349084099857,None,193.96500446499886,None,193.96500446499886,None,193.96500446499886,None,193.96500446499886,None,,,,,,,,,,,,,,,,,,,,,,,,,,,,,,,,,,,,,,,,,,,,001,37,2020_Jan_30_1205,spring_faces,3.1.5,60.061638256041476,
condition files/Stage0c_1.xlsx,0c,theta,alpha,h,"['h', 'g']","['Chess', 'Go']","[-0.15, 0.5]","[0.15, 0.5]",1,1,0,12,12,12,0,0,0,0,,,,,,,,,,,,,,,,,,,,,,,,,,,,,,,,,,,,,,,,,,,,,,,,,,,,,,,,,,,,,,,195.99281187999986,None,195.99281187999986,None,195.99281187999986,None,h,1,3.44672781600093,197.49271662899991,None,197.49271662899991,None,197.49271662899991,None,200.992603056,None,200.992603056,None,200.992603056,None,200.992603056,None,,,,,,,,,,,,,,,,,,,,,,,,,,,,,,,,,,,,,,,,,,,,001,37,2020_Jan_30_1205,spring_faces,3.1.5,60.061638256041476,
condition files/Stage0c_1.xlsx,0c,alpha,phi,h,"['h', 'g']","['Chess', 'Go']","[-0.15, 0.5]","[0.15, 0.5]",1,1,0,12,12,12,0,1,1,1,,,,,,,,,,,,,,,,,,,,,,,,,,,,,,,,,,,,,,,,,,,,,,,,,,,,,,,,,,,,,,,202.95967521700004,None,202.95967521700004,None,202.95967521700004,None,h,1,3.180438248999053,204.54284301199914,None,204.54284301199914,None,204.54284301199914,None,207.77607063699907,None,207.77607063699907,None,207.77607063699907,None,207.77607063699907,None,,,,,,,,,,,,,,,,,,,,,,,,,,,,,,,,,,,,,,,,,,,,001,37,2020_Jan_30_1205,spring_faces,3.1.5,60.061638256041476,
condition files/Stage0c_1.xlsx,0c,phi,beta,g,"['h', 'g']","['Chess', 'Go']","[-0.15, 0.5]","[0.15, 0.5]",1,1,0,12,12,12,0,2,2,3,,,,,,,,,,,,,,,,,,,,,,,,,,,,,,,,,,,,,,,,,,,,,,,,,,,,,,,,,,,,,,,209.74220713399882,None,209.74220713399882,None,209.74220713399882,None,g,1,0.975365567001063,211.27598024500003,None,211.27598024500003,None,211.27598024500003,None,212.30902583399984,None,212.30902583399984,None,212.30902583399984,None,212.30902583399984,None,,,,,,,,,,,,,,,,,,,,,,,,,,,,,,,,,,,,,,,,,,,,001,37,2020_Jan_30_1205,spring_faces,3.1.5,60.061638256041476,
condition files/Stage0c_1.xlsx,0c,beta,theta,g,"['h', 'g']","['Chess', 'Go']","[-0.15, 0.5]","[0.15, 0.5]",1,1,0,12,12,12,0,3,3,2,,,,,,,,,,,,,,,,,,,,,,,,,,,,,,,,,,,,,,,,,,,,,,,,,,,,,,,,,,,,,,,214.27615390199935,None,214.27615390199935,None,214.27615390199935,None,g,1,0.8267427139999199,215.80860902999848,None,215.80860902999848,None,215.80860902999848,None,216.67671311699996,None,216.67671311699996,None,216.67671311699996,None,216.67671311699996,None,,,,,,,,,,,,,,,,,,,,,,,,,,,,,,,,,,,,,,,,,,,,001,37,2020_Jan_30_1205,spring_faces,3.1.5,60.061638256041476,
condition files/Stage0c_2.xlsx,0c,alpha,theta,h,"['h', 'g']","['Chess', 'Go']","[-0.15, 0.5]","[0.15, 0.5]",1,1,0,13,13,13,0,0,0,0,,,,,,,,,,,,,,,,,,,,,,,,,,,,,,,,,,,,,,,,,,,,,,,,,,,,,,,,,,,,,,,218.69268001099954,None,218.69268001099954,None,218.69268001099954,None,h,1,0.7300948060001247,220.20933668699945,None,220.20933668699945,None,220.20933668699945,None,220.99262504199942,None,220.99262504199942,None,220.99262504199942,None,220.99262504199942,None,,,,,,,,,,,,,,,,,,,,,,,,,,,,,,,,,,,,,,,,,,,,001,37,2020_Jan_30_1205,spring_faces,3.1.5,60.061638256041476,
condition files/Stage0c_2.xlsx,0c,theta,beta,g,"['h', 'g']","['Chess', 'Go']","[-0.15, 0.5]","[0.15, 0.5]",1,1,0,13,13,13,0,1,1,2,,,,,,,,,,,,,,,,,,,,,,,,,,,,,,,,,,,,,,,,,,,,,,,,,,,,,,,,,,,,,,,222.95924145699973,None,222.95924145699973,None,222.95924145699973,None,g,1,1.0704653740012873,224.49283649799872,None,224.49283649799872,None,224.49283649799872,None,225.62571184399894,None,225.62571184399894,None,225.62571184399894,None,225.62571184399894,None,,,,,,,,,,,,,,,,,,,,,,,,,,,,,,,,,,,,,,,,,,,,001,37,2020_Jan_30_1205,spring_faces,3.1.5,60.061638256041476,
condition files/Stage0c_2.xlsx,0c,phi,alpha,h,"['h', 'g']","['Chess', 'Go']","[-0.15, 0.5]","[0.15, 0.5]",1,1,0,13,13,13,0,2,2,1,,,,,,,,,,,,,,,,,,,,,,,,,,,,,,,,,,,,,,,,,,,,,,,,,,,,,,,,,,,,,,,227.5922807779989,None,227.5922807779989,None,227.5922807779989,None,h,1,0.6931040810013656,229.12618067099902,None,229.12618067099902,None,229.12618067099902,None,229.87611564299914,None,229.87611564299914,None,229.87611564299914,None,229.87611564299914,None,,,,,,,,,,,,,,,,,,,,,,,,,,,,,,,,,,,,,,,,,,,,001,37,2020_Jan_30_1205,spring_faces,3.1.5,60.061638256041476,
condition files/Stage0c_2.xlsx,0c,beta,phi,g,"['h', 'g']","['Chess', 'Go']","[-0.15, 0.5]","[0.15, 0.5]",1,1,0,13,13,13,0,3,3,3,,,,,,,,,,,,,,,,,,,,,,,,,,,,,,,,,,,,,,,,,,,,,,,,,,,,,,,,,,,,,,,231.84257611699832,None,231.84257611699832,None,231.84257611699832,None,g,1,0.7958936930008349,233.37540506000005,None,233.37540506000005,None,233.37540506000005,None,234.2260333689992,None,234.2260333689992,None,234.2260333689992,None,234.2260333689992,None,,,,,,,,,,,,,,,,,,,,,,,,,,,,,,,,,,,,,,,,,,,,001,37,2020_Jan_30_1205,spring_faces,3.1.5,60.061638256041476,
condition files/Stage0c_1.xlsx,0c,phi,beta,g,"['h', 'g']","['Chess', 'Go']","[-0.15, 0.5]","[0.15, 0.5]",1,1,0,14,14,14,0,0,0,3,,,,,,,,,,,,,,,,,,,,,,,,,,,,,,,,,,,,,,,,,,,,,,,,,,,,,,,,,,,,,,,236.20925274699948,None,236.20925274699948,None,236.20925274699948,None,g,1,1.0203839350015187,237.74291962399911,None,237.74291962399911,None,237.74291962399911,None,238.81168836799952,None,238.81168836799952,None,238.81168836799952,None,238.81168836799952,None,,,,,,,,,,,,,,,,,,,,,,,,,,,,,,,,,,,,,,,,,,,,001,37,2020_Jan_30_1205,spring_faces,3.1.5,60.061638256041476,
condition files/Stage0c_1.xlsx,0c,theta,alpha,h,"['h', 'g']","['Chess', 'Go']","[-0.15, 0.5]","[0.15, 0.5]",1,1,0,14,14,14,0,1,1,0,,,,,,,,,,,,,,,,,,,,,,,,,,,,,,,,,,,,,,,,,,,,,,,,,,,,,,,,,,,,,,,240.7927788959987,None,240.7927788959987,None,240.7927788959987,None,h,1,0.9494385319994763,242.3257910960001,None,242.3257910960001,None,242.3257910960001,None,243.3258781629993,None,243.3258781629993,None,243.3258781629993,None,243.3258781629993,None,,,,,,,,,,,,,,,,,,,,,,,,,,,,,,,,,,,,,,,,,,,,001,37,2020_Jan_30_1205,spring_faces,3.1.5,60.061638256041476,
condition files/Stage0c_1.xlsx,0c,alpha,phi,h,"['h', 'g']","['Chess', 'Go']","[-0.15, 0.5]","[0.15, 0.5]",1,1,0,14,14,14,0,2,2,1,,,,,,,,,,,,,,,,,,,,,,,,,,,,,,,,,,,,,,,,,,,,,,,,,,,,,,,,,,,,,,,245.2925244909984,None,245.2925244909984,None,245.2925244909984,None,h,1,2.401106139001058,246.82613691400002,None,246.82613691400002,None,246.82613691400002,None,249.27855967199866,None,249.27855967199866,None,249.27855967199866,None,249.27855967199866,None,,,,,,,,,,,,,,,,,,,,,,,,,,,,,,,,,,,,,,,,,,,,001,37,2020_Jan_30_1205,spring_faces,3.1.5,60.061638256041476,
condition files/Stage0c_1.xlsx,0c,beta,theta,g,"['h', 'g']","['Chess', 'Go']","[-0.15, 0.5]","[0.15, 0.5]",1,1,0,14,14,14,0,3,3,2,,,,,,,,,,,,,,,,,,,,,,,,,,,,,,,,,,,,,,,,,,,,,,,,,,,,,,,,,,,,,,,251.25922248799907,None,251.25922248799907,None,251.25922248799907,None,g,1,1.5071684479989926,252.79211178999867,None,252.79211178999867,None,252.79211178999867,None,254.35936231399864,None,254.35936231399864,None,254.35936231399864,None,254.35936231399864,None,,,,,,,,,,,,,,,,,,,,,,,,,,,,,,,,,,,,,,,,,,,,001,37,2020_Jan_30_1205,spring_faces,3.1.5,60.061638256041476,
condition files/Stage0c_2.xlsx,0c,theta,beta,g,"['h', 'g']","['Chess', 'Go']","[-0.15, 0.5]","[0.15, 0.5]",1,1,0,15,15,15,0,0,0,2,,,,,,,,,,,,,,,,,,,,,,,,,,,,,,,,,,,,,,,,,,,,,,,,,,,,,,,,,,,,,,,256.34200538799996,None,256.34200538799996,None,256.34200538799996,None,g,1,0.8069953040012479,257.87634929399974,None,257.87634929399974,None,257.87634929399974,None,258.7275245279998,None,258.7275245279998,None,258.7275245279998,None,258.7275245279998,None,,,,,,,,,,,,,,,,,,,,,,,,,,,,,,,,,,,,,,,,,,,,001,37,2020_Jan_30_1205,spring_faces,3.1.5,60.061638256041476,
condition files/Stage0c_2.xlsx,0c,phi,alpha,h,"['h', 'g']","['Chess', 'Go']","[-0.15, 0.5]","[0.15, 0.5]",1,1,0,15,15,15,0,1,1,1,,,,,,,,,,,,,,,,,,,,,,,,,,,,,,,,,,,,,,,,,,,,,,,,,,,,,,,,,,,,,,,260.7092802569987,None,260.7092802569987,None,260.7092802569987,None,h,1,0.6967669519999617,262.2426598969996,None,262.2426598969996,None,262.2426598969996,None,262.9923216319985,None,262.9923216319985,None,262.9923216319985,None,262.9923216319985,None,,,,,,,,,,,,,,,,,,,,,,,,,,,,,,,,,,,,,,,,,,,,001,37,2020_Jan_30_1205,spring_faces,3.1.5,60.061638256041476,
condition files/Stage0c_2.xlsx,0c,beta,phi,g,"['h', 'g']","['Chess', 'Go']","[-0.15, 0.5]","[0.15, 0.5]",1,1,0,15,15,15,0,2,2,3,,,,,,,,,,,,,,,,,,,,,,,,,,,,,,,,,,,,,,,,,,,,,,,,,,,,,,,,,,,,,,,264.95935984899916,None,264.95935984899916,None,264.95935984899916,None,g,1,0.5104923170001712,266.49287000799995,None,266.49287000799995,None,266.49287000799995,None,267.05880993499886,None,267.05880993499886,None,267.05880993499886,None,267.05880993499886,None,,,,,,,,,,,,,,,,,,,,,,,,,,,,,,,,,,,,,,,,,,,,001,37,2020_Jan_30_1205,spring_faces,3.1.5,60.061638256041476,
condition files/Stage0c_2.xlsx,0c,alpha,theta,h,"['h', 'g']","['Chess', 'Go']","[-0.15, 0.5]","[0.15, 0.5]",1,1,0,15,15,15,0,3,3,0,,,,,,,,,,,,,,,,,,,,,,,,,,,,,,,,,,,,,,,,,,,,,,,,,,,,,,,,,,,,,,,269.02592919999915,None,269.02592919999915,None,269.02592919999915,None,g,0,0.6039092770006391,270.5593856159994,None,270.5593856159994,None,270.5593856159994,None,271.2255502419994,None,271.2255502419994,None,271.2255502419994,None,271.2255502419994,None,,,,,,,,,,,,,,,,,,,,,,,,,,,,,,,,,,,,,,,,,,,,001,37,2020_Jan_30_1205,spring_faces,3.1.5,60.061638256041476,
condition files/Stage0c_1.xlsx,0c,beta,theta,g,"['h', 'g']","['Chess', 'Go']","[-0.15, 0.5]","[0.15, 0.5]",1,1,0,16,16,16,0,0,0,2,,,,,,,,,,,,,,,,,,,,,,,,,,,,,,,,,,,,,,,,,,,,,,,,,,,,,,,,,,,,,,,273.2093302329995,None,273.2093302329995,None,273.2093302329995,None,g,1,0.836817584999153,274.74249643299845,None,274.74249643299845,None,274.74249643299845,None,275.6427212669987,None,275.6427212669987,None,275.6427212669987,None,275.6427212669987,None,,,,,,,,,,,,,,,,,,,,,,,,,,,,,,,,,,,,,,,,,,,,001,37,2020_Jan_30_1205,spring_faces,3.1.5,60.061638256041476,
condition files/Stage0c_1.xlsx,0c,phi,beta,g,"['h', 'g']","['Chess', 'Go']","[-0.15, 0.5]","[0.15, 0.5]",1,1,0,16,16,16,0,1,1,3,,,,,,,,,,,,,,,,,,,,,,,,,,,,,,,,,,,,,,,,,,,,,,,,,,,,,,,,,,,,,,,277.6096747779993,None,277.6096747779993,None,277.6096747779993,None,g,1,0.9004352739993919,279.1428212789997,None,279.1428212789997,None,279.1428212789997,None,280.0924232139987,None,280.0924232139987,None,280.0924232139987,None,280.0924232139987,None,,,,,,,,,,,,,,,,,,,,,,,,,,,,,,,,,,,,,,,,,,,,001,37,2020_Jan_30_1205,spring_faces,3.1.5,60.061638256041476,
condition files/Stage0c_1.xlsx,0c,theta,alpha,h,"['h', 'g']","['Chess', 'Go']","[-0.15, 0.5]","[0.15, 0.5]",1,1,0,16,16,16,0,2,2,0,,,,,,,,,,,,,,,,,,,,,,,,,,,,,,,,,,,,,,,,,,,,,,,,,,,,,,,,,,,,,,,282.0762639429995,None,282.0762639429995,None,282.0762639429995,None,h,1,1.6499199599984422,283.6093688669989,None,283.6093688669989,None,283.6093688669989,None,285.3092708789991,None,285.3092708789991,None,285.3092708789991,None,285.3092708789991,None,,,,,,,,,,,,,,,,,,,,,,,,,,,,,,,,,,,,,,,,,,,,001,37,2020_Jan_30_1205,spring_faces,3.1.5,60.061638256041476,
condition files/Stage0c_1.xlsx,0c,alpha,phi,h,"['h', 'g']","['Chess', 'Go']","[-0.15, 0.5]","[0.15, 0.5]",1,1,0,16,16,16,0,3,3,1,,,,,,,,,,,,,,,,,,,,,,,,,,,,,,,,,,,,,,,,,,,,,,,,,,,,,,,,,,,,,,,287.27590287599924,None,287.27590287599924,None,287.27590287599924,None,h,1,1.2979916099993716,288.8093013959988,None,288.8093013959988,None,288.8093013959988,None,290.14384226699985,None,290.14384226699985,None,290.14384226699985,None,290.14384226699985,None,,,,,,,,,,,,,,,,,,,,,,,,,,,,,,,,,,,,,,,,,,,,001,37,2020_Jan_30_1205,spring_faces,3.1.5,60.061638256041476,
condition files/Stage0c_2.xlsx,0c,theta,beta,g,"['h', 'g']","['Chess', 'Go']","[-0.15, 0.5]","[0.15, 0.5]",1,1,0,17,17,17,0,0,0,2,,,,,,,,,,,,,,,,,,,,,,,,,,,,,,,,,,,,,,,,,,,,,,,,,,,,,,,,,,,,,,,292.14240888099994,None,292.14240888099994,None,292.14240888099994,None,g,1,1.1509819599996263,293.67629140699864,None,293.67629140699864,None,293.67629140699864,None,294.8922384359994,None,294.8922384359994,None,294.8922384359994,None,294.8922384359994,None,,,,,,,,,,,,,,,,,,,,,,,,,,,,,,,,,,,,,,,,,,,,001,37,2020_Jan_30_1205,spring_faces,3.1.5,60.061638256041476,
condition files/Stage0c_2.xlsx,0c,alpha,theta,h,"['h', 'g']","['Chess', 'Go']","[-0.15, 0.5]","[0.15, 0.5]",1,1,0,17,17,17,0,1,1,0,,,,,,,,,,,,,,,,,,,,,,,,,,,,,,,,,,,,,,,,,,,,,,,,,,,,,,,,,,,,,,,296.859030444999,None,296.859030444999,None,296.859030444999,None,h,1,4.530360999999175,298.3929309219984,None,298.3929309219984,None,298.3929309219984,None,302.9759337309988,None,302.9759337309988,None,302.9759337309988,None,302.9759337309988,None,,,,,,,,,,,,,,,,,,,,,,,,,,,,,,,,,,,,,,,,,,,,001,37,2020_Jan_30_1205,spring_faces,3.1.5,60.061638256041476,
condition files/Stage0c_2.xlsx,0c,beta,phi,g,"['h', 'g']","['Chess', 'Go']","[-0.15, 0.5]","[0.15, 0.5]",1,1,0,17,17,17,0,2,2,3,,,,,,,,,,,,,,,,,,,,,,,,,,,,,,,,,,,,,,,,,,,,,,,,,,,,,,,,,,,,,,,304.94269981699836,None,304.94269981699836,None,304.94269981699836,None,g,1,0.7508916530005081,306.47634828399896,None,306.47634828399896,None,306.47634828399896,None,307.29273603099864,None,307.29273603099864,None,307.29273603099864,None,307.29273603099864,None,,,,,,,,,,,,,,,,,,,,,,,,,,,,,,,,,,,,,,,,,,,,001,37,2020_Jan_30_1205,spring_faces,3.1.5,60.061638256041476,
condition files/Stage0c_2.xlsx,0c,phi,alpha,h,"['h', 'g']","['Chess', 'Go']","[-0.15, 0.5]","[0.15, 0.5]",1,1,0,17,17,17,0,3,3,1,,,,,,,,,,,,,,,,,,,,,,,,,,,,,,,,,,,,,,,,,,,,,,,,,,,,,,,,,,,,,,,309.2592294850001,None,309.2592294850001,None,309.2592294850001,None,h,1,1.0272242480004934,310.79210073799914,None,310.79210073799914,None,310.79210073799914,None,311.8762870149985,None,311.8762870149985,None,311.8762870149985,None,311.8762870149985,None,,,,,,,,,,,,,,,,,,,,,,,,,,,,,,,,,,,,,,,,,,,,001,37,2020_Jan_30_1205,spring_faces,3.1.5,60.061638256041476,
,,,,,,,,,,,,,,,,,,,,,,,,,,,,,,,,,,,,,,,,,,,,,,,,,,,,,,,,,,,,,,,,,,,,,,,,,,,,,,,,,,,,,,,,,,,,,,,,,,,,,,,,313.8589824169994,None,space,5.584011394999834,318.85923539399846,None,,,,,,,,,,,,,,,,,,,,,,,,,,,,,,,,,,,,,,001,37,2020_Jan_30_1205,spring_faces,3.1.5,60.061638256041476,
condition files/Stage1_1.xlsx,,T1,B1,c,"['c', 'm']","['Clue', 'Monopoly']","[-0.15, 0.5]","[0.15, 0.5]",1,1,,,,,,,,,0,0,0,0,0,0,0,0,,,,,,,,,,,,,,,,,,,,,,,,,,,,,,,,,,,,,,,,,,,,,,,,,,,,,,,324.5587995879996,None,324.5587995879996,None,324.5587995879996,None,c,1,3.439334020999013,326.0760171919992,None,326.0760171919992,None,326.0760171919992,None,329.5923223099999,None,329.5923223099999,None,329.5923223099999,None,329.5923223099999,None,,,,,,,318.85923539399846,None,,,,,,,,,,,,,,,,,,,,,,,,,,,,,,,,,,,,001,37,2020_Jan_30_1205,spring_faces,3.1.5,60.061638256041476,
condition files/Stage1_1.xlsx,,B1,T2,c,"['c', 'm']","['Clue', 'Monopoly']","[-0.15, 0.5]","[0.15, 0.5]",1,1,,,,,,,,,0,0,0,0,0,1,1,1,,,,,,,,,,,,,,,,,,,,,,,,,,,,,,,,,,,,,,,,,,,,,,,,,,,,,,,331.54269889999887,None,331.54269889999887,None,331.54269889999887,None,m,0,1.5742688810005347,333.07711133499834,None,333.07711133499834,None,333.07711133499834,None,334.7087678349999,None,334.7087678349999,None,334.7087678349999,None,334.7087678349999,None,,,,,,,,,,,,,,,,,,,,,,,,,,,,,,,,,,,,,,,,,,,,001,37,2020_Jan_30_1205,spring_faces,3.1.5,60.061638256041476,
condition files/Stage1_1.xlsx,,T3,B4,c,"['c', 'm']","['Clue', 'Monopoly']","[-0.15, 0.5]","[0.15, 0.5]",1,1,,,,,,,,,0,0,0,0,0,2,2,5,,,,,,,,,,,,,,,,,,,,,,,,,,,,,,,,,,,,,,,,,,,,,,,,,,,,,,,336.6759993169999,None,336.6759993169999,None,336.6759993169999,None,c,1,2.3607068820001587,338.24263995399997,None,338.24263995399997,None,338.24263995399997,None,340.65907237099964,None,340.65907237099964,None,340.65907237099964,None,340.65907237099964,None,,,,,,,,,,,,,,,,,,,,,,,,,,,,,,,,,,,,,,,,,,,,001,37,2020_Jan_30_1205,spring_faces,3.1.5,60.061638256041476,
condition files/Stage1_1.xlsx,,T2,B2,m,"['c', 'm']","['Clue', 'Monopoly']","[-0.15, 0.5]","[0.15, 0.5]",1,1,,,,,,,,,0,0,0,0,0,3,3,3,,,,,,,,,,,,,,,,,,,,,,,,,,,,,,,,,,,,,,,,,,,,,,,,,,,,,,,342.62598014799914,None,342.62598014799914,None,342.62598014799914,None,c,0,0.9386912959998881,344.1926308439997,None,344.1926308439997,None,344.1926308439997,None,345.19385575699926,None,345.19385575699926,None,345.19385575699926,None,345.19385575699926,None,,,,,,,,,,,,,,,,,,,,,,,,,,,,,,,,,,,,,,,,,,,,001,37,2020_Jan_30_1205,spring_faces,3.1.5,60.061638256041476,
condition files/Stage1_1.xlsx,,B2,T1,m,"['c', 'm']","['Clue', 'Monopoly']","[-0.15, 0.5]","[0.15, 0.5]",1,1,,,,,,,,,0,0,0,0,0,4,4,2,,,,,,,,,,,,,,,,,,,,,,,,,,,,,,,,,,,,,,,,,,,,,,,,,,,,,,,347.1592176059985,None,347.1592176059985,None,347.1592176059985,None,c,0,1.2858747099999164,348.69342453899844,None,348.69342453899844,None,348.69342453899844,None,350.0429406259991,None,350.0429406259991,None,350.0429406259991,None,350.0429406259991,None,,,,,,,,,,,,,,,,,,,,,,,,,,,,,,,,,,,,,,,,,,,,001,37,2020_Jan_30_1205,spring_faces,3.1.5,60.061638256041476,
condition files/Stage1_1.xlsx,,T4,B3,m,"['c', 'm']","['Clue', 'Monopoly']","[-0.15, 0.5]","[0.15, 0.5]",1,1,,,,,,,,,0,0,0,0,0,5,5,6,,,,,,,,,,,,,,,,,,,,,,,,,,,,,,,,,,,,,,,,,,,,,,,,,,,,,,,352.00921017199835,None,352.00921017199835,None,352.00921017199835,None,c,0,0.5782029809997766,353.5451023049991,None,353.5451023049991,None,353.5451023049991,None,354.17604821699933,None,354.17604821699933,None,354.17604821699933,None,354.17604821699933,None,,,,,,,,,,,,,,,,,,,,,,,,,,,,,,,,,,,,,,,,,,,,001,37,2020_Jan_30_1205,spring_faces,3.1.5,60.061638256041476,
condition files/Stage1_1.xlsx,,B3,T3,c,"['c', 'm']","['Clue', 'Monopoly']","[-0.15, 0.5]","[0.15, 0.5]",1,1,,,,,,,,,0,0,0,0,0,6,6,4,,,,,,,,,,,,,,,,,,,,,,,,,,,,,,,,,,,,,,,,,,,,,,,,,,,,,,,356.1426165539997,None,356.1426165539997,None,356.1426165539997,None,c,1,0.3192537340000854,357.67605567699866,None,357.67605567699866,None,357.67605567699866,None,358.05961827099964,None,358.05961827099964,None,358.05961827099964,None,358.05961827099964,None,,,,,,,,,,,,,,,,,,,,,,,,,,,,,,,,,,,,,,,,,,,,001,37,2020_Jan_30_1205,spring_faces,3.1.5,60.061638256041476,
condition files/Stage1_1.xlsx,,B4,T4,m,"['c', 'm']","['Clue', 'Monopoly']","[-0.15, 0.5]","[0.15, 0.5]",1,1,,,,,,,,,0,0,0,0,0,7,7,7,,,,,,,,,,,,,,,,,,,,,,,,,,,,,,,,,,,,,,,,,,,,,,,,,,,,,,,360.02612219299954,None,360.02612219299954,None,360.02612219299954,None,c,0,1.249900095999692,361.56140770899947,None,361.56140770899947,None,361.56140770899947,None,362.87562594299925,None,362.87562594299925,None,362.87562594299925,None,362.87562594299925,None,,,,,,,,,,,,,,,,,,,,,,,,,,,,,,,,,,,,,,,,,,,,001,37,2020_Jan_30_1205,spring_faces,3.1.5,60.061638256041476,
condition files/Stage1_2.xlsx,,B4,T3,c,"['c', 'm']","['Clue', 'Monopoly']","[-0.15, 0.5]","[0.15, 0.5]",1,1,,,,,,,,,0,1,1,1,0,0,0,5,,,,,,,,,,,,,,,,,,,,,,,,,,,,,,,,,,,,,,,,,,,,,,,,,,,,,,,364.87602666899875,None,364.87602666899875,None,364.87602666899875,None,c,1,3.474715259999357,366.4086552099998,None,366.4086552099998,None,366.4086552099998,None,369.9593913509998,None,369.9593913509998,None,369.9593913509998,None,369.9593913509998,None,,,,,,,,,,,,,,,,,,,,,,,,,,,,,,,,,,,,,,,,,,,,001,37,2020_Jan_30_1205,spring_faces,3.1.5,60.061638256041476,
condition files/Stage1_2.xlsx,,B2,T2,m,"['c', 'm']","['Clue', 'Monopoly']","[-0.15, 0.5]","[0.15, 0.5]",1,1,,,,,,,,,0,1,1,1,0,1,1,3,,,,,,,,,,,,,,,,,,,,,,,,,,,,,,,,,,,,,,,,,,,,,,,,,,,,,,,371.90931130399986,None,371.90931130399986,None,371.90931130399986,None,m,1,1.4964683880007215,373.458822831999,None,373.458822831999,None,373.458822831999,None,375.0113966839999,None,375.0113966839999,None,375.0113966839999,None,375.0113966839999,None,,,,,,,,,,,,,,,,,,,,,,,,,,,,,,,,,,,,,,,,,,,,001,37,2020_Jan_30_1205,spring_faces,3.1.5,60.061638256041476,
condition files/Stage1_2.xlsx,,T4,B4,m,"['c', 'm']","['Clue', 'Monopoly']","[-0.15, 0.5]","[0.15, 0.5]",1,1,,,,,,,,,0,1,1,1,0,2,2,7,,,,,,,,,,,,,,,,,,,,,,,,,,,,,,,,,,,,,,,,,,,,,,,,,,,,,,,376.9753286549985,None,376.9753286549985,None,376.9753286549985,None,m,1,1.436619543001143,378.51069892599844,None,378.51069892599844,None,378.51069892599844,None,380.0096853699997,None,380.0096853699997,None,380.0096853699997,None,380.0096853699997,None,,,,,,,,,,,,,,,,,,,,,,,,,,,,,,,,,,,,,,,,,,,,001,37,2020_Jan_30_1205,spring_faces,3.1.5,60.061638256041476,
condition files/Stage1_2.xlsx,,T1,B2,m,"['c', 'm']","['Clue', 'Monopoly']","[-0.15, 0.5]","[0.15, 0.5]",1,1,,,,,,,,,0,1,1,1,0,3,3,2,,,,,,,,,,,,,,,,,,,,,,,,,,,,,,,,,,,,,,,,,,,,,,,,,,,,,,,381.97584225899845,None,381.97584225899845,None,381.97584225899845,None,c,0,2.789309642999797,383.52603661099965,None,383.52603661099965,None,383.52603661099965,None,386.37589560499873,None,386.37589560499873,None,386.37589560499873,None,386.37589560499873,None,,,,,,,,,,,,,,,,,,,,,,,,,,,,,,,,,,,,,,,,,,,,001,37,2020_Jan_30_1205,spring_faces,3.1.5,60.061638256041476,
condition files/Stage1_2.xlsx,,B1,T1,c,"['c', 'm']","['Clue', 'Monopoly']","[-0.15, 0.5]","[0.15, 0.5]",1,1,,,,,,,,,0,1,1,1,0,4,4,0,,,,,,,,,,,,,,,,,,,,,,,,,,,,,,,,,,,,,,,,,,,,,,,,,,,,,,,388.34274942499906,None,388.34274942499906,None,388.34274942499906,None,m,0,1.1908987590013567,389.8924526639985,None,389.8924526639985,None,389.8924526639985,None,391.1588290839991,None,391.1588290839991,None,391.1588290839991,None,391.1588290839991,None,,,,,,,,,,,,,,,,,,,,,,,,,,,,,,,,,,,,,,,,,,,,001,37,2020_Jan_30_1205,spring_faces,3.1.5,60.061638256041476,
condition files/Stage1_2.xlsx,,B3,T4,m,"['c', 'm']","['Clue', 'Monopoly']","[-0.15, 0.5]","[0.15, 0.5]",1,1,,,,,,,,,0,1,1,1,0,5,5,6,,,,,,,,,,,,,,,,,,,,,,,,,,,,,,,,,,,,,,,,,,,,,,,,,,,,,,,393.10889205999956,None,393.10889205999956,None,393.10889205999956,None,c,0,2.024425331999737,394.658932372,None,394.658932372,None,394.658932372,None,396.7445285529993,None,396.7445285529993,None,396.7445285529993,None,396.7445285529993,None,,,,,,,,,,,,,,,,,,,,,,,,,,,,,,,,,,,,,,,,,,,,001,37,2020_Jan_30_1205,spring_faces,3.1.5,60.061638256041476,
condition files/Stage1_2.xlsx,,T3,B3,c,"['c', 'm']","['Clue', 'Monopoly']","[-0.15, 0.5]","[0.15, 0.5]",1,1,,,,,,,,,0,1,1,1,0,6,6,4,,,,,,,,,,,,,,,,,,,,,,,,,,,,,,,,,,,,,,,,,,,,,,,,,,,,,,,398.7096203129986,None,398.7096203129986,None,398.7096203129986,None,m,0,0.44060708200049703,400.24276452399863,None,400.24276452399863,None,400.24276452399863,None,400.7592304669997,None,400.7592304669997,None,400.7592304669997,None,400.7592304669997,None,,,,,,,,,,,,,,,,,,,,,,,,,,,,,,,,,,,,,,,,,,,,001,37,2020_Jan_30_1205,spring_faces,3.1.5,60.061638256041476,
condition files/Stage1_2.xlsx,,T2,B1,c,"['c', 'm']","['Clue', 'Monopoly']","[-0.15, 0.5]","[0.15, 0.5]",1,1,,,,,,,,,0,1,1,1,0,7,7,1,,,,,,,,,,,,,,,,,,,,,,,,,,,,,,,,,,,,,,,,,,,,,,,,,,,,,,,402.70878119499866,None,402.70878119499866,None,402.70878119499866,None,m,0,0.10427994500059867,404.24303880299885,None,404.24303880299885,None,404.24303880299885,None,404.409390756,None,404.409390756,None,404.409390756,None,404.409390756,None,,,,,,,,,,,,,,,,,,,,,,,,,,,,,,,,,,,,,,,,,,,,001,37,2020_Jan_30_1205,spring_faces,3.1.5,60.061638256041476,
condition files/Stage1_1.xlsx,,T1,B1,c,"['c', 'm']","['Clue', 'Monopoly']","[-0.15, 0.5]","[0.15, 0.5]",1,1,,,,,,,,,0,2,2,2,0,0,0,0,,,,,,,,,,,,,,,,,,,,,,,,,,,,,,,,,,,,,,,,,,,,,,,,,,,,,,,406.3925993539997,None,406.3925993539997,None,406.3925993539997,None,c,1,0.46846591099892976,407.92685463899943,None,407.92685463899943,None,407.92685463899943,None,408.45967372999985,None,408.45967372999985,None,408.45967372999985,None,408.45967372999985,None,,,,,,,,,,,,,,,,,,,,,,,,,,,,,,,,,,,,,,,,,,,,001,37,2020_Jan_30_1205,spring_faces,3.1.5,60.061638256041476,
condition files/Stage1_1.xlsx,,T4,B3,m,"['c', 'm']","['Clue', 'Monopoly']","[-0.15, 0.5]","[0.15, 0.5]",1,1,,,,,,,,,0,2,2,2,0,1,1,6,,,,,,,,,,,,,,,,,,,,,,,,,,,,,,,,,,,,,,,,,,,,,,,,,,,,,,,410.4258315299994,None,410.4258315299994,None,410.4258315299994,None,c,0,0.4677880630006257,411.95948204699926,None,411.95948204699926,None,411.95948204699926,None,412.4952606459992,None,412.4952606459992,None,412.4952606459992,None,412.4952606459992,None,,,,,,,,,,,,,,,,,,,,,,,,,,,,,,,,,,,,,,,,,,,,001,37,2020_Jan_30_1205,spring_faces,3.1.5,60.061638256041476,
condition files/Stage1_1.xlsx,,B4,T4,m,"['c', 'm']","['Clue', 'Monopoly']","[-0.15, 0.5]","[0.15, 0.5]",1,1,,,,,,,,,0,2,2,2,0,2,2,7,,,,,,,,,,,,,,,,,,,,,,,,,,,,,,,,,,,,,,,,,,,,,,,,,,,,,,,414.45933661399977,None,414.45933661399977,None,414.45933661399977,None,c,0,2.0669017920008628,415.99239935399964,None,415.99239935399964,None,415.99239935399964,None,418.10974503599937,None,418.10974503599937,None,418.10974503599937,None,418.10974503599937,None,,,,,,,,,,,,,,,,,,,,,,,,,,,,,,,,,,,,,,,,,,,,001,37,2020_Jan_30_1205,spring_faces,3.1.5,60.061638256041476,
condition files/Stage1_1.xlsx,,T3,B4,c,"['c', 'm']","['Clue', 'Monopoly']","[-0.15, 0.5]","[0.15, 0.5]",1,1,,,,,,,,,0,2,2,2,0,3,3,5,,,,,,,,,,,,,,,,,,,,,,,,,,,,,,,,,,,,,,,,,,,,,,,,,,,,,,,420.09240810999836,None,420.09240810999836,None,420.09240810999836,None,c,1,2.4816111589989305,421.60969732599915,None,421.60969732599915,None,421.60969732599915,None,424.1589369099984,None,424.1589369099984,None,424.1589369099984,None,424.1589369099984,None,,,,,,,,,,,,,,,,,,,,,,,,,,,,,,,,,,,,,,,,,,,,001,37,2020_Jan_30_1205,spring_faces,3.1.5,60.061638256041476,
condition files/Stage1_1.xlsx,,B3,T3,c,"['c', 'm']","['Clue', 'Monopoly']","[-0.15, 0.5]","[0.15, 0.5]",1,1,,,,,,,,,0,2,2,2,0,4,4,4,,,,,,,,,,,,,,,,,,,,,,,,,,,,,,,,,,,,,,,,,,,,,,,,,,,,,,,426.1092676629996,None,426.1092676629996,None,426.1092676629996,None,m,0,3.0549289629998384,427.64444919199923,None,427.64444919199923,None,427.64444919199923,None,430.75943806099895,None,430.75943806099895,None,430.75943806099895,None,430.75943806099895,None,,,,,,,,,,,,,,,,,,,,,,,,,,,,,,,,,,,,,,,,,,,,001,37,2020_Jan_30_1205,spring_faces,3.1.5,60.061638256041476,
condition files/Stage1_1.xlsx,,B2,T1,m,"['c', 'm']","['Clue', 'Monopoly']","[-0.15, 0.5]","[0.15, 0.5]",1,1,,,,,,,,,0,2,2,2,0,5,5,2,,,,,,,,,,,,,,,,,,,,,,,,,,,,,,,,,,,,,,,,,,,,,,,,,,,,,,,432.7259304449999,None,432.7259304449999,None,432.7259304449999,None,c,0,1.7830323590005719,434.2762624959996,None,434.2762624959996,None,434.2762624959996,None,436.12618401500004,None,436.12618401500004,None,436.12618401500004,None,436.12618401500004,None,,,,,,,,,,,,,,,,,,,,,,,,,,,,,,,,,,,,,,,,,,,,001,37,2020_Jan_30_1205,spring_faces,3.1.5,60.061638256041476,
condition files/Stage1_1.xlsx,,B1,T2,c,"['c', 'm']","['Clue', 'Monopoly']","[-0.15, 0.5]","[0.15, 0.5]",1,1,,,,,,,,,0,2,2,2,0,6,6,1,,,,,,,,,,,,,,,,,,,,,,,,,,,,,,,,,,,,,,,,,,,,,,,,,,,,,,,438.0758163589999,None,438.0758163589999,None,438.0758163589999,None,c,1,0.7682387380009459,439.6110818779998,None,439.6110818779998,None,439.6110818779998,None,440.4596698369987,None,440.4596698369987,None,440.4596698369987,None,440.4596698369987,None,,,,,,,,,,,,,,,,,,,,,,,,,,,,,,,,,,,,,,,,,,,,001,37,2020_Jan_30_1205,spring_faces,3.1.5,60.061638256041476,
condition files/Stage1_1.xlsx,,T2,B2,m,"['c', 'm']","['Clue', 'Monopoly']","[-0.15, 0.5]","[0.15, 0.5]",1,1,,,,,,,,,0,2,2,2,0,7,7,3,,,,,,,,,,,,,,,,,,,,,,,,,,,,,,,,,,,,,,,,,,,,,,,,,,,,,,,442.4092473849996,None,442.4092473849996,None,442.4092473849996,None,m,1,3.18776068400075,443.9435692169991,None,443.9435692169991,None,443.9435692169991,None,447.19425359399975,None,447.19425359399975,None,447.19425359399975,None,447.19425359399975,None,,,,,,,,,,,,,,,,,,,,,,,,,,,,,,,,,,,,,,,,,,,,001,37,2020_Jan_30_1205,spring_faces,3.1.5,60.061638256041476,
condition files/Stage1_2.xlsx,,T1,B2,m,"['c', 'm']","['Clue', 'Monopoly']","[-0.15, 0.5]","[0.15, 0.5]",1,1,,,,,,,,,0,3,3,3,0,0,0,2,,,,,,,,,,,,,,,,,,,,,,,,,,,,,,,,,,,,,,,,,,,,,,,,,,,,,,,449.1754804969987,None,449.1754804969987,None,449.1754804969987,None,m,1,1.1554819869998028,450.7118903849987,None,450.7118903849987,None,450.7118903849987,None,451.92581562399937,None,451.92581562399937,None,451.92581562399937,None,451.92581562399937,None,,,,,,,,,,,,,,,,,,,,,,,,,,,,,,,,,,,,,,,,,,,,001,37,2020_Jan_30_1205,spring_faces,3.1.5,60.061638256041476,
condition files/Stage1_2.xlsx,,T2,B1,c,"['c', 'm']","['Clue', 'Monopoly']","[-0.15, 0.5]","[0.15, 0.5]",1,1,,,,,,,,,0,3,3,3,0,1,1,1,,,,,,,,,,,,,,,,,,,,,,,,,,,,,,,,,,,,,,,,,,,,,,,,,,,,,,,453.8924996449987,None,453.8924996449987,None,453.8924996449987,None,c,1,1.2569224210001266,455.44238350399974,None,455.44238350399974,None,455.44238350399974,None,456.76149958899987,None,456.76149958899987,None,456.76149958899987,None,456.76149958899987,None,,,,,,,,,,,,,,,,,,,,,,,,,,,,,,,,,,,,,,,,,,,,001,37,2020_Jan_30_1205,spring_faces,3.1.5,60.061638256041476,
condition files/Stage1_2.xlsx,,B3,T4,m,"['c', 'm']","['Clue', 'Monopoly']","[-0.15, 0.5]","[0.15, 0.5]",1,1,,,,,,,,,0,3,3,3,0,2,2,6,,,,,,,,,,,,,,,,,,,,,,,,,,,,,,,,,,,,,,,,,,,,,,,,,,,,,,,458.72584400399865,None,458.72584400399865,None,458.72584400399865,None,m,1,0.9673950349988445,460.27585584499866,None,460.27585584499866,None,460.27585584499866,None,461.3261616609998,None,461.3261616609998,None,461.3261616609998,None,461.3261616609998,None,,,,,,,,,,,,,,,,,,,,,,,,,,,,,,,,,,,,,,,,,,,,001,37,2020_Jan_30_1205,spring_faces,3.1.5,60.061638256041476,
condition files/Stage1_2.xlsx,,T3,B3,c,"['c', 'm']","['Clue', 'Monopoly']","[-0.15, 0.5]","[0.15, 0.5]",1,1,,,,,,,,,0,3,3,3,0,3,3,4,,,,,,,,,,,,,,,,,,,,,,,,,,,,,,,,,,,,,,,,,,,,,,,,,,,,,,,463.2762657329986,None,463.2762657329986,None,463.2762657329986,None,c,1,0.864533472000403,464.8107954119987,None,464.8107954119987,None,464.8107954119987,None,465.7427918159992,None,465.7427918159992,None,465.7427918159992,None,465.7427918159992,None,,,,,,,,,,,,,,,,,,,,,,,,,,,,,,,,,,,,,,,,,,,,001,37,2020_Jan_30_1205,spring_faces,3.1.5,60.061638256041476,
condition files/Stage1_2.xlsx,,B1,T1,c,"['c', 'm']","['Clue', 'Monopoly']","[-0.15, 0.5]","[0.15, 0.5]",1,1,,,,,,,,,0,3,3,3,0,4,4,0,,,,,,,,,,,,,,,,,,,,,,,,,,,,,,,,,,,,,,,,,,,,,,,,,,,,,,,467.69229268899835,None,467.69229268899835,None,467.69229268899835,None,c,1,0.8796715979988221,469.2276386499998,None,469.2276386499998,None,469.2276386499998,None,470.1594123199993,None,470.1594123199993,None,470.1594123199993,None,470.1594123199993,None,,,,,,,,,,,,,,,,,,,,,,,,,,,,,,,,,,,,,,,,,,,,001,37,2020_Jan_30_1205,spring_faces,3.1.5,60.061638256041476,
condition files/Stage1_2.xlsx,,B4,T3,c,"['c', 'm']","['Clue', 'Monopoly']","[-0.15, 0.5]","[0.15, 0.5]",1,1,,,,,,,,,0,3,3,3,0,5,5,5,,,,,,,,,,,,,,,,,,,,,,,,,,,,,,,,,,,,,,,,,,,,,,,,,,,,,,,472.1260562669995,None,472.1260562669995,None,472.1260562669995,None,c,1,1.4377533819988457,473.6616101079999,None,473.6616101079999,None,473.6616101079999,None,475.15938053599893,None,475.15938053599893,None,475.15938053599893,None,475.15938053599893,None,,,,,,,,,,,,,,,,,,,,,,,,,,,,,,,,,,,,,,,,,,,,001,37,2020_Jan_30_1205,spring_faces,3.1.5,60.061638256041476,
condition files/Stage1_2.xlsx,,T4,B4,m,"['c', 'm']","['Clue', 'Monopoly']","[-0.15, 0.5]","[0.15, 0.5]",1,1,,,,,,,,,0,3,3,3,0,6,6,7,,,,,,,,,,,,,,,,,,,,,,,,,,,,,,,,,,,,,,,,,,,,,,,,,,,,,,,477.1260076969993,None,477.1260076969993,None,477.1260076969993,None,m,1,0.934084783999424,478.66123054499985,None,478.66123054499985,None,478.66123054499985,None,479.67589022299944,None,479.67589022299944,None,479.67589022299944,None,479.67589022299944,None,,,,,,,,,,,,,,,,,,,,,,,,,,,,,,,,,,,,,,,,,,,,001,37,2020_Jan_30_1205,spring_faces,3.1.5,60.061638256041476,
condition files/Stage1_2.xlsx,,B2,T2,m,"['c', 'm']","['Clue', 'Monopoly']","[-0.15, 0.5]","[0.15, 0.5]",1,1,,,,,,,,,0,3,3,3,0,7,7,3,,,,,,,,,,,,,,,,,,,,,,,,,,,,,,,,,,,,,,,,,,,,,,,,,,,,,,,481.62592071699873,None,481.62592071699873,None,481.62592071699873,None,m,1,1.3482957070009434,483.1590099829991,None,483.1590099829991,None,483.1590099829991,None,484.5597516990001,None,484.5597516990001,None,484.5597516990001,None,484.5597516990001,None,,,,,,,,,,,,,,,,,,,,,,,,,,,,,,,,,,,,,,,,,,,,001,37,2020_Jan_30_1205,spring_faces,3.1.5,60.061638256041476,
condition files/Stage1_1.xlsx,,B2,T1,m,"['c', 'm']","['Clue', 'Monopoly']","[-0.15, 0.5]","[0.15, 0.5]",1,1,,,,,,,,,0,4,4,4,0,0,0,2,,,,,,,,,,,,,,,,,,,,,,,,,,,,,,,,,,,,,,,,,,,,,,,,,,,,,,,486.5428529619985,None,486.5428529619985,None,486.5428529619985,None,m,1,0.958571999999549,488.09279631499885,None,488.09279631499885,None,488.09279631499885,None,489.10937860899867,None,489.10937860899867,None,489.10937860899867,None,489.10937860899867,None,,,,,,,,,,,,,,,,,,,,,,,,,,,,,,,,,,,,,,,,,,,,001,37,2020_Jan_30_1205,spring_faces,3.1.5,60.061638256041476,
condition files/Stage1_1.xlsx,,T2,B2,m,"['c', 'm']","['Clue', 'Monopoly']","[-0.15, 0.5]","[0.15, 0.5]",1,1,,,,,,,,,0,4,4,4,0,1,1,3,,,,,,,,,,,,,,,,,,,,,,,,,,,,,,,,,,,,,,,,,,,,,,,,,,,,,,,491.07506107799964,None,491.07506107799964,None,491.07506107799964,None,m,1,0.8234887239996169,492.6118802669989,None,492.6118802669989,None,492.6118802669989,None,493.4923912489994,None,493.4923912489994,None,493.4923912489994,None,493.4923912489994,None,,,,,,,,,,,,,,,,,,,,,,,,,,,,,,,,,,,,,,,,,,,,001,37,2020_Jan_30_1205,spring_faces,3.1.5,60.061638256041476,
condition files/Stage1_1.xlsx,,B1,T2,c,"['c', 'm']","['Clue', 'Monopoly']","[-0.15, 0.5]","[0.15, 0.5]",1,1,,,,,,,,,0,4,4,4,0,2,2,1,,,,,,,,,,,,,,,,,,,,,,,,,,,,,,,,,,,,,,,,,,,,,,,,,,,,,,,495.45926756099834,None,495.45926756099834,None,495.45926756099834,None,c,1,0.5685454289996414,496.99476776399933,None,496.99476776399933,None,496.99476776399933,None,497.6270539189991,None,497.6270539189991,None,497.6270539189991,None,497.6270539189991,None,,,,,,,,,,,,,,,,,,,,,,,,,,,,,,,,,,,,,,,,,,,,001,37,2020_Jan_30_1205,spring_faces,3.1.5,60.061638256041476,
condition files/Stage1_1.xlsx,,B4,T4,m,"['c', 'm']","['Clue', 'Monopoly']","[-0.15, 0.5]","[0.15, 0.5]",1,1,,,,,,,,,0,4,4,4,0,3,3,7,,,,,,,,,,,,,,,,,,,,,,,,,,,,,,,,,,,,,,,,,,,,,,,,,,,,,,,499.59240399699956,None,499.59240399699956,None,499.59240399699956,None,m,1,1.876002017999781,501.1273825319986,None,501.1273825319986,None,501.1273825319986,None,503.07585607999863,None,503.07585607999863,None,503.07585607999863,None,503.07585607999863,None,,,,,,,,,,,,,,,,,,,,,,,,,,,,,,,,,,,,,,,,,,,,001,37,2020_Jan_30_1205,spring_faces,3.1.5,60.061638256041476,
condition files/Stage1_1.xlsx,,T3,B4,c,"['c', 'm']","['Clue', 'Monopoly']","[-0.15, 0.5]","[0.15, 0.5]",1,1,,,,,,,,,0,4,4,4,0,4,4,5,,,,,,,,,,,,,,,,,,,,,,,,,,,,,,,,,,,,,,,,,,,,,,,,,,,,,,,505.02588785699845,None,505.02588785699845,None,505.02588785699845,None,c,1,0.6193742470004509,506.5759242719996,None,506.5759242719996,None,506.5759242719996,None,507.2613923489989,None,507.2613923489989,None,507.2613923489989,None,507.2613923489989,None,,,,,,,,,,,,,,,,,,,,,,,,,,,,,,,,,,,,,,,,,,,,001,37,2020_Jan_30_1205,spring_faces,3.1.5,60.061638256041476,
condition files/Stage1_1.xlsx,,T4,B3,m,"['c', 'm']","['Clue', 'Monopoly']","[-0.15, 0.5]","[0.15, 0.5]",1,1,,,,,,,,,0,4,4,4,0,5,5,6,,,,,,,,,,,,,,,,,,,,,,,,,,,,,,,,,,,,,,,,,,,,,,,,,,,,,,,509.2256908439995,None,509.2256908439995,None,509.2256908439995,None,m,1,0.8671460030000162,510.77611900099873,None,510.77611900099873,None,510.77611900099873,None,511.7097478649994,None,511.7097478649994,None,511.7097478649994,None,511.7097478649994,None,,,,,,,,,,,,,,,,,,,,,,,,,,,,,,,,,,,,,,,,,,,,001,37,2020_Jan_30_1205,spring_faces,3.1.5,60.061638256041476,
condition files/Stage1_1.xlsx,,T1,B1,c,"['c', 'm']","['Clue', 'Monopoly']","[-0.15, 0.5]","[0.15, 0.5]",1,1,,,,,,,,,0,4,4,4,0,6,6,0,,,,,,,,,,,,,,,,,,,,,,,,,,,,,,,,,,,,,,,,,,,,,,,,,,,,,,,513.6753170499996,None,513.6753170499996,None,513.6753170499996,None,c,1,0.6257855599997129,515.2255781139993,None,515.2255781139993,None,515.2255781139993,None,515.9106117639985,None,515.9106117639985,None,515.9106117639985,None,515.9106117639985,None,,,,,,,,,,,,,,,,,,,,,,,,,,,,,,,,,,,,,,,,,,,,001,37,2020_Jan_30_1205,spring_faces,3.1.5,60.061638256041476,
condition files/Stage1_1.xlsx,,B3,T3,c,"['c', 'm']","['Clue', 'Monopoly']","[-0.15, 0.5]","[0.15, 0.5]",1,1,,,,,,,,,0,4,4,4,0,7,7,4,,,,,,,,,,,,,,,,,,,,,,,,,,,,,,,,,,,,,,,,,,,,,,,,,,,,,,,517.8753353029988,None,517.8753353029988,None,517.8753353029988,None,c,1,1.6569068919998244,519.4264577979993,None,519.4264577979993,None,519.4264577979993,None,521.1424758590001,None,521.1424758590001,None,521.1424758590001,None,521.1424758590001,None,,,,,,,,,,,,,,,,,,,,,,,,,,,,,,,,,,,,,,,,,,,,001,37,2020_Jan_30_1205,spring_faces,3.1.5,60.061638256041476,
condition files/Stage1_2.xlsx,,T4,B4,m,"['c', 'm']","['Clue', 'Monopoly']","[-0.15, 0.5]","[0.15, 0.5]",1,1,,,,,,,,,0,5,5,5,0,0,0,7,,,,,,,,,,,,,,,,,,,,,,,,,,,,,,,,,,,,,,,,,,,,,,,,,,,,,,,523.1258668409992,None,523.1258668409992,None,523.1258668409992,None,m,1,2.037868993000302,524.661516438,None,524.661516438,None,524.661516438,None,526.7614456149986,None,526.7614456149986,None,526.7614456149986,None,526.7614456149986,None,,,,,,,,,,,,,,,,,,,,,,,,,,,,,,,,,,,,,,,,,,,,001,37,2020_Jan_30_1205,spring_faces,3.1.5,60.061638256041476,
condition files/Stage1_2.xlsx,,T2,B1,c,"['c', 'm']","['Clue', 'Monopoly']","[-0.15, 0.5]","[0.15, 0.5]",1,1,,,,,,,,,0,5,5,5,0,1,1,1,,,,,,,,,,,,,,,,,,,,,,,,,,,,,,,,,,,,,,,,,,,,,,,,,,,,,,,528.7259133129992,None,528.7259133129992,None,528.7259133129992,None,c,1,0.981835141999909,530.2614508359984,None,530.2614508359984,None,530.2614508359984,None,531.3100487149986,None,531.3100487149986,None,531.3100487149986,None,531.3100487149986,None,,,,,,,,,,,,,,,,,,,,,,,,,,,,,,,,,,,,,,,,,,,,001,37,2020_Jan_30_1205,spring_faces,3.1.5,60.061638256041476,
condition files/Stage1_2.xlsx,,B3,T4,m,"['c', 'm']","['Clue', 'Monopoly']","[-0.15, 0.5]","[0.15, 0.5]",1,1,,,,,,,,,0,5,5,5,0,2,2,6,,,,,,,,,,,,,,,,,,,,,,,,,,,,,,,,,,,,,,,,,,,,,,,,,,,,,,,533.2760129409999,None,533.2760129409999,None,533.2760129409999,None,m,1,1.0739166999992449,534.8254341679985,None,534.8254341679985,None,534.8254341679985,None,535.9761539339997,None,535.9761539339997,None,535.9761539339997,None,535.9761539339997,None,,,,,,,,,,,,,,,,,,,,,,,,,,,,,,,,,,,,,,,,,,,,001,37,2020_Jan_30_1205,spring_faces,3.1.5,60.061638256041476,
condition files/Stage1_2.xlsx,,T1,B2,m,"['c', 'm']","['Clue', 'Monopoly']","[-0.15, 0.5]","[0.15, 0.5]",1,1,,,,,,,,,0,5,5,5,0,3,3,2,,,,,,,,,,,,,,,,,,,,,,,,,,,,,,,,,,,,,,,,,,,,,,,,,,,,,,,537.9257706899989,None,537.9257706899989,None,537.9257706899989,None,m,1,1.5111786679990473,539.4760807779985,None,539.4760807779985,None,539.4760807779985,None,541.042302427999,None,541.042302427999,None,541.042302427999,None,541.042302427999,None,,,,,,,,,,,,,,,,,,,,,,,,,,,,,,,,,,,,,,,,,,,,001,37,2020_Jan_30_1205,spring_faces,3.1.5,60.061638256041476,
condition files/Stage1_2.xlsx,,B4,T3,c,"['c', 'm']","['Clue', 'Monopoly']","[-0.15, 0.5]","[0.15, 0.5]",1,1,,,,,,,,,0,5,5,5,0,4,4,5,,,,,,,,,,,,,,,,,,,,,,,,,,,,,,,,,,,,,,,,,,,,,,,,,,,,,,,543.0092135179984,None,543.0092135179984,None,543.0092135179984,None,c,1,1.3239524480013642,544.5434363559998,None,544.5434363559998,None,544.5434363559998,None,545.9265871569987,None,545.9265871569987,None,545.9265871569987,None,545.9265871569987,None,,,,,,,,,,,,,,,,,,,,,,,,,,,,,,,,,,,,,,,,,,,,001,37,2020_Jan_30_1205,spring_faces,3.1.5,60.061638256041476,
condition files/Stage1_2.xlsx,,B2,T2,m,"['c', 'm']","['Clue', 'Monopoly']","[-0.15, 0.5]","[0.15, 0.5]",1,1,,,,,,,,,0,5,5,5,0,5,5,3,,,,,,,,,,,,,,,,,,,,,,,,,,,,,,,,,,,,,,,,,,,,,,,,,,,,,,,547.8926740259994,None,547.8926740259994,None,547.8926740259994,None,m,1,1.0006744009988324,549.4425640169993,None,549.4425640169993,None,549.4425640169993,None,550.5264038609985,None,550.5264038609985,None,550.5264038609985,None,550.5264038609985,None,,,,,,,,,,,,,,,,,,,,,,,,,,,,,,,,,,,,,,,,,,,,001,37,2020_Jan_30_1205,spring_faces,3.1.5,60.061638256041476,
condition files/Stage1_2.xlsx,,B1,T1,c,"['c', 'm']","['Clue', 'Monopoly']","[-0.15, 0.5]","[0.15, 0.5]",1,1,,,,,,,,,0,5,5,5,0,6,6,0,,,,,,,,,,,,,,,,,,,,,,,,,,,,,,,,,,,,,,,,,,,,,,,,,,,,,,,552.4760739099984,None,552.4760739099984,None,552.4760739099984,None,c,1,0.9938016660016729,554.0255085589997,None,554.0255085589997,None,554.0255085589997,None,555.0781864569999,None,555.0781864569999,None,555.0781864569999,None,555.0781864569999,None,,,,,,,,,,,,,,,,,,,,,,,,,,,,,,,,,,,,,,,,,,,,001,37,2020_Jan_30_1205,spring_faces,3.1.5,60.061638256041476,
condition files/Stage1_2.xlsx,,T3,B3,c,"['c', 'm']","['Clue', 'Monopoly']","[-0.15, 0.5]","[0.15, 0.5]",1,1,,,,,,,,,0,5,5,5,0,7,7,4,,,,,,,,,,,,,,,,,,,,,,,,,,,,,,,,,,,,,,,,,,,,,,,,,,,,,,,557.0419496459999,None,557.0419496459999,None,557.0419496459999,None,c,1,0.6660851830001775,558.5772056909991,None,558.5772056909991,None,558.5772056909991,None,559.3095896409995,None,559.3095896409995,None,559.3095896409995,None,559.3095896409995,None,,,,,,,,,,,,,,,,,,,,,,,,,,,,,,,,,,,,,,,,,,,,001,37,2020_Jan_30_1205,spring_faces,3.1.5,60.061638256041476,
condition files/Stage1_1.xlsx,,B1,T2,c,"['c', 'm']","['Clue', 'Monopoly']","[-0.15, 0.5]","[0.15, 0.5]",1,1,,,,,,,,,0,6,6,6,0,0,0,1,,,,,,,,,,,,,,,,,,,,,,,,,,,,,,,,,,,,,,,,,,,,,,,,,,,,,,,561.2923965029986,None,561.2923965029986,None,561.2923965029986,None,c,1,0.944055361998835,562.8272166089992,None,562.8272166089992,None,562.8272166089992,None,563.8262479919995,None,563.8262479919995,None,563.8262479919995,None,563.8262479919995,None,,,,,,,,,,,,,,,,,,,,,,,,,,,,,,,,,,,,,,,,,,,,001,37,2020_Jan_30_1205,spring_faces,3.1.5,60.061638256041476,
condition files/Stage1_1.xlsx,,B3,T3,c,"['c', 'm']","['Clue', 'Monopoly']","[-0.15, 0.5]","[0.15, 0.5]",1,1,,,,,,,,,0,6,6,6,0,1,1,4,,,,,,,,,,,,,,,,,,,,,,,,,,,,,,,,,,,,,,,,,,,,,,,,,,,,,,,565.7922369969983,None,565.7922369969983,None,565.7922369969983,None,c,1,1.0520678619996033,567.3272493269997,None,567.3272493269997,None,567.3272493269997,None,568.4435341969984,None,568.4435341969984,None,568.4435341969984,None,568.4435341969984,None,,,,,,,,,,,,,,,,,,,,,,,,,,,,,,,,,,,,,,,,,,,,001,37,2020_Jan_30_1205,spring_faces,3.1.5,60.061638256041476,
condition files/Stage1_1.xlsx,,T4,B3,m,"['c', 'm']","['Clue', 'Monopoly']","[-0.15, 0.5]","[0.15, 0.5]",1,1,,,,,,,,,0,6,6,6,0,2,2,6,,,,,,,,,,,,,,,,,,,,,,,,,,,,,,,,,,,,,,,,,,,,,,,,,,,,,,,570.4091036399986,None,570.4091036399986,None,570.4091036399986,None,m,1,0.8356861860011122,571.9596163229999,None,571.9596163229999,None,571.9596163229999,None,572.8755393880001,None,572.8755393880001,None,572.8755393880001,None,572.8755393880001,None,,,,,,,,,,,,,,,,,,,,,,,,,,,,,,,,,,,,,,,,,,,,001,37,2020_Jan_30_1205,spring_faces,3.1.5,60.061638256041476,
condition files/Stage1_1.xlsx,,T3,B4,c,"['c', 'm']","['Clue', 'Monopoly']","[-0.15, 0.5]","[0.15, 0.5]",1,1,,,,,,,,,0,6,6,6,0,3,3,5,,,,,,,,,,,,,,,,,,,,,,,,,,,,,,,,,,,,,,,,,,,,,,,,,,,,,,,574.8258687569996,None,574.8258687569996,None,574.8258687569996,None,c,1,0.5474776360006217,576.3598342039986,None,576.3598342039986,None,576.3598342039986,None,576.9761222589987,None,576.9761222589987,None,576.9761222589987,None,576.9761222589987,None,,,,,,,,,,,,,,,,,,,,,,,,,,,,,,,,,,,,,,,,,,,,001,37,2020_Jan_30_1205,spring_faces,3.1.5,60.061638256041476,
condition files/Stage1_1.xlsx,,T2,B2,m,"['c', 'm']","['Clue', 'Monopoly']","[-0.15, 0.5]","[0.15, 0.5]",1,1,,,,,,,,,0,6,6,6,0,4,4,3,,,,,,,,,,,,,,,,,,,,,,,,,,,,,,,,,,,,,,,,,,,,,,,,,,,,,,,578.9259225809983,None,578.9259225809983,None,578.9259225809983,None,m,1,0.7653573649986356,580.4619388969986,None,580.4619388969986,None,580.4619388969986,None,581.3094169249998,None,581.3094169249998,None,581.3094169249998,None,581.3094169249998,None,,,,,,,,,,,,,,,,,,,,,,,,,,,,,,,,,,,,,,,,,,,,001,37,2020_Jan_30_1205,spring_faces,3.1.5,60.061638256041476,
condition files/Stage1_1.xlsx,,T1,B1,c,"['c', 'm']","['Clue', 'Monopoly']","[-0.15, 0.5]","[0.15, 0.5]",1,1,,,,,,,,,0,6,6,6,0,5,5,0,,,,,,,,,,,,,,,,,,,,,,,,,,,,,,,,,,,,,,,,,,,,,,,,,,,,,,,583.2593857019983,None,583.2593857019983,None,583.2593857019983,None,c,1,0.960054412998943,584.7952228629983,None,584.7952228629983,None,584.7952228629983,None,585.8255310299992,None,585.8255310299992,None,585.8255310299992,None,585.8255310299992,None,,,,,,,,,,,,,,,,,,,,,,,,,,,,,,,,,,,,,,,,,,,,001,37,2020_Jan_30_1205,spring_faces,3.1.5,60.061638256041476,
condition files/Stage1_1.xlsx,,B2,T1,m,"['c', 'm']","['Clue', 'Monopoly']","[-0.15, 0.5]","[0.15, 0.5]",1,1,,,,,,,,,0,6,6,6,0,6,6,2,,,,,,,,,,,,,,,,,,,,,,,,,,,,,,,,,,,,,,,,,,,,,,,,,,,,,,,587.7753930319996,None,587.7753930319996,None,587.7753930319996,None,m,1,3.069486684000367,589.3258131879993,None,589.3258131879993,None,589.3258131879993,None,592.4761143619999,None,592.4761143619999,None,592.4761143619999,None,592.4761143619999,None,,,,,,,,,,,,,,,,,,,,,,,,,,,,,,,,,,,,,,,,,,,,001,37,2020_Jan_30_1205,spring_faces,3.1.5,60.061638256041476,
condition files/Stage1_1.xlsx,,B4,T4,m,"['c', 'm']","['Clue', 'Monopoly']","[-0.15, 0.5]","[0.15, 0.5]",1,1,,,,,,,,,0,6,6,6,0,7,7,7,,,,,,,,,,,,,,,,,,,,,,,,,,,,,,,,,,,,,,,,,,,,,,,,,,,,,,,594.4260248929986,None,594.4260248929986,None,594.4260248929986,None,m,1,1.042365431001599,595.9610219869992,None,595.9610219869992,None,595.9610219869992,None,597.0590877459999,None,597.0590877459999,None,597.0590877459999,None,597.0590877459999,None,,,,,,,,,,,,,,,,,,,,,,,,,,,,,,,,,,,,,,,,,,,,001,37,2020_Jan_30_1205,spring_faces,3.1.5,60.061638256041476,
condition files/Stage1_2.xlsx,,B1,T1,c,"['c', 'm']","['Clue', 'Monopoly']","[-0.15, 0.5]","[0.15, 0.5]",1,1,,,,,,,,,0,7,7,7,0,0,0,0,,,,,,,,,,,,,,,,,,,,,,,,,,,,,,,,,,,,,,,,,,,,,,,,,,,,,,,599.0425190869992,None,599.0425190869992,None,599.0425190869992,None,c,1,2.186843436000345,600.5924678539996,None,600.5924678539996,None,600.5924678539996,None,602.8588460079991,None,602.8588460079991,None,602.8588460079991,None,602.8588460079991,None,,,,,,,,,,,,,,,,,,,,,,,,,,,,,,,,,,,,,,,,,,,,001,37,2020_Jan_30_1205,spring_faces,3.1.5,60.061638256041476,
condition files/Stage1_2.xlsx,,B3,T4,m,"['c', 'm']","['Clue', 'Monopoly']","[-0.15, 0.5]","[0.15, 0.5]",1,1,,,,,,,,,0,7,7,7,0,1,1,6,,,,,,,,,,,,,,,,,,,,,,,,,,,,,,,,,,,,,,,,,,,,,,,,,,,,,,,604.8090606349997,None,604.8090606349997,None,604.8090606349997,None,m,1,1.4278922020002938,606.3593892969984,None,606.3593892969984,None,606.3593892969984,None,607.859036423999,None,607.859036423999,None,607.859036423999,None,607.859036423999,None,,,,,,,,,,,,,,,,,,,,,,,,,,,,,,,,,,,,,,,,,,,,001,37,2020_Jan_30_1205,spring_faces,3.1.5,60.061638256041476,
condition files/Stage1_2.xlsx,,T2,B1,c,"['c', 'm']","['Clue', 'Monopoly']","[-0.15, 0.5]","[0.15, 0.5]",1,1,,,,,,,,,0,7,7,7,0,2,2,1,,,,,,,,,,,,,,,,,,,,,,,,,,,,,,,,,,,,,,,,,,,,,,,,,,,,,,,609.8095070689997,None,609.8095070689997,None,609.8095070689997,None,c,1,0.9394559560005291,611.3439338469998,None,611.3439338469998,None,611.3439338469998,None,612.3596108269994,None,612.3596108269994,None,612.3596108269994,None,612.3596108269994,None,,,,,,,,,,,,,,,,,,,,,,,,,,,,,,,,,,,,,,,,,,,,001,37,2020_Jan_30_1205,spring_faces,3.1.5,60.061638256041476,
condition files/Stage1_2.xlsx,,B4,T3,c,"['c', 'm']","['Clue', 'Monopoly']","[-0.15, 0.5]","[0.15, 0.5]",1,1,,,,,,,,,0,7,7,7,0,3,3,5,,,,,,,,,,,,,,,,,,,,,,,,,,,,,,,,,,,,,,,,,,,,,,,,,,,,,,,614.3091668039997,None,614.3091668039997,None,614.3091668039997,None,c,1,0.8072560760010674,615.8441257459999,None,615.8441257459999,None,615.8441257459999,None,616.7091625929988,None,616.7091625929988,None,616.7091625929988,None,616.7091625929988,None,,,,,,,,,,,,,,,,,,,,,,,,,,,,,,,,,,,,,,,,,,,,001,37,2020_Jan_30_1205,spring_faces,3.1.5,60.061638256041476,
condition files/Stage1_2.xlsx,,B2,T2,m,"['c', 'm']","['Clue', 'Monopoly']","[-0.15, 0.5]","[0.15, 0.5]",1,1,,,,,,,,,0,7,7,7,0,4,4,3,,,,,,,,,,,,,,,,,,,,,,,,,,,,,,,,,,,,,,,,,,,,,,,,,,,,,,,618.6759525130001,None,618.6759525130001,None,618.6759525130001,None,m,1,1.0498018849993969,620.2254864999995,None,620.2254864999995,None,620.2254864999995,None,621.3428537699983,None,621.3428537699983,None,621.3428537699983,None,621.3428537699983,None,,,,,,,,,,,,,,,,,,,,,,,,,,,,,,,,,,,,,,,,,,,,001,37,2020_Jan_30_1205,spring_faces,3.1.5,60.061638256041476,
condition files/Stage1_2.xlsx,,T3,B3,c,"['c', 'm']","['Clue', 'Monopoly']","[-0.15, 0.5]","[0.15, 0.5]",1,1,,,,,,,,,0,7,7,7,0,5,5,4,,,,,,,,,,,,,,,,,,,,,,,,,,,,,,,,,,,,,,,,,,,,,,,,,,,,,,,623.2924650189998,None,623.2924650189998,None,623.2924650189998,None,c,1,0.6072057680012222,624.828175143999,None,624.828175143999,None,624.828175143999,None,625.4941517139996,None,625.4941517139996,None,625.4941517139996,None,625.4941517139996,None,,,,,,,,,,,,,,,,,,,,,,,,,,,,,,,,,,,,,,,,,,,,001,37,2020_Jan_30_1205,spring_faces,3.1.5,60.061638256041476,
condition files/Stage1_2.xlsx,,T4,B4,m,"['c', 'm']","['Clue', 'Monopoly']","[-0.15, 0.5]","[0.15, 0.5]",1,1,,,,,,,,,0,7,7,7,0,6,6,7,,,,,,,,,,,,,,,,,,,,,,,,,,,,,,,,,,,,,,,,,,,,,,,,,,,,,,,627.4592603889996,None,627.4592603889996,None,627.4592603889996,None,m,1,3.386569744001463,629.0087168539994,None,629.0087168539994,None,629.0087168539994,None,632.4761311779985,None,632.4761311779985,None,632.4761311779985,None,632.4761311779985,None,,,,,,,,,,,,,,,,,,,,,,,,,,,,,,,,,,,,,,,,,,,,001,37,2020_Jan_30_1205,spring_faces,3.1.5,60.061638256041476,
condition files/Stage1_2.xlsx,,T1,B2,m,"['c', 'm']","['Clue', 'Monopoly']","[-0.15, 0.5]","[0.15, 0.5]",1,1,,,,,,,,,0,7,7,7,0,7,7,2,,,,,,,,,,,,,,,,,,,,,,,,,,,,,,,,,,,,,,,,,,,,,,,,,,,,,,,634.425849158999,None,634.425849158999,None,634.425849158999,None,m,1,0.6273574379993079,635.9760096999998,None,635.9760096999998,None,635.9760096999998,None,636.6584863459993,None,636.6584863459993,None,636.6584863459993,None,636.6584863459993,None,,,,,,,,,,,,,,,,,,,,,,,,,,,,,,,,,,,,,,,,,,,,001,37,2020_Jan_30_1205,spring_faces,3.1.5,60.061638256041476,
condition files/Stage1_1.xlsx,,B3,T3,c,"['c', 'm']","['Clue', 'Monopoly']","[-0.15, 0.5]","[0.15, 0.5]",1,1,,,,,,,,,0,8,8,8,0,0,0,4,,,,,,,,,,,,,,,,,,,,,,,,,,,,,,,,,,,,,,,,,,,,,,,,,,,,,,,638.6423190749993,None,638.6423190749993,None,638.6423190749993,None,c,1,0.6828837350003596,640.1924279549985,None,640.1924279549985,None,640.1924279549985,None,640.9422752129994,None,640.9422752129994,None,640.9422752129994,None,640.9422752129994,None,,,,,,,,,,,,,,,,,,,,,,,,,,,,,,,,,,,,,,,,,,,,001,37,2020_Jan_30_1205,spring_faces,3.1.5,60.061638256041476,
condition files/Stage1_1.xlsx,,T3,B4,c,"['c', 'm']","['Clue', 'Monopoly']","[-0.15, 0.5]","[0.15, 0.5]",1,1,,,,,,,,,0,8,8,8,0,1,1,5,,,,,,,,,,,,,,,,,,,,,,,,,,,,,,,,,,,,,,,,,,,,,,,,,,,,,,,642.8926574439993,None,642.8926574439993,None,642.8926574439993,None,c,1,0.592291667999234,644.4270260109988,None,644.4270260109988,None,644.4270260109988,None,645.0753948789988,None,645.0753948789988,None,645.0753948789988,None,645.0753948789988,None,,,,,,,,,,,,,,,,,,,,,,,,,,,,,,,,,,,,,,,,,,,,001,37,2020_Jan_30_1205,spring_faces,3.1.5,60.061638256041476,
condition files/Stage1_1.xlsx,,B2,T1,m,"['c', 'm']","['Clue', 'Monopoly']","[-0.15, 0.5]","[0.15, 0.5]",1,1,,,,,,,,,0,8,8,8,0,2,2,2,,,,,,,,,,,,,,,,,,,,,,,,,,,,,,,,,,,,,,,,,,,,,,,,,,,,,,,647.041739622,None,647.041739622,None,647.041739622,None,m,1,0.8889272129999881,648.5784609279999,None,648.5784609279999,None,648.5784609279999,None,649.5428014089994,None,649.5428014089994,None,649.5428014089994,None,649.5428014089994,None,,,,,,,,,,,,,,,,,,,,,,,,,,,,,,,,,,,,,,,,,,,,001,37,2020_Jan_30_1205,spring_faces,3.1.5,60.061638256041476,
condition files/Stage1_1.xlsx,,T1,B1,c,"['c', 'm']","['Clue', 'Monopoly']","[-0.15, 0.5]","[0.15, 0.5]",1,1,,,,,,,,,0,8,8,8,0,3,3,0,,,,,,,,,,,,,,,,,,,,,,,,,,,,,,,,,,,,,,,,,,,,,,,,,,,,,,,651.4919514609992,None,651.4919514609992,None,651.4919514609992,None,c,1,1.4952784619999875,653.0280219699998,None,653.0280219699998,None,653.0280219699998,None,654.5927885749988,None,654.5927885749988,None,654.5927885749988,None,654.5927885749988,None,,,,,,,,,,,,,,,,,,,,,,,,,,,,,,,,,,,,,,,,,,,,001,37,2020_Jan_30_1205,spring_faces,3.1.5,60.061638256041476,
condition files/Stage1_1.xlsx,,T2,B2,m,"['c', 'm']","['Clue', 'Monopoly']","[-0.15, 0.5]","[0.15, 0.5]",1,1,,,,,,,,,0,8,8,8,0,4,4,3,,,,,,,,,,,,,,,,,,,,,,,,,,,,,,,,,,,,,,,,,,,,,,,,,,,,,,,656.5423446129989,None,656.5423446129989,None,656.5423446129989,None,m,1,3.1020805619991734,658.0772485119996,None,658.0772485119996,None,658.0772485119996,None,661.2591816379991,None,661.2591816379991,None,661.2591816379991,None,661.2591816379991,None,,,,,,,,,,,,,,,,,,,,,,,,,,,,,,,,,,,,,,,,,,,,001,37,2020_Jan_30_1205,spring_faces,3.1.5,60.061638256041476,
condition files/Stage1_1.xlsx,,B4,T4,m,"['c', 'm']","['Clue', 'Monopoly']","[-0.15, 0.5]","[0.15, 0.5]",1,1,,,,,,,,,0,8,8,8,0,5,5,7,,,,,,,,,,,,,,,,,,,,,,,,,,,,,,,,,,,,,,,,,,,,,,,,,,,,,,,663.2092622739983,None,663.2092622739983,None,663.2092622739983,None,m,1,1.3161126590002823,664.759180645,None,664.759180645,None,664.759180645,None,666.1271577239986,None,666.1271577239986,None,666.1271577239986,None,666.1271577239986,None,,,,,,,,,,,,,,,,,,,,,,,,,,,,,,,,,,,,,,,,,,,,001,37,2020_Jan_30_1205,spring_faces,3.1.5,60.061638256041476,
condition files/Stage1_1.xlsx,,B1,T2,c,"['c', 'm']","['Clue', 'Monopoly']","[-0.15, 0.5]","[0.15, 0.5]",1,1,,,,,,,,,0,8,8,8,0,6,6,1,,,,,,,,,,,,,,,,,,,,,,,,,,,,,,,,,,,,,,,,,,,,,,,,,,,,,,,668.0922542469998,None,668.0922542469998,None,668.0922542469998,None,c,1,0.673767995000162,669.625614655999,None,669.625614655999,None,669.625614655999,None,670.3761907769986,None,670.3761907769986,None,670.3761907769986,None,670.3761907769986,None,,,,,,,,,,,,,,,,,,,,,,,,,,,,,,,,,,,,,,,,,,,,001,37,2020_Jan_30_1205,spring_faces,3.1.5,60.061638256041476,
condition files/Stage1_1.xlsx,,T4,B3,m,"['c', 'm']","['Clue', 'Monopoly']","[-0.15, 0.5]","[0.15, 0.5]",1,1,,,,,,,,,0,8,8,8,0,7,7,6,,,,,,,,,,,,,,,,,,,,,,,,,,,,,,,,,,,,,,,,,,,,,,,,,,,,,,,672.3255256359989,None,672.3255256359989,None,672.3255256359989,None,m,1,0.855231568999443,673.8760902499998,None,673.8760902499998,None,673.8760902499998,None,674.7933521949999,None,674.7933521949999,None,674.7933521949999,None,674.7933521949999,None,,,,,,,,,,,,,,,,,,,,,,,,,,,,,,,,,,,,,,,,,,,,001,37,2020_Jan_30_1205,spring_faces,3.1.5,60.061638256041476,
condition files/Stage1_2.xlsx,,T3,B3,c,"['c', 'm']","['Clue', 'Monopoly']","[-0.15, 0.5]","[0.15, 0.5]",1,1,,,,,,,,,0,9,9,9,0,0,0,4,,,,,,,,,,,,,,,,,,,,,,,,,,,,,,,,,,,,,,,,,,,,,,,,,,,,,,,676.7762961449989,None,676.7762961449989,None,676.7762961449989,None,c,1,0.6452223180003784,678.3260648649994,None,678.3260648649994,None,678.3260648649994,None,679.028277894,None,679.028277894,None,679.028277894,None,679.028277894,None,,,,,,,,,,,,,,,,,,,,,,,,,,,,,,,,,,,,,,,,,,,,001,37,2020_Jan_30_1205,spring_faces,3.1.5,60.061638256041476,
condition files/Stage1_2.xlsx,,B3,T4,m,"['c', 'm']","['Clue', 'Monopoly']","[-0.15, 0.5]","[0.15, 0.5]",1,1,,,,,,,,,0,9,9,9,0,1,1,6,,,,,,,,,,,,,,,,,,,,,,,,,,,,,,,,,,,,,,,,,,,,,,,,,,,,,,,680.9924867569989,None,680.9924867569989,None,680.9924867569989,None,m,1,1.4215950910001993,682.5257413589989,None,682.5257413589989,None,682.5257413589989,None,684.0255373269993,None,684.0255373269993,None,684.0255373269993,None,684.0255373269993,None,,,,,,,,,,,,,,,,,,,,,,,,,,,,,,,,,,,,,,,,,,,,001,37,2020_Jan_30_1205,spring_faces,3.1.5,60.061638256041476,
condition files/Stage1_2.xlsx,,B4,T3,c,"['c', 'm']","['Clue', 'Monopoly']","[-0.15, 0.5]","[0.15, 0.5]",1,1,,,,,,,,,0,9,9,9,0,2,2,5,,,,,,,,,,,,,,,,,,,,,,,,,,,,,,,,,,,,,,,,,,,,,,,,,,,,,,,685.9756668800001,None,685.9756668800001,None,685.9756668800001,None,c,1,1.3661914599997544,687.5091224889984,None,687.5091224889984,None,687.5091224889984,None,688.9427489139998,None,688.9427489139998,None,688.9427489139998,None,688.9427489139998,None,,,,,,,,,,,,,,,,,,,,,,,,,,,,,,,,,,,,,,,,,,,,001,37,2020_Jan_30_1205,spring_faces,3.1.5,60.061638256041476,
condition files/Stage1_2.xlsx,,B2,T2,m,"['c', 'm']","['Clue', 'Monopoly']","[-0.15, 0.5]","[0.15, 0.5]",1,1,,,,,,,,,0,9,9,9,0,3,3,3,,,,,,,,,,,,,,,,,,,,,,,,,,,,,,,,,,,,,,,,,,,,,,,,,,,,,,,690.8925768479985,None,690.8925768479985,None,690.8925768479985,None,m,1,1.3444560269999783,692.4428176659985,None,692.4428176659985,None,692.4428176659985,None,693.8596408229987,None,693.8596408229987,None,693.8596408229987,None,693.8596408229987,None,,,,,,,,,,,,,,,,,,,,,,,,,,,,,,,,,,,,,,,,,,,,001,37,2020_Jan_30_1205,spring_faces,3.1.5,60.061638256041476,
condition files/Stage1_2.xlsx,,T4,B4,m,"['c', 'm']","['Clue', 'Monopoly']","[-0.15, 0.5]","[0.15, 0.5]",1,1,,,,,,,,,0,9,9,9,0,4,4,7,,,,,,,,,,,,,,,,,,,,,,,,,,,,,,,,,,,,,,,,,,,,,,,,,,,,,,,695.8086949489989,None,695.8086949489989,None,695.8086949489989,None,m,1,2.60375468500024,697.3595485959995,None,697.3595485959995,None,697.3595485959995,None,700.0261647789994,None,700.0261647789994,None,700.0261647789994,None,700.0261647789994,None,,,,,,,,,,,,,,,,,,,,,,,,,,,,,,,,,,,,,,,,,,,,001,37,2020_Jan_30_1205,spring_faces,3.1.5,60.061638256041476,
condition files/Stage1_2.xlsx,,T2,B1,c,"['c', 'm']","['Clue', 'Monopoly']","[-0.15, 0.5]","[0.15, 0.5]",1,1,,,,,,,,,0,9,9,9,0,5,5,1,,,,,,,,,,,,,,,,,,,,,,,,,,,,,,,,,,,,,,,,,,,,,,,,,,,,,,,701.9925945169998,None,701.9925945169998,None,701.9925945169998,None,c,1,0.7714812929989421,703.5278973320001,None,703.5278973320001,None,703.5278973320001,None,704.3760637919986,None,704.3760637919986,None,704.3760637919986,None,704.3760637919986,None,,,,,,,,,,,,,,,,,,,,,,,,,,,,,,,,,,,,,,,,,,,,001,37,2020_Jan_30_1205,spring_faces,3.1.5,60.061638256041476,
condition files/Stage1_2.xlsx,,B1,T1,c,"['c', 'm']","['Clue', 'Monopoly']","[-0.15, 0.5]","[0.15, 0.5]",1,1,,,,,,,,,0,9,9,9,0,6,6,0,,,,,,,,,,,,,,,,,,,,,,,,,,,,,,,,,,,,,,,,,,,,,,,,,,,,,,,706.3254062059987,None,706.3254062059987,None,706.3254062059987,None,c,1,0.7591026339996461,707.8762421920001,None,707.8762421920001,None,707.8762421920001,None,708.693467088,None,708.693467088,None,708.693467088,None,708.693467088,None,,,,,,,,,,,,,,,,,,,,,,,,,,,,,,,,,,,,,,,,,,,,001,37,2020_Jan_30_1205,spring_faces,3.1.5,60.061638256041476,
condition files/Stage1_2.xlsx,,T1,B2,m,"['c', 'm']","['Clue', 'Monopoly']","[-0.15, 0.5]","[0.15, 0.5]",1,1,,,,,,,,,0,9,9,9,0,7,7,2,,,,,,,,,,,,,,,,,,,,,,,,,,,,,,,,,,,,,,,,,,,,,,,,,,,,,,,710.6591206919984,None,710.6591206919984,None,710.6591206919984,None,m,1,1.5300499059994763,712.2093583959995,None,712.2093583959995,None,712.2093583959995,None,713.8092403769988,None,713.8092403769988,None,713.8092403769988,None,713.8092403769988,None,,,,,,,,,,,,,,,,,,,,,,,,,,,,,,,,,,,,,,,,,,,,001,37,2020_Jan_30_1205,spring_faces,3.1.5,60.061638256041476,
condition files/Stage1_1.xlsx,,B2,T1,m,"['c', 'm']","['Clue', 'Monopoly']","[-0.15, 0.5]","[0.15, 0.5]",1,1,,,,,,,,,0,10,10,10,0,0,0,2,,,,,,,,,,,,,,,,,,,,,,,,,,,,,,,,,,,,,,,,,,,,,,,,,,,,,,,715.7760626179988,None,715.7760626179988,None,715.7760626179988,None,m,1,1.4372465950000333,717.3260730599995,None,717.3260730599995,None,717.3260730599995,None,718.8259043749986,None,718.8259043749986,None,718.8259043749986,None,718.8259043749986,None,,,,,,,,,,,,,,,,,,,,,,,,,,,,,,,,,,,,,,,,,,,,001,37,2020_Jan_30_1205,spring_faces,3.1.5,60.061638256041476,
condition files/Stage1_1.xlsx,,T1,B1,c,"['c', 'm']","['Clue', 'Monopoly']","[-0.15, 0.5]","[0.15, 0.5]",1,1,,,,,,,,,0,10,10,10,0,1,1,0,,,,,,,,,,,,,,,,,,,,,,,,,,,,,,,,,,,,,,,,,,,,,,,,,,,,,,,720.7924462889987,None,720.7924462889987,None,720.7924462889987,None,c,1,1.7644057010002143,722.3428926869983,None,722.3428926869983,None,722.3428926869983,None,724.1757030809986,None,724.1757030809986,None,724.1757030809986,None,724.1757030809986,None,,,,,,,,,,,,,,,,,,,,,,,,,,,,,,,,,,,,,,,,,,,,001,37,2020_Jan_30_1205,spring_faces,3.1.5,60.061638256041476,
condition files/Stage1_1.xlsx,,B3,T3,c,"['c', 'm']","['Clue', 'Monopoly']","[-0.15, 0.5]","[0.15, 0.5]",1,1,,,,,,,,,0,10,10,10,0,2,2,4,,,,,,,,,,,,,,,,,,,,,,,,,,,,,,,,,,,,,,,,,,,,,,,,,,,,,,,726.1257186859984,None,726.1257186859984,None,726.1257186859984,None,c,1,0.9918270380003378,727.6755389029986,None,727.6755389029986,None,727.6755389029986,None,728.7259903319991,None,728.7259903319991,None,728.7259903319991,None,728.7259903319991,None,,,,,,,,,,,,,,,,,,,,,,,,,,,,,,,,,,,,,,,,,,,,001,37,2020_Jan_30_1205,spring_faces,3.1.5,60.061638256041476,
condition files/Stage1_1.xlsx,,T2,B2,m,"['c', 'm']","['Clue', 'Monopoly']","[-0.15, 0.5]","[0.15, 0.5]",1,1,,,,,,,,,0,10,10,10,0,3,3,3,,,,,,,,,,,,,,,,,,,,,,,,,,,,,,,,,,,,,,,,,,,,,,,,,,,,,,,730.6926454669992,None,730.6926454669992,None,730.6926454669992,None,m,1,10.16659566799899,732.2287193389984,None,732.2287193389984,None,732.2287193389984,None,742.4756019389988,None,742.4756019389988,None,742.4756019389988,None,742.4756019389988,None,,,,,,,,,,,,,,,,,,,,,,,,,,,,,,,,,,,,,,,,,,,,001,37,2020_Jan_30_1205,spring_faces,3.1.5,60.061638256041476,
condition files/Stage1_1.xlsx,,B4,T4,m,"['c', 'm']","['Clue', 'Monopoly']","[-0.15, 0.5]","[0.15, 0.5]",1,1,,,,,,,,,0,10,10,10,0,4,4,7,,,,,,,,,,,,,,,,,,,,,,,,,,,,,,,,,,,,,,,,,,,,,,,,,,,,,,,744.4258940799991,None,744.4258940799991,None,744.4258940799991,None,m,1,1.0267797090000386,745.9605238309996,None,745.9605238309996,None,745.9605238309996,None,747.0425410150001,None,747.0425410150001,None,747.0425410150001,None,747.0425410150001,None,,,,,,,,,,,,,,,,,,,,,,,,,,,,,,,,,,,,,,,,,,,,001,37,2020_Jan_30_1205,spring_faces,3.1.5,60.061638256041476,
condition files/Stage1_1.xlsx,,B1,T2,c,"['c', 'm']","['Clue', 'Monopoly']","[-0.15, 0.5]","[0.15, 0.5]",1,1,,,,,,,,,0,10,10,10,0,5,5,1,,,,,,,,,,,,,,,,,,,,,,,,,,,,,,,,,,,,,,,,,,,,,,,,,,,,,,,749.0090940909995,None,749.0090940909995,None,749.0090940909995,None,c,1,0.8766634530002193,750.5586894150001,None,750.5586894150001,None,750.5586894150001,None,751.495358094,None,751.495358094,None,751.495358094,None,751.495358094,None,,,,,,,,,,,,,,,,,,,,,,,,,,,,,,,,,,,,,,,,,,,,001,37,2020_Jan_30_1205,spring_faces,3.1.5,60.061638256041476,
condition files/Stage1_1.xlsx,,T3,B4,c,"['c', 'm']","['Clue', 'Monopoly']","[-0.15, 0.5]","[0.15, 0.5]",1,1,,,,,,,,,0,10,10,10,0,6,6,5,,,,,,,,,,,,,,,,,,,,,,,,,,,,,,,,,,,,,,,,,,,,,,,,,,,,,,,753.459259457999,None,753.459259457999,None,753.459259457999,None,c,1,10.025715030000356,754.9935941889999,None,754.9935941889999,None,754.9935941889999,None,765.0756796400001,None,765.0756796400001,None,765.0756796400001,None,765.0756796400001,None,,,,,,,,,,,,,,,,,,,,,,,,,,,,,,,,,,,,,,,,,,,,001,37,2020_Jan_30_1205,spring_faces,3.1.5,60.061638256041476,
condition files/Stage1_1.xlsx,,T4,B3,m,"['c', 'm']","['Clue', 'Monopoly']","[-0.15, 0.5]","[0.15, 0.5]",1,1,,,,,,,,,0,10,10,10,0,7,7,6,,,,,,,,,,,,,,,,,,,,,,,,,,,,,,,,,,,,,,,,,,,,,,,,,,,,,,,767.0425933329989,None,767.0425933329989,None,767.0425933329989,None,m,1,1.722424878998936,768.576966405999,None,768.576966405999,None,768.576966405999,None,770.3622691049986,None,770.3622691049986,None,770.3622691049986,None,770.3622691049986,None,,,,,,,,,,,,,,,,,,,,,,,,,,,,,,,,,,,,,,,,,,,,001,37,2020_Jan_30_1205,spring_faces,3.1.5,60.061638256041476,
condition files/Stage1_2.xlsx,,T1,B2,m,"['c', 'm']","['Clue', 'Monopoly']","[-0.15, 0.5]","[0.15, 0.5]",1,1,,,,,,,,,0,11,11,11,0,0,0,2,,,,,,,,,,,,,,,,,,,,,,,,,,,,,,,,,,,,,,,,,,,,,,,,,,,,,,,772.3428120659992,None,772.3428120659992,None,772.3428120659992,None,m,1,3.2212637470001937,773.8781673109988,None,773.8781673109988,None,773.8781673109988,None,777.1595068259994,None,777.1595068259994,None,777.1595068259994,None,777.1595068259994,None,,,,,,,,,,,,,,,,,,,,,,,,,,,,,,,,,,,,,,,,,,,,001,37,2020_Jan_30_1205,spring_faces,3.1.5,60.061638256041476,
condition files/Stage1_2.xlsx,,T2,B1,c,"['c', 'm']","['Clue', 'Monopoly']","[-0.15, 0.5]","[0.15, 0.5]",1,1,,,,,,,,,0,11,11,11,0,1,1,1,,,,,,,,,,,,,,,,,,,,,,,,,,,,,,,,,,,,,,,,,,,,,,,,,,,,,,,779.1256385739998,None,779.1256385739998,None,779.1256385739998,None,c,1,0.6778878730001452,780.6616688779995,None,780.6616688779995,None,780.6616688779995,None,781.4093035779988,None,781.4093035779988,None,781.4093035779988,None,781.4093035779988,None,,,,,,,,,,,,,,,,,,,,,,,,,,,,,,,,,,,,,,,,,,,,001,37,2020_Jan_30_1205,spring_faces,3.1.5,60.061638256041476,
condition files/Stage1_2.xlsx,,B2,T2,m,"['c', 'm']","['Clue', 'Monopoly']","[-0.15, 0.5]","[0.15, 0.5]",1,1,,,,,,,,,0,11,11,11,0,2,2,3,,,,,,,,,,,,,,,,,,,,,,,,,,,,,,,,,,,,,,,,,,,,,,,,,,,,,,,783.3592053739994,None,783.3592053739994,None,783.3592053739994,None,m,1,0.780134155000269,784.8951677699988,None,784.8951677699988,None,784.8951677699988,None,785.7426454379984,None,785.7426454379984,None,785.7426454379984,None,785.7426454379984,None,,,,,,,,,,,,,,,,,,,,,,,,,,,,,,,,,,,,,,,,,,,,001,37,2020_Jan_30_1205,spring_faces,3.1.5,60.061638256041476,
condition files/Stage1_2.xlsx,,T3,B3,c,"['c', 'm']","['Clue', 'Monopoly']","[-0.15, 0.5]","[0.15, 0.5]",1,1,,,,,,,,,0,11,11,11,0,3,3,4,,,,,,,,,,,,,,,,,,,,,,,,,,,,,,,,,,,,,,,,,,,,,,,,,,,,,,,787.6925591389991,None,787.6925591389991,None,787.6925591389991,None,c,1,1.0714075429987133,789.2279607579985,None,789.2279607579985,None,789.2279607579985,None,790.3762248809999,None,790.3762248809999,None,790.3762248809999,None,790.3762248809999,None,,,,,,,,,,,,,,,,,,,,,,,,,,,,,,,,,,,,,,,,,,,,001,37,2020_Jan_30_1205,spring_faces,3.1.5,60.061638256041476,
condition files/Stage1_2.xlsx,,B4,T3,c,"['c', 'm']","['Clue', 'Monopoly']","[-0.15, 0.5]","[0.15, 0.5]",1,1,,,,,,,,,0,11,11,11,0,4,4,5,,,,,,,,,,,,,,,,,,,,,,,,,,,,,,,,,,,,,,,,,,,,,,,,,,,,,,,792.3260898829994,None,792.3260898829994,None,792.3260898829994,None,m,0,1.0132979109985172,793.8620122189986,None,793.8620122189986,None,793.8620122189986,None,794.9260137919991,None,794.9260137919991,None,794.9260137919991,None,794.9260137919991,None,,,,,,,,,,,,,,,,,,,,,,,,,,,,,,,,,,,,,,,,,,,,001,37,2020_Jan_30_1205,spring_faces,3.1.5,60.061638256041476,
condition files/Stage1_2.xlsx,,B3,T4,m,"['c', 'm']","['Clue', 'Monopoly']","[-0.15, 0.5]","[0.15, 0.5]",1,1,,,,,,,,,0,11,11,11,0,5,5,6,,,,,,,,,,,,,,,,,,,,,,,,,,,,,,,,,,,,,,,,,,,,,,,,,,,,,,,796.8944340899998,None,796.8944340899998,None,796.8944340899998,None,m,1,0.9444647800009989,798.4428051619998,None,798.4428051619998,None,798.4428051619998,None,799.4593973989995,None,799.4593973989995,None,799.4593973989995,None,799.4593973989995,None,,,,,,,,,,,,,,,,,,,,,,,,,,,,,,,,,,,,,,,,,,,,001,37,2020_Jan_30_1205,spring_faces,3.1.5,60.061638256041476,
condition files/Stage1_2.xlsx,,B1,T1,c,"['c', 'm']","['Clue', 'Monopoly']","[-0.15, 0.5]","[0.15, 0.5]",1,1,,,,,,,,,0,11,11,11,0,6,6,0,,,,,,,,,,,,,,,,,,,,,,,,,,,,,,,,,,,,,,,,,,,,,,,,,,,,,,,801.409294273999,None,801.409294273999,None,801.409294273999,None,c,1,0.6824468790000537,802.9448454579997,None,802.9448454579997,None,802.9448454579997,None,803.7096709429989,None,803.7096709429989,None,803.7096709429989,None,803.7096709429989,None,,,,,,,,,,,,,,,,,,,,,,,,,,,,,,,,,,,,,,,,,,,,001,37,2020_Jan_30_1205,spring_faces,3.1.5,60.061638256041476,
condition files/Stage1_2.xlsx,,T4,B4,m,"['c', 'm']","['Clue', 'Monopoly']","[-0.15, 0.5]","[0.15, 0.5]",1,1,,,,,,,,,0,11,11,11,0,7,7,7,,,,,,,,,,,,,,,,,,,,,,,,,,,,,,,,,,,,,,,,,,,,,,,,,,,,,,,805.6586645939988,None,805.6586645939988,None,805.6586645939988,None,m,1,0.7377081430004182,807.2095956859994,None,807.2095956859994,None,807.2095956859994,None,808.0259337569987,None,808.0259337569987,None,808.0259337569987,None,808.0259337569987,None,,,,,,,,,,,,,,,,,,,,,,,,,,,,,,,,,,,,,,,,,,,,001,37,2020_Jan_30_1205,spring_faces,3.1.5,60.061638256041476,
,,,,,,,,,,,,,,,,,,,,,,,,,,,,,,,,,,,,,,,,,,,,,,,,,,,,,,,,,,,,,,,,,,,,,,,,,,,,,,,,,,,,,,,,,,,,,,,,,,,,,,,,,,,,,,,,809.9928069869984,None,space,5.274781902999166,814.9925884589993,None,,,,,,,,,,,,,,,,,,,,,,,,,,,,,,001,37,2020_Jan_30_1205,spring_faces,3.1.5,60.061638256041476,
condition files/Stage2_1.xlsx,,T5,B5,s,"['s', 'r']","['Stratego', 'Risk']","[-0.15, 0.5]","[0.15, 0.5]",1,1,,,,,,,,,,,,,,,,,0,0,0,0,0,0,0,0,,,,,,,,,,,,,,,,,,,,,,,,,,,,,,,,,,,,,,,,,,,,,,,820.408872987,None,820.408872987,None,820.408872987,None,r,0,1.4626691749999736,821.892644399999,None,821.892644399999,None,821.892644399999,None,823.4264215889998,None,823.4264215889998,None,823.4264215889998,None,823.4264215889998,None,,,,,,,,,,,,,,,814.9925884589993,None,,,,,,,,,,,,,,,,,,,,,,,,,,,,001,37,2020_Jan_30_1205,spring_faces,3.1.5,60.061638256041476,
condition files/Stage2_1.xlsx,,T3,B3,s,"['s', 'r']","['Stratego', 'Risk']","[-0.15, 0.5]","[0.15, 0.5]",1,1,,,,,,,,,,,,,,,,,0,0,0,0,0,1,1,4,,,,,,,,,,,,,,,,,,,,,,,,,,,,,,,,,,,,,,,,,,,,,,,825.375989782,None,825.375989782,None,825.375989782,None,r,0,0.9258803320008155,826.9254856609987,None,826.9254856609987,None,826.9254856609987,None,827.909530605999,None,827.909530605999,None,827.909530605999,None,827.909530605999,None,,,,,,,,,,,,,,,,,,,,,,,,,,,,,,,,,,,,,,,,,,,,001,37,2020_Jan_30_1205,spring_faces,3.1.5,60.061638256041476,
condition files/Stage2_1.xlsx,,B4,T4,r,"['s', 'r']","['Stratego', 'Risk']","[-0.15, 0.5]","[0.15, 0.5]",1,1,,,,,,,,,,,,,,,,,0,0,0,0,0,2,2,5,,,,,,,,,,,,,,,,,,,,,,,,,,,,,,,,,,,,,,,,,,,,,,,829.8761246969989,None,829.8761246969989,None,829.8761246969989,None,s,0,1.5931543200003944,831.4261344509996,None,831.4261344509996,None,831.4261344509996,None,833.0927651579987,None,833.0927651579987,None,833.0927651579987,None,833.0927651579987,None,,,,,,,,,,,,,,,,,,,,,,,,,,,,,,,,,,,,,,,,,,,,001,37,2020_Jan_30_1205,spring_faces,3.1.5,60.061638256041476,
condition files/Stage2_1.xlsx,,B6,T6,r,"['s', 'r']","['Stratego', 'Risk']","[-0.15, 0.5]","[0.15, 0.5]",1,1,,,,,,,,,,,,,,,,,0,0,0,0,0,3,3,1,,,,,,,,,,,,,,,,,,,,,,,,,,,,,,,,,,,,,,,,,,,,,,,835.0427205379983,None,835.0427205379983,None,835.0427205379983,None,r,1,1.1124370510005974,836.6428593339988,None,836.6428593339988,None,836.6428593339988,None,837.8090126070001,None,837.8090126070001,None,837.8090126070001,None,837.8090126070001,None,,,,,,,,,,,,,,,,,,,,,,,,,,,,,,,,,,,,,,,,,,,,001,37,2020_Jan_30_1205,spring_faces,3.1.5,60.061638256041476,
condition files/Stage2_1.xlsx,,T1,B1,s,"['s', 'r']","['Stratego', 'Risk']","[-0.15, 0.5]","[0.15, 0.5]",1,1,,,,,,,,,,,,,,,,,0,0,0,0,0,4,4,2,,,,,,,,,,,,,,,,,,,,,,,,,,,,,,,,,,,,,,,,,,,,,,,839.7759135739998,None,839.7759135739998,None,839.7759135739998,None,s,1,0.34970062899992627,841.3095786169997,None,841.3095786169997,None,841.3095786169997,None,841.7259847819987,None,841.7259847819987,None,841.7259847819987,None,841.7259847819987,None,,,,,,,,,,,,,,,,,,,,,,,,,,,,,,,,,,,,,,,,,,,,001,37,2020_Jan_30_1205,spring_faces,3.1.5,60.061638256041476,
condition files/Stage2_1.xlsx,,B2,T2,r,"['s', 'r']","['Stratego', 'Risk']","[-0.15, 0.5]","[0.15, 0.5]",1,1,,,,,,,,,,,,,,,,,0,0,0,0,0,5,5,3,,,,,,,,,,,,,,,,,,,,,,,,,,,,,,,,,,,,,,,,,,,,,,,843.6754128189987,None,843.6754128189987,None,843.6754128189987,None,r,1,1.3293252290004602,845.2100745609987,None,845.2100745609987,None,845.2100745609987,None,846.5941849840001,None,846.5941849840001,None,846.5941849840001,None,846.5941849840001,None,,,,,,,,,,,,,,,,,,,,,,,,,,,,,,,,,,,,,,,,,,,,001,37,2020_Jan_30_1205,spring_faces,3.1.5,60.061638256041476,
condition files/Stage2_2.xlsx,,B3,T3,s,"['s', 'r']","['Stratego', 'Risk']","[-0.15, 0.5]","[0.15, 0.5]",1,1,,,,,,,,,,,,,,,,,0,1,1,1,0,0,0,4,,,,,,,,,,,,,,,,,,,,,,,,,,,,,,,,,,,,,,,,,,,,,,,848.609350757999,None,848.609350757999,None,848.609350757999,None,s,1,2.2355907809997007,850.1117349870001,None,850.1117349870001,None,850.1117349870001,None,852.4262119649993,None,852.4262119649993,None,852.4262119649993,None,852.4262119649993,None,,,,,,,,,,,,,,,,,,,,,,,,,,,,,,,,,,,,,,,,,,,,001,37,2020_Jan_30_1205,spring_faces,3.1.5,60.061638256041476,
condition files/Stage2_2.xlsx,,B5,T5,s,"['s', 'r']","['Stratego', 'Risk']","[-0.15, 0.5]","[0.15, 0.5]",1,1,,,,,,,,,,,,,,,,,0,1,1,1,0,1,1,0,,,,,,,,,,,,,,,,,,,,,,,,,,,,,,,,,,,,,,,,,,,,,,,854.3760149409991,None,854.3760149409991,None,854.3760149409991,None,r,0,1.0143137140003091,855.9089944729985,None,855.9089944729985,None,855.9089944729985,None,856.9758277749988,None,856.9758277749988,None,856.9758277749988,None,856.9758277749988,None,,,,,,,,,,,,,,,,,,,,,,,,,,,,,,,,,,,,,,,,,,,,001,37,2020_Jan_30_1205,spring_faces,3.1.5,60.061638256041476,
condition files/Stage2_2.xlsx,,B1,T1,s,"['s', 'r']","['Stratego', 'Risk']","[-0.15, 0.5]","[0.15, 0.5]",1,1,,,,,,,,,,,,,,,,,0,1,1,1,0,2,2,2,,,,,,,,,,,,,,,,,,,,,,,,,,,,,,,,,,,,,,,,,,,,,,,858.942286771,None,858.942286771,None,858.942286771,None,s,1,0.7331158100005268,860.4782022889995,None,860.4782022889995,None,860.4782022889995,None,861.2753441739987,None,861.2753441739987,None,861.2753441739987,None,861.2753441739987,None,,,,,,,,,,,,,,,,,,,,,,,,,,,,,,,,,,,,,,,,,,,,001,37,2020_Jan_30_1205,spring_faces,3.1.5,60.061638256041476,
condition files/Stage2_2.xlsx,,T6,B6,r,"['s', 'r']","['Stratego', 'Risk']","[-0.15, 0.5]","[0.15, 0.5]",1,1,,,,,,,,,,,,,,,,,0,1,1,1,0,3,3,1,,,,,,,,,,,,,,,,,,,,,,,,,,,,,,,,,,,,,,,,,,,,,,,863.2420156549997,None,863.2420156549997,None,863.2420156549997,None,r,1,0.3531687230006355,864.7781643179987,None,864.7781643179987,None,864.7781643179987,None,865.1950431749992,None,865.1950431749992,None,865.1950431749992,None,865.1950431749992,None,,,,,,,,,,,,,,,,,,,,,,,,,,,,,,,,,,,,,,,,,,,,001,37,2020_Jan_30_1205,spring_faces,3.1.5,60.061638256041476,
condition files/Stage2_2.xlsx,,T4,B4,r,"['s', 'r']","['Stratego', 'Risk']","[-0.15, 0.5]","[0.15, 0.5]",1,1,,,,,,,,,,,,,,,,,0,1,1,1,0,4,4,5,,,,,,,,,,,,,,,,,,,,,,,,,,,,,,,,,,,,,,,,,,,,,,,867.159448688999,None,867.159448688999,None,867.159448688999,None,r,1,0.7110552349986392,868.6923359439988,None,868.6923359439988,None,868.6923359439988,None,869.4593303829988,None,869.4593303829988,None,869.4593303829988,None,869.4593303829988,None,,,,,,,,,,,,,,,,,,,,,,,,,,,,,,,,,,,,,,,,,,,,001,37,2020_Jan_30_1205,spring_faces,3.1.5,60.061638256041476,
condition files/Stage2_2.xlsx,,T2,B2,r,"['s', 'r']","['Stratego', 'Risk']","[-0.15, 0.5]","[0.15, 0.5]",1,1,,,,,,,,,,,,,,,,,0,1,1,1,0,5,5,3,,,,,,,,,,,,,,,,,,,,,,,,,,,,,,,,,,,,,,,,,,,,,,,871.4253341919994,None,871.4253341919994,None,871.4253341919994,None,r,1,0.6669775320006011,872.9762788769985,None,872.9762788769985,None,872.9762788769985,None,873.709528202,None,873.709528202,None,873.709528202,None,873.709528202,None,,,,,,,,,,,,,,,,,,,,,,,,,,,,,,,,,,,,,,,,,,,,001,37,2020_Jan_30_1205,spring_faces,3.1.5,60.061638256041476,
condition files/Stage2_1.xlsx,,T1,B1,s,"['s', 'r']","['Stratego', 'Risk']","[-0.15, 0.5]","[0.15, 0.5]",1,1,,,,,,,,,,,,,,,,,0,2,2,2,0,0,0,2,,,,,,,,,,,,,,,,,,,,,,,,,,,,,,,,,,,,,,,,,,,,,,,875.6928380310001,None,875.6928380310001,None,875.6928380310001,None,s,1,0.9755896469996514,877.2278086399983,None,877.2278086399983,None,877.2278086399983,None,878.2762517009996,None,878.2762517009996,None,878.2762517009996,None,878.2762517009996,None,,,,,,,,,,,,,,,,,,,,,,,,,,,,,,,,,,,,,,,,,,,,001,37,2020_Jan_30_1205,spring_faces,3.1.5,60.061638256041476,
condition files/Stage2_1.xlsx,,T3,B3,s,"['s', 'r']","['Stratego', 'Risk']","[-0.15, 0.5]","[0.15, 0.5]",1,1,,,,,,,,,,,,,,,,,0,2,2,2,0,1,1,4,,,,,,,,,,,,,,,,,,,,,,,,,,,,,,,,,,,,,,,,,,,,,,,880.2259880729998,None,880.2259880729998,None,880.2259880729998,None,s,1,1.626751683999828,881.7605679529988,None,881.7605679529988,None,881.7605679529988,None,883.4430128619988,None,883.4430128619988,None,883.4430128619988,None,883.4430128619988,None,,,,,,,,,,,,,,,,,,,,,,,,,,,,,,,,,,,,,,,,,,,,001,37,2020_Jan_30_1205,spring_faces,3.1.5,60.061638256041476,
condition files/Stage2_1.xlsx,,B4,T4,r,"['s', 'r']","['Stratego', 'Risk']","[-0.15, 0.5]","[0.15, 0.5]",1,1,,,,,,,,,,,,,,,,,0,2,2,2,0,2,2,5,,,,,,,,,,,,,,,,,,,,,,,,,,,,,,,,,,,,,,,,,,,,,,,885.4088327999998,None,885.4088327999998,None,885.4088327999998,None,r,1,0.7165727819992753,886.9587159309995,None,886.9587159309995,None,886.9587159309995,None,887.7425339149995,None,887.7425339149995,None,887.7425339149995,None,887.7425339149995,None,,,,,,,,,,,,,,,,,,,,,,,,,,,,,,,,,,,,,,,,,,,,001,37,2020_Jan_30_1205,spring_faces,3.1.5,60.061638256041476,
condition files/Stage2_1.xlsx,,B2,T2,r,"['s', 'r']","['Stratego', 'Risk']","[-0.15, 0.5]","[0.15, 0.5]",1,1,,,,,,,,,,,,,,,,,0,2,2,2,0,3,3,3,,,,,,,,,,,,,,,,,,,,,,,,,,,,,,,,,,,,,,,,,,,,,,,889.692607301,None,889.692607301,None,889.692607301,None,r,1,0.6730691080010729,891.2423055939998,None,891.2423055939998,None,891.2423055939998,None,891.976104428999,None,891.976104428999,None,891.976104428999,None,891.976104428999,None,,,,,,,,,,,,,,,,,,,,,,,,,,,,,,,,,,,,,,,,,,,,001,37,2020_Jan_30_1205,spring_faces,3.1.5,60.061638256041476,
condition files/Stage2_1.xlsx,,B6,T6,r,"['s', 'r']","['Stratego', 'Risk']","[-0.15, 0.5]","[0.15, 0.5]",1,1,,,,,,,,,,,,,,,,,0,2,2,2,0,4,4,1,,,,,,,,,,,,,,,,,,,,,,,,,,,,,,,,,,,,,,,,,,,,,,,893.9425466590001,None,893.9425466590001,None,893.9425466590001,None,r,1,0.9031874100001005,895.4921191479989,None,895.4921191479989,None,895.4921191479989,None,896.4594790089996,None,896.4594790089996,None,896.4594790089996,None,896.4594790089996,None,,,,,,,,,,,,,,,,,,,,,,,,,,,,,,,,,,,,,,,,,,,,001,37,2020_Jan_30_1205,spring_faces,3.1.5,60.061638256041476,
condition files/Stage2_1.xlsx,,T5,B5,s,"['s', 'r']","['Stratego', 'Risk']","[-0.15, 0.5]","[0.15, 0.5]",1,1,,,,,,,,,,,,,,,,,0,2,2,2,0,5,5,0,,,,,,,,,,,,,,,,,,,,,,,,,,,,,,,,,,,,,,,,,,,,,,,898.4260816419992,None,898.4260816419992,None,898.4260816419992,None,r,0,0.6748716809997859,899.9605172299998,None,899.9605172299998,None,899.9605172299998,None,900.692361260999,None,900.692361260999,None,900.692361260999,None,900.692361260999,None,,,,,,,,,,,,,,,,,,,,,,,,,,,,,,,,,,,,,,,,,,,,001,37,2020_Jan_30_1205,spring_faces,3.1.5,60.061638256041476,
condition files/Stage2_2.xlsx,,T2,B2,r,"['s', 'r']","['Stratego', 'Risk']","[-0.15, 0.5]","[0.15, 0.5]",1,1,,,,,,,,,,,,,,,,,0,3,3,3,0,0,0,3,,,,,,,,,,,,,,,,,,,,,,,,,,,,,,,,,,,,,,,,,,,,,,,902.6759887869994,None,902.6759887869994,None,902.6759887869994,None,r,1,1.4497632479997264,904.225534915,None,904.225534915,None,904.225534915,None,905.7430929959992,None,905.7430929959992,None,905.7430929959992,None,905.7430929959992,None,,,,,,,,,,,,,,,,,,,,,,,,,,,,,,,,,,,,,,,,,,,,001,37,2020_Jan_30_1205,spring_faces,3.1.5,60.061638256041476,
condition files/Stage2_2.xlsx,,B1,T1,s,"['s', 'r']","['Stratego', 'Risk']","[-0.15, 0.5]","[0.15, 0.5]",1,1,,,,,,,,,,,,,,,,,0,3,3,3,0,1,1,2,,,,,,,,,,,,,,,,,,,,,,,,,,,,,,,,,,,,,,,,,,,,,,,907.6917832069994,None,907.6917832069994,None,907.6917832069994,None,s,1,1.265023902999019,909.2422726669993,None,909.2422726669993,None,909.2422726669993,None,910.5620013949992,None,910.5620013949992,None,910.5620013949992,None,910.5620013949992,None,,,,,,,,,,,,,,,,,,,,,,,,,,,,,,,,,,,,,,,,,,,,001,37,2020_Jan_30_1205,spring_faces,3.1.5,60.061638256041476,
condition files/Stage2_2.xlsx,,T6,B6,r,"['s', 'r']","['Stratego', 'Risk']","[-0.15, 0.5]","[0.15, 0.5]",1,1,,,,,,,,,,,,,,,,,0,3,3,3,0,2,2,1,,,,,,,,,,,,,,,,,,,,,,,,,,,,,,,,,,,,,,,,,,,,,,,912.5259195079998,None,912.5259195079998,None,912.5259195079998,None,r,1,1.34311001199967,914.0761458489997,None,914.0761458489997,None,914.0761458489997,None,915.4929338749989,None,915.4929338749989,None,915.4929338749989,None,915.4929338749989,None,,,,,,,,,,,,,,,,,,,,,,,,,,,,,,,,,,,,,,,,,,,,001,37,2020_Jan_30_1205,spring_faces,3.1.5,60.061638256041476,
condition files/Stage2_2.xlsx,,B3,T3,s,"['s', 'r']","['Stratego', 'Risk']","[-0.15, 0.5]","[0.15, 0.5]",1,1,,,,,,,,,,,,,,,,,0,3,3,3,0,3,3,4,,,,,,,,,,,,,,,,,,,,,,,,,,,,,,,,,,,,,,,,,,,,,,,917.4424936919986,None,917.4424936919986,None,917.4424936919986,None,s,1,1.4025239900001907,918.9927788019995,None,918.9927788019995,None,918.9927788019995,None,920.4762072579997,None,920.4762072579997,None,920.4762072579997,None,920.4762072579997,None,,,,,,,,,,,,,,,,,,,,,,,,,,,,,,,,,,,,,,,,,,,,001,37,2020_Jan_30_1205,spring_faces,3.1.5,60.061638256041476,
condition files/Stage2_2.xlsx,,T4,B4,r,"['s', 'r']","['Stratego', 'Risk']","[-0.15, 0.5]","[0.15, 0.5]",1,1,,,,,,,,,,,,,,,,,0,3,3,3,0,4,4,5,,,,,,,,,,,,,,,,,,,,,,,,,,,,,,,,,,,,,,,,,,,,,,,922.425925644,None,922.425925644,None,922.425925644,None,r,1,0.994947373001196,923.9603757059995,None,923.9603757059995,None,923.9603757059995,None,925.010559254999,None,925.010559254999,None,925.010559254999,None,925.010559254999,None,,,,,,,,,,,,,,,,,,,,,,,,,,,,,,,,,,,,,,,,,,,,001,37,2020_Jan_30_1205,spring_faces,3.1.5,60.061638256041476,
condition files/Stage2_2.xlsx,,B5,T5,s,"['s', 'r']","['Stratego', 'Risk']","[-0.15, 0.5]","[0.15, 0.5]",1,1,,,,,,,,,,,,,,,,,0,3,3,3,0,5,5,0,,,,,,,,,,,,,,,,,,,,,,,,,,,,,,,,,,,,,,,,,,,,,,,926.9759284209995,None,926.9759284209995,None,926.9759284209995,None,r,0,0.7165523100011342,928.5107098199987,None,928.5107098199987,None,928.5107098199987,None,929.3094552049988,None,929.3094552049988,None,929.3094552049988,None,929.3094552049988,None,,,,,,,,,,,,,,,,,,,,,,,,,,,,,,,,,,,,,,,,,,,,001,37,2020_Jan_30_1205,spring_faces,3.1.5,60.061638256041476,
condition files/Stage2_1.xlsx,,T3,B3,s,"['s', 'r']","['Stratego', 'Risk']","[-0.15, 0.5]","[0.15, 0.5]",1,1,,,,,,,,,,,,,,,,,0,4,4,4,0,0,0,4,,,,,,,,,,,,,,,,,,,,,,,,,,,,,,,,,,,,,,,,,,,,,,,931.2760993079992,None,931.2760993079992,None,931.2760993079992,None,s,1,1.231594403998315,932.811683558999,None,932.811683558999,None,932.811683558999,None,934.1097208579995,None,934.1097208579995,None,934.1097208579995,None,934.1097208579995,None,,,,,,,,,,,,,,,,,,,,,,,,,,,,,,,,,,,,,,,,,,,,001,37,2020_Jan_30_1205,spring_faces,3.1.5,60.061638256041476,
condition files/Stage2_1.xlsx,,B2,T2,r,"['s', 'r']","['Stratego', 'Risk']","[-0.15, 0.5]","[0.15, 0.5]",1,1,,,,,,,,,,,,,,,,,0,4,4,4,0,1,1,3,,,,,,,,,,,,,,,,,,,,,,,,,,,,,,,,,,,,,,,,,,,,,,,936.0751633289983,None,936.0751633289983,None,936.0751633289983,None,r,1,1.1851760869994905,937.6260810889999,None,937.6260810889999,None,937.6260810889999,None,938.8929231399998,None,938.8929231399998,None,938.8929231399998,None,938.8929231399998,None,,,,,,,,,,,,,,,,,,,,,,,,,,,,,,,,,,,,,,,,,,,,001,37,2020_Jan_30_1205,spring_faces,3.1.5,60.061638256041476,
condition files/Stage2_1.xlsx,,T5,B5,s,"['s', 'r']","['Stratego', 'Risk']","[-0.15, 0.5]","[0.15, 0.5]",1,1,,,,,,,,,,,,,,,,,0,4,4,4,0,2,2,0,,,,,,,,,,,,,,,,,,,,,,,,,,,,,,,,,,,,,,,,,,,,,,,940.8426409859985,None,940.8426409859985,None,940.8426409859985,None,s,1,1.4904188829987106,942.3769754339992,None,942.3769754339992,None,942.3769754339992,None,943.9427635749998,None,943.9427635749998,None,943.9427635749998,None,943.9427635749998,None,,,,,,,,,,,,,,,,,,,,,,,,,,,,,,,,,,,,,,,,,,,,001,37,2020_Jan_30_1205,spring_faces,3.1.5,60.061638256041476,
condition files/Stage2_1.xlsx,,T1,B1,s,"['s', 'r']","['Stratego', 'Risk']","[-0.15, 0.5]","[0.15, 0.5]",1,1,,,,,,,,,,,,,,,,,0,4,4,4,0,3,3,2,,,,,,,,,,,,,,,,,,,,,,,,,,,,,,,,,,,,,,,,,,,,,,,945.8922662009991,None,945.8922662009991,None,945.8922662009991,None,s,1,1.7356971139997768,947.4276253619992,None,947.4276253619992,None,947.4276253619992,None,949.2258677029986,None,949.2258677029986,None,949.2258677029986,None,949.2258677029986,None,,,,,,,,,,,,,,,,,,,,,,,,,,,,,,,,,,,,,,,,,,,,001,37,2020_Jan_30_1205,spring_faces,3.1.5,60.061638256041476,
