condsFile,subStage,cue1,cue2,correct,responseKeys,responseNames,cue1Position,cue2Position,cue1Opacity,cue2Opacity,stageLoop0.thisRepN,stageLoop0.thisTrialN,stageLoop0.thisN,stageLoop0.thisIndex,blockLoop0.thisRepN,blockLoop0.thisTrialN,blockLoop0.thisN,blockLoop0.thisIndex,stage1Loop.thisRepN,stage1Loop.thisTrialN,stage1Loop.thisN,stage1Loop.thisIndex,blockLoop1.thisRepN,blockLoop1.thisTrialN,blockLoop1.thisN,blockLoop1.thisIndex,stage2Loop.thisRepN,stage2Loop.thisTrialN,stage2Loop.thisN,stage2Loop.thisIndex,blockLoop2.thisRepN,blockLoop2.thisTrialN,blockLoop2.thisN,blockLoop2.thisIndex,testLoop.thisRepN,testLoop.thisTrialN,testLoop.thisN,testLoop.thisIndex,blockLoopTest.thisRepN,blockLoopTest.thisTrialN,blockLoopTest.thisN,blockLoopTest.thisIndex,cuePics,id_instr_text.started,id_instr_text.stopped,space_to_continue_2.started,space_to_continue_2.stopped,end_instructions_resp_3.keys,end_instructions_resp_3.rt,end_instructions_resp_3.started,end_instructions_resp_3.stopped,id_input_instr.started,id_input_instr.stopped,id_input_rect.started,id_input_rect.stopped,id_input_resp.keys,id_input_resp.rt,id_input_resp.started,id_input_resp.stopped,sonaID,id_input_text.started,id_input_text.stopped,final_text.started,final_text.stopped,instructions.started,instructions.stopped,end_instructions_resp.keys,end_instructions_resp.rt,end_instructions_resp.started,end_instructions_resp.stopped,space_to_continue.started,space_to_continue.stopped,instructions_stage0.started,instructions_stage0.stopped,end_instructions_resp_stage0.keys,end_instructions_resp_stage0.rt,end_instructions_resp_stage0.started,end_instructions_resp_stage0.stopped,space_to_continue_stage0.started,space_to_continue_stage0.stopped,text.started,text.stopped,resp_text1.started,resp_text1.stopped,resp_text2.started,resp_text2.stopped,trial_resp.keys,trial_resp.corr,trial_resp.rt,trial_resp.started,trial_resp.stopped,cue1Image.started,cue1Image.stopped,cue2Image.started,cue2Image.stopped,cue1Image_fb.started,cue1Image_fb.stopped,cue2Image_fb.started,cue2Image_fb.stopped,fb_text_answer.started,fb_text_answer.stopped,feedback_image.started,feedback_image.stopped,instructions_stage1.started,instructions_stage1.stopped,end_instructions_resp_stage1.keys,end_instructions_resp_stage1.rt,end_instructions_resp_stage1.started,end_instructions_resp_stage1.stopped,space_to_continue_stage1.started,space_to_continue_stage1.stopped,instructions_2.started,instructions_2.stopped,end_instructions_resp_2.keys,end_instructions_resp_2.rt,end_instructions_resp_2.started,end_instructions_resp_2.stopped,press_space_to_continue_stage2.started,press_space_to_continue_stage2.stopped,instructions_testStage1.started,instructions_testStage1.stopped,end_instructions_resp_test1.keys,end_instructions_resp_test1.rt,end_instructions_resp_test1.started,end_instructions_resp_test1.stopped,press_space_to_continue_test1.started,press_space_to_continue_test1.stopped,cue1Image_testChoice.started,cue1Image_testChoice.stopped,cue2Image_testChoice.started,cue2Image_testChoice.stopped,test_resp.keys,test_resp.corr,test_resp.rt,test_resp.started,test_resp.stopped,cue1Image_testConf.started,cue1Image_testConf.stopped,cue2Image_testConf.started,cue2Image_testConf.stopped,conf_reminder.started,conf_reminder.stopped,conf_rating.response,conf_rating.rt,conf_rating.started,conf_rating.stopped,session,participant,date,expName,psychopyVersion,frameRate,
,,,,,,,,,,,,,,,,,,,,,,,,,,,,,,,,,,,,,,,,,,,"{'none': 'pictures/20M_AN_C.png', 'alpha': 'pictures/SHINEd_melon.png', 'beta': 'pictures/SHINEd_pear.png', 'theta': 'pictures/SHINEd_apple.png', 'phi': 'pictures/SHINEd_pepper.png', 'T1': 'pictures/38M_AN_C.png', 'T2': 'pictures/37M_AN_C.png', 'T3': 'pictures/25M_AN_C.png', 'T4': 'pictures/31M_AN_C.png', 'T5': 'pictures/33M_AN_C.png', 'T6': 'pictures/32M_AN_C.png', 'B1': 'pictures/20M_NE_C.png', 'B2': 'pictures/34M_NE_C.png', 'B3': 'pictures/36M_NE_C.png', 'B4': 'pictures/26M_NE_C.png', 'B5': 'pictures/23M_NE_C.png', 'B6': 'pictures/22M_NE_C.png'}",15.806933760999527,None,20.789969499001018,None,space,115.41731667400018,20.789969499001018,None,,,,,,,,,,,,,,,,,,,,,,,,,,,,,,,,,,,,,,,,,,,,,,,,,,,,,,,,,,,,,,,,,,,,,,,,,,,,,,,,,,,,,,,,,,,,,,,,001,42,2020_Jan_30_1324,spring_faces,3.1.5,60.02693564592292,
,,,,,,,,,,,,,,,,,,,,,,,,,,,,,,,,,,,,,,,,,,,,,,,,,,,,136.59004513200125,None,136.59004513200125,None,"['backspace', 'backspace', 'backspace', 'd', 'backspace', '0', '7', '0', '2', 'd', 'i', 'g', 'o', 'l']","[12.049295347002044, 12.241318045002117, 12.38521424999999, 25.36124466000183, 27.009354649999295, 30.09719790300005, 30.40122976800194, 31.025325312999485, 31.297248455000954, 35.12128780900093, 35.63329439100198, 39.50528933199894, 39.66529014900152, 39.87328331599929]",136.59004513200125,None,,,,,,,,,,,,,,,,,,,,,,,,,,,,,,,,,,,,,,,,,,,,,,,,,,,,,,,,,,,,,,,,,,,,,,,,,,,,,,,,,,,,,,,,001,42,2020_Jan_30_1324,spring_faces,3.1.5,60.02693564592292,
,,,,,,,,,,,,,,,,,,,,,,,,,,,,,,,,,,,,,,,,,,,,,,,,,,,,,,,,,,,,0702digol,136.59004513200125,None,136.59004513200125,None,181.54025651700067,None,space,5.123456334000366,186.539934755001,None,,,,,,,,,,,,,,,,,,,,,,,,,,,,,,,,,,,,,,,,,,,,,,,,,,,,,,,,,,,,,,,,,,,,,,,,,,,,,001,42,2020_Jan_30_1324,spring_faces,3.1.5,60.02693564592292,
,,,,,,,,,,,,,,,,,,,,,,,,,,,,,,,,,,,,,,,,,,,,,,,,,,,,,,,,,,,,,,,,,,,,,,,186.539934755001,None,191.70640154300054,None,space,4.732558391999191,196.70679993500016,None,,,,,,,,,,,,,,,,,,,,,,,,,,,,,,,,,,,,,,,,,,,,,,,,,,,,,,,,,,,,,,,,,,,,,001,42,2020_Jan_30_1324,spring_faces,3.1.5,60.02693564592292,
condition files/Stage0a.xlsx,0a,alpha,none,h,"['h', 'g']","['Chess', 'Go']","[0, 0.5]","[0, 0]",1,0,0,0,0,0,0,0,0,0,,,,,,,,,,,,,,,,,,,,,,,,,,,,,,,,,,,,,,,,,,,,,,,,,,,,,,,,,,,,,196.70679993500016,None,201.49019282800145,None,201.49019282800145,None,201.49019282800145,None,g,0,2.6699024369991093,203.07345076300044,None,203.07345076300044,None,203.07345076300044,None,205.82328708400019,None,205.82328708400019,None,205.82328708400019,None,205.82328708400019,None,,,,,,,,,,,,,,,,,,,,,,,,,,,,,,,,,,,,,,,,,,,,001,42,2020_Jan_30_1324,spring_faces,3.1.5,60.02693564592292,
condition files/Stage0a.xlsx,0a,beta,none,g,"['h', 'g']","['Chess', 'Go']","[0, 0.5]","[0, 0]",1,0,0,0,0,0,0,1,1,1,,,,,,,,,,,,,,,,,,,,,,,,,,,,,,,,,,,,,,,,,,,,,,,,,,,,,,,,,,,,,,,207.7732659650028,None,207.7732659650028,None,207.7732659650028,None,g,1,1.2993854899978032,209.30790846200034,None,209.30790846200034,None,209.30790846200034,None,210.67318599800274,None,210.67318599800274,None,210.67318599800274,None,210.67318599800274,None,,,,,,,,,,,,,,,,,,,,,,,,,,,,,,,,,,,,,,,,,,,,001,42,2020_Jan_30_1324,spring_faces,3.1.5,60.02693564592292,
condition files/Stage0a.xlsx,0a,alpha,none,h,"['h', 'g']","['Chess', 'Go']","[0, 0.5]","[0, 0]",1,0,0,1,1,1,0,0,0,0,,,,,,,,,,,,,,,,,,,,,,,,,,,,,,,,,,,,,,,,,,,,,,,,,,,,,,,,,,,,,,,212.6569744970002,None,212.6569744970002,None,212.6569744970002,None,h,1,1.1370469520006736,214.19029937100277,None,214.19029937100277,None,214.19029937100277,None,215.3899366700025,None,215.3899366700025,None,215.3899366700025,None,215.3899366700025,None,,,,,,,,,,,,,,,,,,,,,,,,,,,,,,,,,,,,,,,,,,,,001,42,2020_Jan_30_1324,spring_faces,3.1.5,60.02693564592292,
condition files/Stage0a.xlsx,0a,beta,none,g,"['h', 'g']","['Chess', 'Go']","[0, 0.5]","[0, 0]",1,0,0,1,1,1,0,1,1,1,,,,,,,,,,,,,,,,,,,,,,,,,,,,,,,,,,,,,,,,,,,,,,,,,,,,,,,,,,,,,,,217.35650346900002,None,217.35650346900002,None,217.35650346900002,None,g,1,0.8049551510011952,218.8903728030018,None,218.8903728030018,None,218.8903728030018,None,219.75662068600286,None,219.75662068600286,None,219.75662068600286,None,219.75662068600286,None,,,,,,,,,,,,,,,,,,,,,,,,,,,,,,,,,,,,,,,,,,,,001,42,2020_Jan_30_1324,spring_faces,3.1.5,60.02693564592292,
condition files/Stage0a.xlsx,0a,alpha,none,h,"['h', 'g']","['Chess', 'Go']","[0, 0.5]","[0, 0]",1,0,0,2,2,2,0,0,0,0,,,,,,,,,,,,,,,,,,,,,,,,,,,,,,,,,,,,,,,,,,,,,,,,,,,,,,,,,,,,,,,221.74049682600162,None,221.74049682600162,None,221.74049682600162,None,h,1,0.5977369840002211,223.2735843900009,None,223.2735843900009,None,223.2735843900009,None,223.92327509000097,None,223.92327509000097,None,223.92327509000097,None,223.92327509000097,None,,,,,,,,,,,,,,,,,,,,,,,,,,,,,,,,,,,,,,,,,,,,001,42,2020_Jan_30_1324,spring_faces,3.1.5,60.02693564592292,
condition files/Stage0a.xlsx,0a,beta,none,g,"['h', 'g']","['Chess', 'Go']","[0, 0.5]","[0, 0]",1,0,0,2,2,2,0,1,1,1,,,,,,,,,,,,,,,,,,,,,,,,,,,,,,,,,,,,,,,,,,,,,,,,,,,,,,,,,,,,,,,225.88992632699956,None,225.88992632699956,None,225.88992632699956,None,g,1,0.7838860569972894,227.42338789600035,None,227.42338789600035,None,227.42338789600035,None,228.27364047599985,None,228.27364047599985,None,228.27364047599985,None,228.27364047599985,None,,,,,,,,,,,,,,,,,,,,,,,,,,,,,,,,,,,,,,,,,,,,001,42,2020_Jan_30_1324,spring_faces,3.1.5,60.02693564592292,
condition files/Stage0a.xlsx,0a,alpha,none,h,"['h', 'g']","['Chess', 'Go']","[0, 0.5]","[0, 0]",1,0,0,3,3,3,0,0,0,0,,,,,,,,,,,,,,,,,,,,,,,,,,,,,,,,,,,,,,,,,,,,,,,,,,,,,,,,,,,,,,,230.25701423800274,None,230.25701423800274,None,230.25701423800274,None,h,1,0.6098335049973684,231.7895506519999,None,231.7895506519999,None,231.7895506519999,None,232.45628829999987,None,232.45628829999987,None,232.45628829999987,None,232.45628829999987,None,,,,,,,,,,,,,,,,,,,,,,,,,,,,,,,,,,,,,,,,,,,,001,42,2020_Jan_30_1324,spring_faces,3.1.5,60.02693564592292,
condition files/Stage0a.xlsx,0a,beta,none,g,"['h', 'g']","['Chess', 'Go']","[0, 0.5]","[0, 0]",1,0,0,3,3,3,0,1,1,1,,,,,,,,,,,,,,,,,,,,,,,,,,,,,,,,,,,,,,,,,,,,,,,,,,,,,,,,,,,,,,,234.4232342940013,None,234.4232342940013,None,234.4232342940013,None,g,1,0.5062483089968737,235.95704072300214,None,235.95704072300214,None,235.95704072300214,None,236.523290825,None,236.523290825,None,236.523290825,None,236.523290825,None,,,,,,,,,,,,,,,,,,,,,,,,,,,,,,,,,,,,,,,,,,,,001,42,2020_Jan_30_1324,spring_faces,3.1.5,60.02693564592292,
condition files/Stage0a.xlsx,0a,beta,none,g,"['h', 'g']","['Chess', 'Go']","[0, 0.5]","[0, 0]",1,0,0,4,4,4,0,0,0,1,,,,,,,,,,,,,,,,,,,,,,,,,,,,,,,,,,,,,,,,,,,,,,,,,,,,,,,,,,,,,,,238.50705554500018,None,238.50705554500018,None,238.50705554500018,None,g,1,0.7757001270001638,240.03965699200126,None,240.03965699200126,None,240.03965699200126,None,240.87301490100072,None,240.87301490100072,None,240.87301490100072,None,240.87301490100072,None,,,,,,,,,,,,,,,,,,,,,,,,,,,,,,,,,,,,,,,,,,,,001,42,2020_Jan_30_1324,spring_faces,3.1.5,60.02693564592292,
condition files/Stage0a.xlsx,0a,alpha,none,h,"['h', 'g']","['Chess', 'Go']","[0, 0.5]","[0, 0]",1,0,0,4,4,4,0,1,1,0,,,,,,,,,,,,,,,,,,,,,,,,,,,,,,,,,,,,,,,,,,,,,,,,,,,,,,,,,,,,,,,242.84016561300086,None,242.84016561300086,None,242.84016561300086,None,h,1,0.5696058430003177,244.37373250300152,None,244.37373250300152,None,244.37373250300152,None,245.00644094000018,None,245.00644094000018,None,245.00644094000018,None,245.00644094000018,None,,,,,,,,,,,,,,,,,,,,,,,,,,,,,,,,,,,,,,,,,,,,001,42,2020_Jan_30_1324,spring_faces,3.1.5,60.02693564592292,
condition files/Stage0a.xlsx,0a,alpha,none,h,"['h', 'g']","['Chess', 'Go']","[0, 0.5]","[0, 0]",1,0,0,5,5,5,0,0,0,0,,,,,,,,,,,,,,,,,,,,,,,,,,,,,,,,,,,,,,,,,,,,,,,,,,,,,,,,,,,,,,,246.99069326500103,None,246.99069326500103,None,246.99069326500103,None,h,1,0.5478173189985682,248.52350122700227,None,248.52350122700227,None,248.52350122700227,None,249.1232449440031,None,249.1232449440031,None,249.1232449440031,None,249.1232449440031,None,,,,,,,,,,,,,,,,,,,,,,,,,,,,,,,,,,,,,,,,,,,,001,42,2020_Jan_30_1324,spring_faces,3.1.5,60.02693564592292,
condition files/Stage0a.xlsx,0a,beta,none,g,"['h', 'g']","['Chess', 'Go']","[0, 0.5]","[0, 0]",1,0,0,5,5,5,0,1,1,1,,,,,,,,,,,,,,,,,,,,,,,,,,,,,,,,,,,,,,,,,,,,,,,,,,,,,,,,,,,,,,,251.0898832660023,None,251.0898832660023,None,251.0898832660023,None,g,1,0.5120999120008491,252.62318317500103,None,252.62318317500103,None,252.62318317500103,None,253.1898128339999,None,253.1898128339999,None,253.1898128339999,None,253.1898128339999,None,,,,,,,,,,,,,,,,,,,,,,,,,,,,,,,,,,,,,,,,,,,,001,42,2020_Jan_30_1324,spring_faces,3.1.5,60.02693564592292,
condition files/Stage0b_1.xlsx,0b,none,beta,g,"['h', 'g']","['Chess', 'Go']","[-0.15, 0.5]","[0.15, 0.5]",0,1,0,6,6,6,0,0,0,1,,,,,,,,,,,,,,,,,,,,,,,,,,,,,,,,,,,,,,,,,,,,,,,,,,,,,,,,,,,,,,,255.1737255400003,None,255.1737255400003,None,255.1737255400003,None,g,1,0.6035433630022453,256.7237989640016,None,256.7237989640016,None,256.7237989640016,None,257.3916616830029,None,257.3916616830029,None,257.3916616830029,None,257.3916616830029,None,,,,,,,,,,,,,,,,,,,,,,,,,,,,,,,,,,,,,,,,,,,,001,42,2020_Jan_30_1324,spring_faces,3.1.5,60.02693564592292,
condition files/Stage0b_1.xlsx,0b,alpha,none,h,"['h', 'g']","['Chess', 'Go']","[-0.15, 0.5]","[0.15, 0.5]",1,0,0,6,6,6,0,1,1,0,,,,,,,,,,,,,,,,,,,,,,,,,,,,,,,,,,,,,,,,,,,,,,,,,,,,,,,,,,,,,,,259.356373679002,None,259.356373679002,None,259.356373679002,None,h,1,0.35523597199789947,260.89213918300084,None,260.89213918300084,None,260.89213918300084,None,261.3082487089996,None,261.3082487089996,None,261.3082487089996,None,261.3082487089996,None,,,,,,,,,,,,,,,,,,,,,,,,,,,,,,,,,,,,,,,,,,,,001,42,2020_Jan_30_1324,spring_faces,3.1.5,60.02693564592292,
condition files/Stage0b_2.xlsx,0b,none,alpha,h,"['h', 'g']","['Chess', 'Go']","[-0.15, 0.5]","[0.15, 0.5]",0,1,0,7,7,7,0,0,0,0,,,,,,,,,,,,,,,,,,,,,,,,,,,,,,,,,,,,,,,,,,,,,,,,,,,,,,,,,,,,,,,263.2902549270002,None,263.2902549270002,None,263.2902549270002,None,h,1,0.32513499300330295,264.82617966100224,None,264.82617966100224,None,264.82617966100224,None,265.20672688500053,None,265.20672688500053,None,265.20672688500053,None,265.20672688500053,None,,,,,,,,,,,,,,,,,,,,,,,,,,,,,,,,,,,,,,,,,,,,001,42,2020_Jan_30_1324,spring_faces,3.1.5,60.02693564592292,
condition files/Stage0b_2.xlsx,0b,beta,none,g,"['h', 'g']","['Chess', 'Go']","[-0.15, 0.5]","[0.15, 0.5]",1,0,0,7,7,7,0,1,1,1,,,,,,,,,,,,,,,,,,,,,,,,,,,,,,,,,,,,,,,,,,,,,,,,,,,,,,,,,,,,,,,267.17314082800294,None,267.17314082800294,None,267.17314082800294,None,g,1,0.34496241099986946,268.7103831730019,None,268.7103831730019,None,268.7103831730019,None,269.10751675900246,None,269.10751675900246,None,269.10751675900246,None,269.10751675900246,None,,,,,,,,,,,,,,,,,,,,,,,,,,,,,,,,,,,,,,,,,,,,001,42,2020_Jan_30_1324,spring_faces,3.1.5,60.02693564592292,
condition files/Stage0b_1.xlsx,0b,alpha,none,h,"['h', 'g']","['Chess', 'Go']","[-0.15, 0.5]","[0.15, 0.5]",1,0,0,8,8,8,0,0,0,0,,,,,,,,,,,,,,,,,,,,,,,,,,,,,,,,,,,,,,,,,,,,,,,,,,,,,,,,,,,,,,,271.0900610589997,None,271.0900610589997,None,271.0900610589997,None,h,1,0.5439160620007897,272.62346728000193,None,272.62346728000193,None,272.62346728000193,None,273.22319502400205,None,273.22319502400205,None,273.22319502400205,None,273.22319502400205,None,,,,,,,,,,,,,,,,,,,,,,,,,,,,,,,,,,,,,,,,,,,,001,42,2020_Jan_30_1324,spring_faces,3.1.5,60.02693564592292,
condition files/Stage0b_1.xlsx,0b,none,beta,g,"['h', 'g']","['Chess', 'Go']","[-0.15, 0.5]","[0.15, 0.5]",0,1,0,8,8,8,0,1,1,1,,,,,,,,,,,,,,,,,,,,,,,,,,,,,,,,,,,,,,,,,,,,,,,,,,,,,,,,,,,,,,,275.18976909900084,None,275.18976909900084,None,275.18976909900084,None,g,1,0.35925064099865267,276.7280449530008,None,276.7280449530008,None,276.7280449530008,None,277.14250155300033,None,277.14250155300033,None,277.14250155300033,None,277.14250155300033,None,,,,,,,,,,,,,,,,,,,,,,,,,,,,,,,,,,,,,,,,,,,,001,42,2020_Jan_30_1324,spring_faces,3.1.5,60.02693564592292,
condition files/Stage0b_2.xlsx,0b,beta,none,g,"['h', 'g']","['Chess', 'Go']","[-0.15, 0.5]","[0.15, 0.5]",1,0,0,9,9,9,0,0,0,1,,,,,,,,,,,,,,,,,,,,,,,,,,,,,,,,,,,,,,,,,,,,,,,,,,,,,,,,,,,,,,,279.1233724850026,None,279.1233724850026,None,279.1233724850026,None,g,1,0.4572287180017156,280.6620697710023,None,280.6620697710023,None,280.6620697710023,None,281.1735878319996,None,281.1735878319996,None,281.1735878319996,None,281.1735878319996,None,,,,,,,,,,,,,,,,,,,,,,,,,,,,,,,,,,,,,,,,,,,,001,42,2020_Jan_30_1324,spring_faces,3.1.5,60.02693564592292,
condition files/Stage0b_2.xlsx,0b,none,alpha,h,"['h', 'g']","['Chess', 'Go']","[-0.15, 0.5]","[0.15, 0.5]",0,1,0,9,9,9,0,1,1,0,,,,,,,,,,,,,,,,,,,,,,,,,,,,,,,,,,,,,,,,,,,,,,,,,,,,,,,,,,,,,,,283.1401835940014,None,283.1401835940014,None,283.1401835940014,None,h,1,0.5259955849978724,284.67343461900236,None,284.67343461900236,None,284.67343461900236,None,285.26093052299984,None,285.26093052299984,None,285.26093052299984,None,285.26093052299984,None,,,,,,,,,,,,,,,,,,,,,,,,,,,,,,,,,,,,,,,,,,,,001,42,2020_Jan_30_1324,spring_faces,3.1.5,60.02693564592292,
condition files/Stage0b_1.xlsx,0b,none,beta,g,"['h', 'g']","['Chess', 'Go']","[-0.15, 0.5]","[0.15, 0.5]",0,1,0,10,10,10,0,0,0,1,,,,,,,,,,,,,,,,,,,,,,,,,,,,,,,,,,,,,,,,,,,,,,,,,,,,,,,,,,,,,,,287.2405888800022,None,287.2405888800022,None,287.2405888800022,None,g,1,0.649134553001204,288.774244010001,None,288.774244010001,None,288.774244010001,None,289.4734896150003,None,289.4734896150003,None,289.4734896150003,None,289.4734896150003,None,,,,,,,,,,,,,,,,,,,,,,,,,,,,,,,,,,,,,,,,,,,,001,42,2020_Jan_30_1324,spring_faces,3.1.5,60.02693564592292,
condition files/Stage0b_1.xlsx,0b,alpha,none,h,"['h', 'g']","['Chess', 'Go']","[-0.15, 0.5]","[0.15, 0.5]",1,0,0,10,10,10,0,1,1,0,,,,,,,,,,,,,,,,,,,,,,,,,,,,,,,,,,,,,,,,,,,,,,,,,,,,,,,,,,,,,,,291.4400233390006,None,291.4400233390006,None,291.4400233390006,None,h,1,0.5140142340023885,292.98957941499975,None,292.98957941499975,None,292.98957941499975,None,293.5603971340024,None,293.5603971340024,None,293.5603971340024,None,293.5603971340024,None,,,,,,,,,,,,,,,,,,,,,,,,,,,,,,,,,,,,,,,,,,,,001,42,2020_Jan_30_1324,spring_faces,3.1.5,60.02693564592292,
condition files/Stage0b_2.xlsx,0b,none,alpha,h,"['h', 'g']","['Chess', 'Go']","[-0.15, 0.5]","[0.15, 0.5]",0,1,0,11,11,11,0,0,0,0,,,,,,,,,,,,,,,,,,,,,,,,,,,,,,,,,,,,,,,,,,,,,,,,,,,,,,,,,,,,,,,295.5401451079997,None,295.5401451079997,None,295.5401451079997,None,h,1,0.4745718579979439,297.0767398429998,None,297.0767398429998,None,297.0767398429998,None,297.6066516710016,None,297.6066516710016,None,297.6066516710016,None,297.6066516710016,None,,,,,,,,,,,,,,,,,,,,,,,,,,,,,,,,,,,,,,,,,,,,001,42,2020_Jan_30_1324,spring_faces,3.1.5,60.02693564592292,
condition files/Stage0b_2.xlsx,0b,beta,none,g,"['h', 'g']","['Chess', 'Go']","[-0.15, 0.5]","[0.15, 0.5]",1,0,0,11,11,11,0,1,1,1,,,,,,,,,,,,,,,,,,,,,,,,,,,,,,,,,,,,,,,,,,,,,,,,,,,,,,,,,,,,,,,299.5726158760008,None,299.5726158760008,None,299.5726158760008,None,g,1,0.3773858240019763,301.10993253200286,None,301.10993253200286,None,301.10993253200286,None,301.5409337650017,None,301.5409337650017,None,301.5409337650017,None,301.5409337650017,None,,,,,,,,,,,,,,,,,,,,,,,,,,,,,,,,,,,,,,,,,,,,001,42,2020_Jan_30_1324,spring_faces,3.1.5,60.02693564592292,
condition files/Stage0c_1.xlsx,0c,beta,theta,g,"['h', 'g']","['Chess', 'Go']","[-0.15, 0.5]","[0.15, 0.5]",1,1,0,12,12,12,0,0,0,2,,,,,,,,,,,,,,,,,,,,,,,,,,,,,,,,,,,,,,,,,,,,,,,,,,,,,,,,,,,,,,,303.5235179880001,None,303.5235179880001,None,303.5235179880001,None,g,1,1.327148374002718,305.05622368600234,None,305.05622368600234,None,305.05622368600234,None,306.4401837710029,None,306.4401837710029,None,306.4401837710029,None,306.4401837710029,None,,,,,,,,,,,,,,,,,,,,,,,,,,,,,,,,,,,,,,,,,,,,001,42,2020_Jan_30_1324,spring_faces,3.1.5,60.02693564592292,
condition files/Stage0c_1.xlsx,0c,theta,alpha,h,"['h', 'g']","['Chess', 'Go']","[-0.15, 0.5]","[0.15, 0.5]",1,1,0,12,12,12,0,1,1,0,,,,,,,,,,,,,,,,,,,,,,,,,,,,,,,,,,,,,,,,,,,,,,,,,,,,,,,,,,,,,,,308.4065494170027,None,308.4065494170027,None,308.4065494170027,None,h,1,1.1634749089971592,309.9400544730015,None,309.9400544730015,None,309.9400544730015,None,311.1570739199997,None,311.1570739199997,None,311.1570739199997,None,311.1570739199997,None,,,,,,,,,,,,,,,,,,,,,,,,,,,,,,,,,,,,,,,,,,,,001,42,2020_Jan_30_1324,spring_faces,3.1.5,60.02693564592292,
condition files/Stage0c_1.xlsx,0c,alpha,phi,h,"['h', 'g']","['Chess', 'Go']","[-0.15, 0.5]","[0.15, 0.5]",1,1,0,12,12,12,0,2,2,1,,,,,,,,,,,,,,,,,,,,,,,,,,,,,,,,,,,,,,,,,,,,,,,,,,,,,,,,,,,,,,,313.12266749000264,None,313.12266749000264,None,313.12266749000264,None,h,1,0.5910875560002751,314.65622468400034,None,314.65622468400034,None,314.65622468400034,None,315.3070858070023,None,315.3070858070023,None,315.3070858070023,None,315.3070858070023,None,,,,,,,,,,,,,,,,,,,,,,,,,,,,,,,,,,,,,,,,,,,,001,42,2020_Jan_30_1324,spring_faces,3.1.5,60.02693564592292,
condition files/Stage0c_1.xlsx,0c,phi,beta,g,"['h', 'g']","['Chess', 'Go']","[-0.15, 0.5]","[0.15, 0.5]",1,1,0,12,12,12,0,3,3,3,,,,,,,,,,,,,,,,,,,,,,,,,,,,,,,,,,,,,,,,,,,,,,,,,,,,,,,,,,,,,,,317.2725894180003,None,317.2725894180003,None,317.2725894180003,None,g,1,0.4402706849978131,318.8070635889999,None,318.8070635889999,None,318.8070635889999,None,319.3069132970013,None,319.3069132970013,None,319.3069132970013,None,319.3069132970013,None,,,,,,,,,,,,,,,,,,,,,,,,,,,,,,,,,,,,,,,,,,,,001,42,2020_Jan_30_1324,spring_faces,3.1.5,60.02693564592292,
condition files/Stage0c_2.xlsx,0c,theta,beta,g,"['h', 'g']","['Chess', 'Go']","[-0.15, 0.5]","[0.15, 0.5]",1,1,0,13,13,13,0,0,0,2,,,,,,,,,,,,,,,,,,,,,,,,,,,,,,,,,,,,,,,,,,,,,,,,,,,,,,,,,,,,,,,321.28997755599994,None,321.28997755599994,None,321.28997755599994,None,g,1,0.8557959919999121,322.8235474400026,None,322.8235474400026,None,322.8235474400026,None,323.72357173800265,None,323.72357173800265,None,323.72357173800265,None,323.72357173800265,None,,,,,,,,,,,,,,,,,,,,,,,,,,,,,,,,,,,,,,,,,,,,001,42,2020_Jan_30_1324,spring_faces,3.1.5,60.02693564592292,
condition files/Stage0c_2.xlsx,0c,alpha,theta,h,"['h', 'g']","['Chess', 'Go']","[-0.15, 0.5]","[0.15, 0.5]",1,1,0,13,13,13,0,1,1,0,,,,,,,,,,,,,,,,,,,,,,,,,,,,,,,,,,,,,,,,,,,,,,,,,,,,,,,,,,,,,,,325.7065370490018,None,325.7065370490018,None,325.7065370490018,None,h,1,0.37522881400218466,327.24014066600284,None,327.24014066600284,None,327.24014066600284,None,327.6732751359996,None,327.6732751359996,None,327.6732751359996,None,327.6732751359996,None,,,,,,,,,,,,,,,,,,,,,,,,,,,,,,,,,,,,,,,,,,,,001,42,2020_Jan_30_1324,spring_faces,3.1.5,60.02693564592292,
condition files/Stage0c_2.xlsx,0c,phi,alpha,h,"['h', 'g']","['Chess', 'Go']","[-0.15, 0.5]","[0.15, 0.5]",1,1,0,13,13,13,0,2,2,1,,,,,,,,,,,,,,,,,,,,,,,,,,,,,,,,,,,,,,,,,,,,,,,,,,,,,,,,,,,,,,,329.63952181400236,None,329.63952181400236,None,329.63952181400236,None,h,1,0.6018585560013889,331.1734514630007,None,331.1734514630007,None,331.1734514630007,None,331.82312890200046,None,331.82312890200046,None,331.82312890200046,None,331.82312890200046,None,,,,,,,,,,,,,,,,,,,,,,,,,,,,,,,,,,,,,,,,,,,,001,42,2020_Jan_30_1324,spring_faces,3.1.5,60.02693564592292,
condition files/Stage0c_2.xlsx,0c,beta,phi,g,"['h', 'g']","['Chess', 'Go']","[-0.15, 0.5]","[0.15, 0.5]",1,1,0,13,13,13,0,3,3,3,,,,,,,,,,,,,,,,,,,,,,,,,,,,,,,,,,,,,,,,,,,,,,,,,,,,,,,,,,,,,,,333.80638247500247,None,333.80638247500247,None,333.80638247500247,None,g,1,0.4512546609985293,335.3400241410018,None,335.3400241410018,None,335.3400241410018,None,335.8564951090011,None,335.8564951090011,None,335.8564951090011,None,335.8564951090011,None,,,,,,,,,,,,,,,,,,,,,,,,,,,,,,,,,,,,,,,,,,,,001,42,2020_Jan_30_1324,spring_faces,3.1.5,60.02693564592292,
condition files/Stage0c_1.xlsx,0c,phi,beta,g,"['h', 'g']","['Chess', 'Go']","[-0.15, 0.5]","[0.15, 0.5]",1,1,0,14,14,14,0,0,0,3,,,,,,,,,,,,,,,,,,,,,,,,,,,,,,,,,,,,,,,,,,,,,,,,,,,,,,,,,,,,,,,337.840150449003,None,337.840150449003,None,337.840150449003,None,g,1,0.513866004999727,339.3734485950008,None,339.3734485950008,None,339.3734485950008,None,339.92562105199977,None,339.92562105199977,None,339.92562105199977,None,339.92562105199977,None,,,,,,,,,,,,,,,,,,,,,,,,,,,,,,,,,,,,,,,,,,,,001,42,2020_Jan_30_1324,spring_faces,3.1.5,60.02693564592292,
condition files/Stage0c_1.xlsx,0c,theta,alpha,h,"['h', 'g']","['Chess', 'Go']","[-0.15, 0.5]","[0.15, 0.5]",1,1,0,14,14,14,0,1,1,0,,,,,,,,,,,,,,,,,,,,,,,,,,,,,,,,,,,,,,,,,,,,,,,,,,,,,,,,,,,,,,,341.90581528000257,None,341.90581528000257,None,341.90581528000257,None,h,1,0.36727426199649926,343.4400004190029,None,343.4400004190029,None,343.4400004190029,None,343.8737028800024,None,343.8737028800024,None,343.8737028800024,None,343.8737028800024,None,,,,,,,,,,,,,,,,,,,,,,,,,,,,,,,,,,,,,,,,,,,,001,42,2020_Jan_30_1324,spring_faces,3.1.5,60.02693564592292,
condition files/Stage0c_1.xlsx,0c,beta,theta,g,"['h', 'g']","['Chess', 'Go']","[-0.15, 0.5]","[0.15, 0.5]",1,1,0,14,14,14,0,2,2,2,,,,,,,,,,,,,,,,,,,,,,,,,,,,,,,,,,,,,,,,,,,,,,,,,,,,,,,,,,,,,,,345.84000961100173,None,345.84000961100173,None,345.84000961100173,None,g,1,0.5455629309981305,347.3737437100026,None,347.3737437100026,None,347.3737437100026,None,347.9735895949998,None,347.9735895949998,None,347.9735895949998,None,347.9735895949998,None,,,,,,,,,,,,,,,,,,,,,,,,,,,,,,,,,,,,,,,,,,,,001,42,2020_Jan_30_1324,spring_faces,3.1.5,60.02693564592292,
condition files/Stage0c_1.xlsx,0c,alpha,phi,h,"['h', 'g']","['Chess', 'Go']","[-0.15, 0.5]","[0.15, 0.5]",1,1,0,14,14,14,0,3,3,1,,,,,,,,,,,,,,,,,,,,,,,,,,,,,,,,,,,,,,,,,,,,,,,,,,,,,,,,,,,,,,,349.9566101420023,None,349.9566101420023,None,349.9566101420023,None,h,1,0.6222082399981446,351.4731412180008,None,351.4731412180008,None,351.4731412180008,None,352.15678424,None,352.15678424,None,352.15678424,None,352.15678424,None,,,,,,,,,,,,,,,,,,,,,,,,,,,,,,,,,,,,,,,,,,,,001,42,2020_Jan_30_1324,spring_faces,3.1.5,60.02693564592292,
condition files/Stage0c_2.xlsx,0c,phi,alpha,h,"['h', 'g']","['Chess', 'Go']","[-0.15, 0.5]","[0.15, 0.5]",1,1,0,15,15,15,0,0,0,1,,,,,,,,,,,,,,,,,,,,,,,,,,,,,,,,,,,,,,,,,,,,,,,,,,,,,,,,,,,,,,,354.1400127529996,None,354.1400127529996,None,354.1400127529996,None,h,1,0.9025281869980972,355.65679324099983,None,355.65679324099983,None,355.65679324099983,None,356.60734145800234,None,356.60734145800234,None,356.60734145800234,None,356.60734145800234,None,,,,,,,,,,,,,,,,,,,,,,,,,,,,,,,,,,,,,,,,,,,,001,42,2020_Jan_30_1324,spring_faces,3.1.5,60.02693564592292,
condition files/Stage0c_2.xlsx,0c,beta,phi,g,"['h', 'g']","['Chess', 'Go']","[-0.15, 0.5]","[0.15, 0.5]",1,1,0,15,15,15,0,1,1,3,,,,,,,,,,,,,,,,,,,,,,,,,,,,,,,,,,,,,,,,,,,,,,,,,,,,,,,,,,,,,,,358.5899118570014,None,358.5899118570014,None,358.5899118570014,None,g,1,0.4513598510020529,360.1239361070002,None,360.1239361070002,None,360.1239361070002,None,360.63969145100054,None,360.63969145100054,None,360.63969145100054,None,360.63969145100054,None,,,,,,,,,,,,,,,,,,,,,,,,,,,,,,,,,,,,,,,,,,,,001,42,2020_Jan_30_1324,spring_faces,3.1.5,60.02693564592292,
condition files/Stage0c_2.xlsx,0c,theta,beta,g,"['h', 'g']","['Chess', 'Go']","[-0.15, 0.5]","[0.15, 0.5]",1,1,0,15,15,15,0,2,2,2,,,,,,,,,,,,,,,,,,,,,,,,,,,,,,,,,,,,,,,,,,,,,,,,,,,,,,,,,,,,,,,362.6063499560005,None,362.6063499560005,None,362.6063499560005,None,g,1,0.6270342930001789,364.14034508199984,None,364.14034508199984,None,364.14034508199984,None,364.807827138,None,364.807827138,None,364.807827138,None,364.807827138,None,,,,,,,,,,,,,,,,,,,,,,,,,,,,,,,,,,,,,,,,,,,,001,42,2020_Jan_30_1324,spring_faces,3.1.5,60.02693564592292,
condition files/Stage0c_2.xlsx,0c,alpha,theta,h,"['h', 'g']","['Chess', 'Go']","[-0.15, 0.5]","[0.15, 0.5]",1,1,0,15,15,15,0,3,3,0,,,,,,,,,,,,,,,,,,,,,,,,,,,,,,,,,,,,,,,,,,,,,,,,,,,,,,,,,,,,,,,366.7899611490029,None,366.7899611490029,None,366.7899611490029,None,h,1,0.7319707139977254,368.32336345099975,None,368.32336345099975,None,368.32336345099975,None,369.10674990100233,None,369.10674990100233,None,369.10674990100233,None,369.10674990100233,None,,,,,,,,,,,,,,,,,,,,,,,,,,,,,,,,,,,,,,,,,,,,001,42,2020_Jan_30_1324,spring_faces,3.1.5,60.02693564592292,
condition files/Stage0c_1.xlsx,0c,alpha,phi,h,"['h', 'g']","['Chess', 'Go']","[-0.15, 0.5]","[0.15, 0.5]",1,1,0,16,16,16,0,0,0,1,,,,,,,,,,,,,,,,,,,,,,,,,,,,,,,,,,,,,,,,,,,,,,,,,,,,,,,,,,,,,,,371.0897460790002,None,371.0897460790002,None,371.0897460790002,None,h,1,0.7197024350025458,372.6236259710022,None,372.6236259710022,None,372.6236259710022,None,373.39125193200016,None,373.39125193200016,None,373.39125193200016,None,373.39125193200016,None,,,,,,,,,,,,,,,,,,,,,,,,,,,,,,,,,,,,,,,,,,,,001,42,2020_Jan_30_1324,spring_faces,3.1.5,60.02693564592292,
condition files/Stage0c_1.xlsx,0c,beta,theta,g,"['h', 'g']","['Chess', 'Go']","[-0.15, 0.5]","[0.15, 0.5]",1,1,0,16,16,16,0,1,1,2,,,,,,,,,,,,,,,,,,,,,,,,,,,,,,,,,,,,,,,,,,,,,,,,,,,,,,,,,,,,,,,375.3735021430002,None,375.3735021430002,None,375.3735021430002,None,g,1,0.5643582350021461,376.90696278200267,None,376.90696278200267,None,376.90696278200267,None,377.5229557880011,None,377.5229557880011,None,377.5229557880011,None,377.5229557880011,None,,,,,,,,,,,,,,,,,,,,,,,,,,,,,,,,,,,,,,,,,,,,001,42,2020_Jan_30_1324,spring_faces,3.1.5,60.02693564592292,
condition files/Stage0c_1.xlsx,0c,phi,beta,g,"['h', 'g']","['Chess', 'Go']","[-0.15, 0.5]","[0.15, 0.5]",1,1,0,16,16,16,0,2,2,3,,,,,,,,,,,,,,,,,,,,,,,,,,,,,,,,,,,,,,,,,,,,,,,,,,,,,,,,,,,,,,,379.489901824003,None,379.489901824003,None,379.489901824003,None,g,1,0.8164140799999586,381.022912061002,None,381.022912061002,None,381.022912061002,None,381.87424120000287,None,381.87424120000287,None,381.87424120000287,None,381.87424120000287,None,,,,,,,,,,,,,,,,,,,,,,,,,,,,,,,,,,,,,,,,,,,,001,42,2020_Jan_30_1324,spring_faces,3.1.5,60.02693564592292,
condition files/Stage0c_1.xlsx,0c,theta,alpha,h,"['h', 'g']","['Chess', 'Go']","[-0.15, 0.5]","[0.15, 0.5]",1,1,0,16,16,16,0,3,3,0,,,,,,,,,,,,,,,,,,,,,,,,,,,,,,,,,,,,,,,,,,,,,,,,,,,,,,,,,,,,,,,383.85643514299954,None,383.85643514299954,None,383.85643514299954,None,h,1,0.5290777179980068,385.3901938939998,None,385.3901938939998,None,385.3901938939998,None,385.9740139530004,None,385.9740139530004,None,385.9740139530004,None,385.9740139530004,None,,,,,,,,,,,,,,,,,,,,,,,,,,,,,,,,,,,,,,,,,,,,001,42,2020_Jan_30_1324,spring_faces,3.1.5,60.02693564592292,
condition files/Stage0c_2.xlsx,0c,alpha,theta,h,"['h', 'g']","['Chess', 'Go']","[-0.15, 0.5]","[0.15, 0.5]",1,1,0,17,17,17,0,0,0,0,,,,,,,,,,,,,,,,,,,,,,,,,,,,,,,,,,,,,,,,,,,,,,,,,,,,,,,,,,,,,,,387.95695177200105,None,387.95695177200105,None,387.95695177200105,None,h,1,0.4937913360008679,389.48957427999994,None,389.48957427999994,None,389.48957427999994,None,390.02475471599973,None,390.02475471599973,None,390.02475471599973,None,390.02475471599973,None,,,,,,,,,,,,,,,,,,,,,,,,,,,,,,,,,,,,,,,,,,,,001,42,2020_Jan_30_1324,spring_faces,3.1.5,60.02693564592292,
condition files/Stage0c_2.xlsx,0c,beta,phi,g,"['h', 'g']","['Chess', 'Go']","[-0.15, 0.5]","[0.15, 0.5]",1,1,0,17,17,17,0,1,1,3,,,,,,,,,,,,,,,,,,,,,,,,,,,,,,,,,,,,,,,,,,,,,,,,,,,,,,,,,,,,,,,392.0063396960031,None,392.0063396960031,None,392.0063396960031,None,g,1,0.6031236070011801,393.54014145900146,None,393.54014145900146,None,393.54014145900146,None,394.2069888730002,None,394.2069888730002,None,394.2069888730002,None,394.2069888730002,None,,,,,,,,,,,,,,,,,,,,,,,,,,,,,,,,,,,,,,,,,,,,001,42,2020_Jan_30_1324,spring_faces,3.1.5,60.02693564592292,
condition files/Stage0c_2.xlsx,0c,phi,alpha,h,"['h', 'g']","['Chess', 'Go']","[-0.15, 0.5]","[0.15, 0.5]",1,1,0,17,17,17,0,2,2,1,,,,,,,,,,,,,,,,,,,,,,,,,,,,,,,,,,,,,,,,,,,,,,,,,,,,,,,,,,,,,,,396.173264027002,None,396.173264027002,None,396.173264027002,None,h,1,0.37307857000268996,397.70625267500145,None,397.70625267500145,None,397.70625267500145,None,398.1398632870005,None,398.1398632870005,None,398.1398632870005,None,398.1398632870005,None,,,,,,,,,,,,,,,,,,,,,,,,,,,,,,,,,,,,,,,,,,,,001,42,2020_Jan_30_1324,spring_faces,3.1.5,60.02693564592292,
condition files/Stage0c_2.xlsx,0c,theta,beta,g,"['h', 'g']","['Chess', 'Go']","[-0.15, 0.5]","[0.15, 0.5]",1,1,0,17,17,17,0,3,3,2,,,,,,,,,,,,,,,,,,,,,,,,,,,,,,,,,,,,,,,,,,,,,,,,,,,,,,,,,,,,,,,400.10660274100155,None,400.10660274100155,None,400.10660274100155,None,g,1,0.5677991490010754,401.6394745860016,None,401.6394745860016,None,401.6394745860016,None,402.27377913500095,None,402.27377913500095,None,402.27377913500095,None,402.27377913500095,None,,,,,,,,,,,,,,,,,,,,,,,,,,,,,,,,,,,,,,,,,,,,001,42,2020_Jan_30_1324,spring_faces,3.1.5,60.02693564592292,
,,,,,,,,,,,,,,,,,,,,,,,,,,,,,,,,,,,,,,,,,,,,,,,,,,,,,,,,,,,,,,,,,,,,,,,,,,,,,,,,,,,,,,,,,,,,,,,,,,,,,,,,404.2565270430023,None,space,2.7747927620002883,409.2566061010002,None,,,,,,,,,,,,,,,,,,,,,,,,,,,,,,,,,,,,,,001,42,2020_Jan_30_1324,spring_faces,3.1.5,60.02693564592292,
condition files/Stage1_1.xlsx,,T4,B3,m,"['c', 'm']","['Clue', 'Monopoly']","[-0.15, 0.5]","[0.15, 0.5]",1,1,,,,,,,,,0,0,0,0,0,0,0,6,,,,,,,,,,,,,,,,,,,,,,,,,,,,,,,,,,,,,,,,,,,,,,,,,,,,,,,412.0894658979996,None,412.0894658979996,None,412.0894658979996,None,c,0,1.4958189259996288,413.62351586800287,None,413.62351586800287,None,413.62351586800287,None,415.19003443600013,None,415.19003443600013,None,415.19003443600013,None,415.19003443600013,None,,,,,,,409.2566061010002,None,,,,,,,,,,,,,,,,,,,,,,,,,,,,,,,,,,,,001,42,2020_Jan_30_1324,spring_faces,3.1.5,60.02693564592292,
condition files/Stage1_1.xlsx,,T2,B2,m,"['c', 'm']","['Clue', 'Monopoly']","[-0.15, 0.5]","[0.15, 0.5]",1,1,,,,,,,,,0,0,0,0,0,1,1,3,,,,,,,,,,,,,,,,,,,,,,,,,,,,,,,,,,,,,,,,,,,,,,,,,,,,,,,417.13918908599953,None,417.13918908599953,None,417.13918908599953,None,c,0,1.3740437900014513,418.67333863500244,None,418.67333863500244,None,418.67333863500244,None,420.10680416499963,None,420.10680416499963,None,420.10680416499963,None,420.10680416499963,None,,,,,,,,,,,,,,,,,,,,,,,,,,,,,,,,,,,,,,,,,,,,001,42,2020_Jan_30_1324,spring_faces,3.1.5,60.02693564592292,
condition files/Stage1_1.xlsx,,T1,B1,c,"['c', 'm']","['Clue', 'Monopoly']","[-0.15, 0.5]","[0.15, 0.5]",1,1,,,,,,,,,0,0,0,0,0,2,2,0,,,,,,,,,,,,,,,,,,,,,,,,,,,,,,,,,,,,,,,,,,,,,,,,,,,,,,,422.073251607002,None,422.073251607002,None,422.073251607002,None,c,1,1.1612449800013565,423.6061456730022,None,423.6061456730022,None,423.6061456730022,None,424.8262134800025,None,424.8262134800025,None,424.8262134800025,None,424.8262134800025,None,,,,,,,,,,,,,,,,,,,,,,,,,,,,,,,,,,,,,,,,,,,,001,42,2020_Jan_30_1324,spring_faces,3.1.5,60.02693564592292,
condition files/Stage1_1.xlsx,,B3,T3,c,"['c', 'm']","['Clue', 'Monopoly']","[-0.15, 0.5]","[0.15, 0.5]",1,1,,,,,,,,,0,0,0,0,0,3,3,4,,,,,,,,,,,,,,,,,,,,,,,,,,,,,,,,,,,,,,,,,,,,,,,,,,,,,,,426.79003100400223,None,426.79003100400223,None,426.79003100400223,None,m,0,1.1151241600018693,428.3242379600015,None,428.3242379600015,None,428.3242379600015,None,429.4904512650028,None,429.4904512650028,None,429.4904512650028,None,429.4904512650028,None,,,,,,,,,,,,,,,,,,,,,,,,,,,,,,,,,,,,,,,,,,,,001,42,2020_Jan_30_1324,spring_faces,3.1.5,60.02693564592292,
condition files/Stage1_1.xlsx,,B4,T4,m,"['c', 'm']","['Clue', 'Monopoly']","[-0.15, 0.5]","[0.15, 0.5]",1,1,,,,,,,,,0,0,0,0,0,4,4,7,,,,,,,,,,,,,,,,,,,,,,,,,,,,,,,,,,,,,,,,,,,,,,,,,,,,,,,431.4569613620006,None,431.4569613620006,None,431.4569613620006,None,m,1,1.6324353279997013,433.0069118140018,None,433.0069118140018,None,433.0069118140018,None,434.7068478470028,None,434.7068478470028,None,434.7068478470028,None,434.7068478470028,None,,,,,,,,,,,,,,,,,,,,,,,,,,,,,,,,,,,,,,,,,,,,001,42,2020_Jan_30_1324,spring_faces,3.1.5,60.02693564592292,
condition files/Stage1_1.xlsx,,B1,T2,c,"['c', 'm']","['Clue', 'Monopoly']","[-0.15, 0.5]","[0.15, 0.5]",1,1,,,,,,,,,0,0,0,0,0,5,5,1,,,,,,,,,,,,,,,,,,,,,,,,,,,,,,,,,,,,,,,,,,,,,,,,,,,,,,,436.65665678200094,None,436.65665678200094,None,436.65665678200094,None,m,0,1.3931834819995856,438.1901851319999,None,438.1901851319999,None,438.1901851319999,None,439.6419512320026,None,439.6419512320026,None,439.6419512320026,None,439.6419512320026,None,,,,,,,,,,,,,,,,,,,,,,,,,,,,,,,,,,,,,,,,,,,,001,42,2020_Jan_30_1324,spring_faces,3.1.5,60.02693564592292,
condition files/Stage1_1.xlsx,,T3,B4,c,"['c', 'm']","['Clue', 'Monopoly']","[-0.15, 0.5]","[0.15, 0.5]",1,1,,,,,,,,,0,0,0,0,0,6,6,5,,,,,,,,,,,,,,,,,,,,,,,,,,,,,,,,,,,,,,,,,,,,,,,,,,,,,,,441.6066188500008,None,441.6066188500008,None,441.6066188500008,None,c,1,2.331068129002233,443.14025822500116,None,443.14025822500116,None,443.14025822500116,None,445.52345379500184,None,445.52345379500184,None,445.52345379500184,None,445.52345379500184,None,,,,,,,,,,,,,,,,,,,,,,,,,,,,,,,,,,,,,,,,,,,,001,42,2020_Jan_30_1324,spring_faces,3.1.5,60.02693564592292,
condition files/Stage1_1.xlsx,,B2,T1,m,"['c', 'm']","['Clue', 'Monopoly']","[-0.15, 0.5]","[0.15, 0.5]",1,1,,,,,,,,,0,0,0,0,0,7,7,2,,,,,,,,,,,,,,,,,,,,,,,,,,,,,,,,,,,,,,,,,,,,,,,,,,,,,,,447.4897613210014,None,447.4897613210014,None,447.4897613210014,None,m,1,0.7834535099973436,449.023797834001,None,449.023797834001,None,449.023797834001,None,449.87352135200126,None,449.87352135200126,None,449.87352135200126,None,449.87352135200126,None,,,,,,,,,,,,,,,,,,,,,,,,,,,,,,,,,,,,,,,,,,,,001,42,2020_Jan_30_1324,spring_faces,3.1.5,60.02693564592292,
condition files/Stage1_2.xlsx,,B1,T1,c,"['c', 'm']","['Clue', 'Monopoly']","[-0.15, 0.5]","[0.15, 0.5]",1,1,,,,,,,,,0,1,1,1,0,0,0,0,,,,,,,,,,,,,,,,,,,,,,,,,,,,,,,,,,,,,,,,,,,,,,,,,,,,,,,451.8402834860026,None,451.8402834860026,None,451.8402834860026,None,m,0,1.6005682469985913,453.374761725001,None,453.374761725001,None,453.374761725001,None,455.0397991200007,None,455.0397991200007,None,455.0397991200007,None,455.0397991200007,None,,,,,,,,,,,,,,,,,,,,,,,,,,,,,,,,,,,,,,,,,,,,001,42,2020_Jan_30_1324,spring_faces,3.1.5,60.02693564592292,
condition files/Stage1_2.xlsx,,T3,B3,c,"['c', 'm']","['Clue', 'Monopoly']","[-0.15, 0.5]","[0.15, 0.5]",1,1,,,,,,,,,0,1,1,1,0,1,1,4,,,,,,,,,,,,,,,,,,,,,,,,,,,,,,,,,,,,,,,,,,,,,,,,,,,,,,,457.00639643400064,None,457.00639643400064,None,457.00639643400064,None,m,0,1.8430893139993714,458.5402318580018,None,458.5402318580018,None,458.5402318580018,None,460.44048787800057,None,460.44048787800057,None,460.44048787800057,None,460.44048787800057,None,,,,,,,,,,,,,,,,,,,,,,,,,,,,,,,,,,,,,,,,,,,,001,42,2020_Jan_30_1324,spring_faces,3.1.5,60.02693564592292,
condition files/Stage1_2.xlsx,,T2,B1,c,"['c', 'm']","['Clue', 'Monopoly']","[-0.15, 0.5]","[0.15, 0.5]",1,1,,,,,,,,,0,1,1,1,0,2,2,1,,,,,,,,,,,,,,,,,,,,,,,,,,,,,,,,,,,,,,,,,,,,,,,,,,,,,,,462.4063028790006,None,462.4063028790006,None,462.4063028790006,None,m,0,1.8509426089985936,463.9563388919996,None,463.9563388919996,None,463.9563388919996,None,465.8738018240001,None,465.8738018240001,None,465.8738018240001,None,465.8738018240001,None,,,,,,,,,,,,,,,,,,,,,,,,,,,,,,,,,,,,,,,,,,,,001,42,2020_Jan_30_1324,spring_faces,3.1.5,60.02693564592292,
condition files/Stage1_2.xlsx,,B4,T3,c,"['c', 'm']","['Clue', 'Monopoly']","[-0.15, 0.5]","[0.15, 0.5]",1,1,,,,,,,,,0,1,1,1,0,3,3,5,,,,,,,,,,,,,,,,,,,,,,,,,,,,,,,,,,,,,,,,,,,,,,,,,,,,,,,467.83955131100083,None,467.83955131100083,None,467.83955131100083,None,c,1,0.9776196060010989,469.37369613800183,None,469.37369613800183,None,469.37369613800183,None,470.40647550500216,None,470.40647550500216,None,470.40647550500216,None,470.40647550500216,None,,,,,,,,,,,,,,,,,,,,,,,,,,,,,,,,,,,,,,,,,,,,001,42,2020_Jan_30_1324,spring_faces,3.1.5,60.02693564592292,
condition files/Stage1_2.xlsx,,B2,T2,m,"['c', 'm']","['Clue', 'Monopoly']","[-0.15, 0.5]","[0.15, 0.5]",1,1,,,,,,,,,0,1,1,1,0,4,4,3,,,,,,,,,,,,,,,,,,,,,,,,,,,,,,,,,,,,,,,,,,,,,,,,,,,,,,,472.37305306599956,None,472.37305306599956,None,472.37305306599956,None,c,0,0.6527260289985861,473.9066235350001,None,473.9066235350001,None,473.9066235350001,None,474.64033963600014,None,474.64033963600014,None,474.64033963600014,None,474.64033963600014,None,,,,,,,,,,,,,,,,,,,,,,,,,,,,,,,,,,,,,,,,,,,,001,42,2020_Jan_30_1324,spring_faces,3.1.5,60.02693564592292,
condition files/Stage1_2.xlsx,,T4,B4,m,"['c', 'm']","['Clue', 'Monopoly']","[-0.15, 0.5]","[0.15, 0.5]",1,1,,,,,,,,,0,1,1,1,0,5,5,7,,,,,,,,,,,,,,,,,,,,,,,,,,,,,,,,,,,,,,,,,,,,,,,,,,,,,,,476.58980092800266,None,476.58980092800266,None,476.58980092800266,None,m,1,2.004450366999663,478.1229124740021,None,478.1229124740021,None,478.1229124740021,None,480.19032984500154,None,480.19032984500154,None,480.19032984500154,None,480.19032984500154,None,,,,,,,,,,,,,,,,,,,,,,,,,,,,,,,,,,,,,,,,,,,,001,42,2020_Jan_30_1324,spring_faces,3.1.5,60.02693564592292,
condition files/Stage1_2.xlsx,,T1,B2,m,"['c', 'm']","['Clue', 'Monopoly']","[-0.15, 0.5]","[0.15, 0.5]",1,1,,,,,,,,,0,1,1,1,0,6,6,2,,,,,,,,,,,,,,,,,,,,,,,,,,,,,,,,,,,,,,,,,,,,,,,,,,,,,,,482.15664258700053,None,482.15664258700053,None,482.15664258700053,None,m,1,1.5402270230006252,483.69115767400217,None,483.69115767400217,None,483.69115767400217,None,485.2906282130025,None,485.2906282130025,None,485.2906282130025,None,485.2906282130025,None,,,,,,,,,,,,,,,,,,,,,,,,,,,,,,,,,,,,,,,,,,,,001,42,2020_Jan_30_1324,spring_faces,3.1.5,60.02693564592292,
condition files/Stage1_2.xlsx,,B3,T4,m,"['c', 'm']","['Clue', 'Monopoly']","[-0.15, 0.5]","[0.15, 0.5]",1,1,,,,,,,,,0,1,1,1,0,7,7,6,,,,,,,,,,,,,,,,,,,,,,,,,,,,,,,,,,,,,,,,,,,,,,,,,,,,,,,487.2561826580022,None,487.2561826580022,None,487.2561826580022,None,m,1,1.9618787540021003,488.7894291520024,None,488.7894291520024,None,488.7894291520024,None,490.8070211890008,None,490.8070211890008,None,490.8070211890008,None,490.8070211890008,None,,,,,,,,,,,,,,,,,,,,,,,,,,,,,,,,,,,,,,,,,,,,001,42,2020_Jan_30_1324,spring_faces,3.1.5,60.02693564592292,
condition files/Stage1_1.xlsx,,T1,B1,c,"['c', 'm']","['Clue', 'Monopoly']","[-0.15, 0.5]","[0.15, 0.5]",1,1,,,,,,,,,0,2,2,2,0,0,0,0,,,,,,,,,,,,,,,,,,,,,,,,,,,,,,,,,,,,,,,,,,,,,,,,,,,,,,,492.7895244829997,None,492.7895244829997,None,492.7895244829997,None,m,0,1.1164255459989363,494.3229330890026,None,494.3229330890026,None,494.3229330890026,None,495.492115881003,None,495.492115881003,None,495.492115881003,None,495.492115881003,None,,,,,,,,,,,,,,,,,,,,,,,,,,,,,,,,,,,,,,,,,,,,001,42,2020_Jan_30_1324,spring_faces,3.1.5,60.02693564592292,
condition files/Stage1_1.xlsx,,B4,T4,m,"['c', 'm']","['Clue', 'Monopoly']","[-0.15, 0.5]","[0.15, 0.5]",1,1,,,,,,,,,0,2,2,2,0,1,1,7,,,,,,,,,,,,,,,,,,,,,,,,,,,,,,,,,,,,,,,,,,,,,,,,,,,,,,,497.45658484100204,None,497.45658484100204,None,497.45658484100204,None,m,1,0.8330858249973971,498.99026037000294,None,498.99026037000294,None,498.99026037000294,None,499.8902120410021,None,499.8902120410021,None,499.8902120410021,None,499.8902120410021,None,,,,,,,,,,,,,,,,,,,,,,,,,,,,,,,,,,,,,,,,,,,,001,42,2020_Jan_30_1324,spring_faces,3.1.5,60.02693564592292,
condition files/Stage1_1.xlsx,,B3,T3,c,"['c', 'm']","['Clue', 'Monopoly']","[-0.15, 0.5]","[0.15, 0.5]",1,1,,,,,,,,,0,2,2,2,0,2,2,4,,,,,,,,,,,,,,,,,,,,,,,,,,,,,,,,,,,,,,,,,,,,,,,,,,,,,,,501.84002556999985,None,501.84002556999985,None,501.84002556999985,None,c,1,1.4097349410003517,503.3896897129998,None,503.3896897129998,None,503.3896897129998,None,504.8733096670003,None,504.8733096670003,None,504.8733096670003,None,504.8733096670003,None,,,,,,,,,,,,,,,,,,,,,,,,,,,,,,,,,,,,,,,,,,,,001,42,2020_Jan_30_1324,spring_faces,3.1.5,60.02693564592292,
condition files/Stage1_1.xlsx,,T4,B3,m,"['c', 'm']","['Clue', 'Monopoly']","[-0.15, 0.5]","[0.15, 0.5]",1,1,,,,,,,,,0,2,2,2,0,3,3,6,,,,,,,,,,,,,,,,,,,,,,,,,,,,,,,,,,,,,,,,,,,,,,,,,,,,,,,506.8234164839996,None,506.8234164839996,None,506.8234164839996,None,m,1,1.1139292599982582,508.35741331700046,None,508.35741331700046,None,508.35741331700046,None,509.5259949600004,None,509.5259949600004,None,509.5259949600004,None,509.5259949600004,None,,,,,,,,,,,,,,,,,,,,,,,,,,,,,,,,,,,,,,,,,,,,001,42,2020_Jan_30_1324,spring_faces,3.1.5,60.02693564592292,
condition files/Stage1_1.xlsx,,T2,B2,m,"['c', 'm']","['Clue', 'Monopoly']","[-0.15, 0.5]","[0.15, 0.5]",1,1,,,,,,,,,0,2,2,2,0,4,4,3,,,,,,,,,,,,,,,,,,,,,,,,,,,,,,,,,,,,,,,,,,,,,,,,,,,,,,,511.48948139500135,None,511.48948139500135,None,511.48948139500135,None,m,1,1.0242897889984306,513.023103016003,None,513.023103016003,None,513.023103016003,None,514.1068665940002,None,514.1068665940002,None,514.1068665940002,None,514.1068665940002,None,,,,,,,,,,,,,,,,,,,,,,,,,,,,,,,,,,,,,,,,,,,,001,42,2020_Jan_30_1324,spring_faces,3.1.5,60.02693564592292,
condition files/Stage1_1.xlsx,,B2,T1,m,"['c', 'm']","['Clue', 'Monopoly']","[-0.15, 0.5]","[0.15, 0.5]",1,1,,,,,,,,,0,2,2,2,0,5,5,2,,,,,,,,,,,,,,,,,,,,,,,,,,,,,,,,,,,,,,,,,,,,,,,,,,,,,,,516.0732655700012,None,516.0732655700012,None,516.0732655700012,None,m,1,0.6959112910008116,517.6234015290029,None,517.6234015290029,None,517.6234015290029,None,518.3730829350025,None,518.3730829350025,None,518.3730829350025,None,518.3730829350025,None,,,,,,,,,,,,,,,,,,,,,,,,,,,,,,,,,,,,,,,,,,,,001,42,2020_Jan_30_1324,spring_faces,3.1.5,60.02693564592292,
condition files/Stage1_1.xlsx,,T3,B4,c,"['c', 'm']","['Clue', 'Monopoly']","[-0.15, 0.5]","[0.15, 0.5]",1,1,,,,,,,,,0,2,2,2,0,6,6,5,,,,,,,,,,,,,,,,,,,,,,,,,,,,,,,,,,,,,,,,,,,,,,,,,,,,,,,520.3399740490022,None,520.3399740490022,None,520.3399740490022,None,c,1,1.0210828819981543,521.8742737360008,None,521.8742737360008,None,521.8742737360008,None,522.9572543150025,None,522.9572543150025,None,522.9572543150025,None,522.9572543150025,None,,,,,,,,,,,,,,,,,,,,,,,,,,,,,,,,,,,,,,,,,,,,001,42,2020_Jan_30_1324,spring_faces,3.1.5,60.02693564592292,
condition files/Stage1_1.xlsx,,B1,T2,c,"['c', 'm']","['Clue', 'Monopoly']","[-0.15, 0.5]","[0.15, 0.5]",1,1,,,,,,,,,0,2,2,2,0,7,7,1,,,,,,,,,,,,,,,,,,,,,,,,,,,,,,,,,,,,,,,,,,,,,,,,,,,,,,,524.9232176570004,None,524.9232176570004,None,524.9232176570004,None,m,0,1.2378164930014464,526.4735206290025,None,526.4735206290025,None,526.4735206290025,None,527.7736594810012,None,527.7736594810012,None,527.7736594810012,None,527.7736594810012,None,,,,,,,,,,,,,,,,,,,,,,,,,,,,,,,,,,,,,,,,,,,,001,42,2020_Jan_30_1324,spring_faces,3.1.5,60.02693564592292,
condition files/Stage1_2.xlsx,,B3,T4,m,"['c', 'm']","['Clue', 'Monopoly']","[-0.15, 0.5]","[0.15, 0.5]",1,1,,,,,,,,,0,3,3,3,0,0,0,6,,,,,,,,,,,,,,,,,,,,,,,,,,,,,,,,,,,,,,,,,,,,,,,,,,,,,,,529.7569922960029,None,529.7569922960029,None,529.7569922960029,None,m,1,1.2049586629982514,531.2904053260027,None,531.2904053260027,None,531.2904053260027,None,532.5591285250011,None,532.5591285250011,None,532.5591285250011,None,532.5591285250011,None,,,,,,,,,,,,,,,,,,,,,,,,,,,,,,,,,,,,,,,,,,,,001,42,2020_Jan_30_1324,spring_faces,3.1.5,60.02693564592292,
condition files/Stage1_2.xlsx,,T3,B3,c,"['c', 'm']","['Clue', 'Monopoly']","[-0.15, 0.5]","[0.15, 0.5]",1,1,,,,,,,,,0,3,3,3,0,1,1,4,,,,,,,,,,,,,,,,,,,,,,,,,,,,,,,,,,,,,,,,,,,,,,,,,,,,,,,534.5228171080016,None,534.5228171080016,None,534.5228171080016,None,c,1,3.0944159339996986,536.0568992400003,None,536.0568992400003,None,536.0568992400003,None,539.2089893610028,None,539.2089893610028,None,539.2089893610028,None,539.2089893610028,None,,,,,,,,,,,,,,,,,,,,,,,,,,,,,,,,,,,,,,,,,,,,001,42,2020_Jan_30_1324,spring_faces,3.1.5,60.02693564592292,
condition files/Stage1_2.xlsx,,T2,B1,c,"['c', 'm']","['Clue', 'Monopoly']","[-0.15, 0.5]","[0.15, 0.5]",1,1,,,,,,,,,0,3,3,3,0,2,2,1,,,,,,,,,,,,,,,,,,,,,,,,,,,,,,,,,,,,,,,,,,,,,,,,,,,,,,,541.1732961760026,None,541.1732961760026,None,541.1732961760026,None,c,1,1.1303025869965495,542.7090469290015,None,542.7090469290015,None,542.7090469290015,None,543.8901176770014,None,543.8901176770014,None,543.8901176770014,None,543.8901176770014,None,,,,,,,,,,,,,,,,,,,,,,,,,,,,,,,,,,,,,,,,,,,,001,42,2020_Jan_30_1324,spring_faces,3.1.5,60.02693564592292,
condition files/Stage1_2.xlsx,,T4,B4,m,"['c', 'm']","['Clue', 'Monopoly']","[-0.15, 0.5]","[0.15, 0.5]",1,1,,,,,,,,,0,3,3,3,0,3,3,7,,,,,,,,,,,,,,,,,,,,,,,,,,,,,,,,,,,,,,,,,,,,,,,,,,,,,,,545.856619295002,None,545.856619295002,None,545.856619295002,None,m,1,2.46524114299973,547.3901182180016,None,547.3901182180016,None,547.3901182180016,None,549.9084141460007,None,549.9084141460007,None,549.9084141460007,None,549.9084141460007,None,,,,,,,,,,,,,,,,,,,,,,,,,,,,,,,,,,,,,,,,,,,,001,42,2020_Jan_30_1324,spring_faces,3.1.5,60.02693564592292,
condition files/Stage1_2.xlsx,,B1,T1,c,"['c', 'm']","['Clue', 'Monopoly']","[-0.15, 0.5]","[0.15, 0.5]",1,1,,,,,,,,,0,3,3,3,0,4,4,0,,,,,,,,,,,,,,,,,,,,,,,,,,,,,,,,,,,,,,,,,,,,,,,,,,,,,,,551.8730025389996,None,551.8730025389996,None,551.8730025389996,None,m,0,2.4472357710001233,553.4081064420025,None,553.4081064420025,None,553.4081064420025,None,555.9091049850031,None,555.9091049850031,None,555.9091049850031,None,555.9091049850031,None,,,,,,,,,,,,,,,,,,,,,,,,,,,,,,,,,,,,,,,,,,,,001,42,2020_Jan_30_1324,spring_faces,3.1.5,60.02693564592292,
condition files/Stage1_2.xlsx,,T1,B2,m,"['c', 'm']","['Clue', 'Monopoly']","[-0.15, 0.5]","[0.15, 0.5]",1,1,,,,,,,,,0,3,3,3,0,5,5,2,,,,,,,,,,,,,,,,,,,,,,,,,,,,,,,,,,,,,,,,,,,,,,,,,,,,,,,557.8734658880021,None,557.8734658880021,None,557.8734658880021,None,m,1,3.3753402860020287,559.4079311960013,None,559.4079311960013,None,559.4079311960013,None,562.8414143000009,None,562.8414143000009,None,562.8414143000009,None,562.8414143000009,None,,,,,,,,,,,,,,,,,,,,,,,,,,,,,,,,,,,,,,,,,,,,001,42,2020_Jan_30_1324,spring_faces,3.1.5,60.02693564592292,
condition files/Stage1_2.xlsx,,B4,T3,c,"['c', 'm']","['Clue', 'Monopoly']","[-0.15, 0.5]","[0.15, 0.5]",1,1,,,,,,,,,0,3,3,3,0,6,6,5,,,,,,,,,,,,,,,,,,,,,,,,,,,,,,,,,,,,,,,,,,,,,,,,,,,,,,,564.8067684690031,None,564.8067684690031,None,564.8067684690031,None,c,1,1.146894331999647,566.3566354270006,None,566.3566354270006,None,566.3566354270006,None,567.5732306120008,None,567.5732306120008,None,567.5732306120008,None,567.5732306120008,None,,,,,,,,,,,,,,,,,,,,,,,,,,,,,,,,,,,,,,,,,,,,001,42,2020_Jan_30_1324,spring_faces,3.1.5,60.02693564592292,
condition files/Stage1_2.xlsx,,B2,T2,m,"['c', 'm']","['Clue', 'Monopoly']","[-0.15, 0.5]","[0.15, 0.5]",1,1,,,,,,,,,0,3,3,3,0,7,7,3,,,,,,,,,,,,,,,,,,,,,,,,,,,,,,,,,,,,,,,,,,,,,,,,,,,,,,,569.5235370299997,None,569.5235370299997,None,569.5235370299997,None,m,1,2.3179084040020825,571.0574263750023,None,571.0574263750023,None,571.0574263750023,None,573.4411728110026,None,573.4411728110026,None,573.4411728110026,None,573.4411728110026,None,,,,,,,,,,,,,,,,,,,,,,,,,,,,,,,,,,,,,,,,,,,,001,42,2020_Jan_30_1324,spring_faces,3.1.5,60.02693564592292,
condition files/Stage1_1.xlsx,,T3,B4,c,"['c', 'm']","['Clue', 'Monopoly']","[-0.15, 0.5]","[0.15, 0.5]",1,1,,,,,,,,,0,4,4,4,0,0,0,5,,,,,,,,,,,,,,,,,,,,,,,,,,,,,,,,,,,,,,,,,,,,,,,,,,,,,,,575.4231195070024,None,575.4231195070024,None,575.4231195070024,None,m,0,0.8340955810017476,576.9731965880019,None,576.9731965880019,None,576.9731965880019,None,577.8730522600017,None,577.8730522600017,None,577.8730522600017,None,577.8730522600017,None,,,,,,,,,,,,,,,,,,,,,,,,,,,,,,,,,,,,,,,,,,,,001,42,2020_Jan_30_1324,spring_faces,3.1.5,60.02693564592292,
condition files/Stage1_1.xlsx,,B2,T1,m,"['c', 'm']","['Clue', 'Monopoly']","[-0.15, 0.5]","[0.15, 0.5]",1,1,,,,,,,,,0,4,4,4,0,1,1,2,,,,,,,,,,,,,,,,,,,,,,,,,,,,,,,,,,,,,,,,,,,,,,,,,,,,,,,579.8402444599997,None,579.8402444599997,None,579.8402444599997,None,c,0,0.9603354319988284,581.3749988750023,None,581.3749988750023,None,581.3749988750023,None,582.3925833249996,None,582.3925833249996,None,582.3925833249996,None,582.3925833249996,None,,,,,,,,,,,,,,,,,,,,,,,,,,,,,,,,,,,,,,,,,,,,001,42,2020_Jan_30_1324,spring_faces,3.1.5,60.02693564592292,
condition files/Stage1_1.xlsx,,T2,B2,m,"['c', 'm']","['Clue', 'Monopoly']","[-0.15, 0.5]","[0.15, 0.5]",1,1,,,,,,,,,0,4,4,4,0,2,2,3,,,,,,,,,,,,,,,,,,,,,,,,,,,,,,,,,,,,,,,,,,,,,,,,,,,,,,,584.3566232800003,None,584.3566232800003,None,584.3566232800003,None,m,1,3.0531356780011265,585.9061900859997,None,585.9061900859997,None,585.9061900859997,None,589.023137637003,None,589.023137637003,None,589.023137637003,None,589.023137637003,None,,,,,,,,,,,,,,,,,,,,,,,,,,,,,,,,,,,,,,,,,,,,001,42,2020_Jan_30_1324,spring_faces,3.1.5,60.02693564592292,
condition files/Stage1_1.xlsx,,B4,T4,m,"['c', 'm']","['Clue', 'Monopoly']","[-0.15, 0.5]","[0.15, 0.5]",1,1,,,,,,,,,0,4,4,4,0,3,3,7,,,,,,,,,,,,,,,,,,,,,,,,,,,,,,,,,,,,,,,,,,,,,,,,,,,,,,,590.9893541199999,None,590.9893541199999,None,590.9893541199999,None,m,1,1.6510552389991062,592.5242580080012,None,592.5242580080012,None,592.5242580080012,None,594.2398837760011,None,594.2398837760011,None,594.2398837760011,None,594.2398837760011,None,,,,,,,,,,,,,,,,,,,,,,,,,,,,,,,,,,,,,,,,,,,,001,42,2020_Jan_30_1324,spring_faces,3.1.5,60.02693564592292,
condition files/Stage1_1.xlsx,,B3,T3,c,"['c', 'm']","['Clue', 'Monopoly']","[-0.15, 0.5]","[0.15, 0.5]",1,1,,,,,,,,,0,4,4,4,0,4,4,4,,,,,,,,,,,,,,,,,,,,,,,,,,,,,,,,,,,,,,,,,,,,,,,,,,,,,,,596.2061175920026,None,596.2061175920026,None,596.2061175920026,None,c,1,0.7702110139980505,597.7411461340016,None,597.7411461340016,None,597.7411461340016,None,598.5745195570016,None,598.5745195570016,None,598.5745195570016,None,598.5745195570016,None,,,,,,,,,,,,,,,,,,,,,,,,,,,,,,,,,,,,,,,,,,,,001,42,2020_Jan_30_1324,spring_faces,3.1.5,60.02693564592292,
condition files/Stage1_1.xlsx,,T1,B1,c,"['c', 'm']","['Clue', 'Monopoly']","[-0.15, 0.5]","[0.15, 0.5]",1,1,,,,,,,,,0,4,4,4,0,5,5,0,,,,,,,,,,,,,,,,,,,,,,,,,,,,,,,,,,,,,,,,,,,,,,,,,,,,,,,600.5399262080027,None,600.5399262080027,None,600.5399262080027,None,c,1,2.037305549998564,602.0740504890018,None,602.0740504890018,None,602.0740504890018,None,604.1736536720018,None,604.1736536720018,None,604.1736536720018,None,604.1736536720018,None,,,,,,,,,,,,,,,,,,,,,,,,,,,,,,,,,,,,,,,,,,,,001,42,2020_Jan_30_1324,spring_faces,3.1.5,60.02693564592292,
condition files/Stage1_1.xlsx,,B1,T2,c,"['c', 'm']","['Clue', 'Monopoly']","[-0.15, 0.5]","[0.15, 0.5]",1,1,,,,,,,,,0,4,4,4,0,6,6,1,,,,,,,,,,,,,,,,,,,,,,,,,,,,,,,,,,,,,,,,,,,,,,,,,,,,,,,606.140002766002,None,606.140002766002,None,606.140002766002,None,c,1,2.101864549000311,607.6734712940015,None,607.6734712940015,None,607.6734712940015,None,609.8398405059997,None,609.8398405059997,None,609.8398405059997,None,609.8398405059997,None,,,,,,,,,,,,,,,,,,,,,,,,,,,,,,,,,,,,,,,,,,,,001,42,2020_Jan_30_1324,spring_faces,3.1.5,60.02693564592292,
condition files/Stage1_1.xlsx,,T4,B3,m,"['c', 'm']","['Clue', 'Monopoly']","[-0.15, 0.5]","[0.15, 0.5]",1,1,,,,,,,,,0,4,4,4,0,7,7,6,,,,,,,,,,,,,,,,,,,,,,,,,,,,,,,,,,,,,,,,,,,,,,,,,,,,,,,611.8066352759997,None,611.8066352759997,None,611.8066352759997,None,m,1,1.1078380519975326,613.3395496590019,None,613.3395496590019,None,613.3395496590019,None,614.5234853840011,None,614.5234853840011,None,614.5234853840011,None,614.5234853840011,None,,,,,,,,,,,,,,,,,,,,,,,,,,,,,,,,,,,,,,,,,,,,001,42,2020_Jan_30_1324,spring_faces,3.1.5,60.02693564592292,
condition files/Stage1_2.xlsx,,T2,B1,c,"['c', 'm']","['Clue', 'Monopoly']","[-0.15, 0.5]","[0.15, 0.5]",1,1,,,,,,,,,0,5,5,5,0,0,0,1,,,,,,,,,,,,,,,,,,,,,,,,,,,,,,,,,,,,,,,,,,,,,,,,,,,,,,,616.4903585710017,None,616.4903585710017,None,616.4903585710017,None,m,0,0.5660702210007003,618.0252307330011,None,618.0252307330011,None,618.0252307330011,None,618.673826344002,None,618.673826344002,None,618.673826344002,None,618.673826344002,None,,,,,,,,,,,,,,,,,,,,,,,,,,,,,,,,,,,,,,,,,,,,001,42,2020_Jan_30_1324,spring_faces,3.1.5,60.02693564592292,
condition files/Stage1_2.xlsx,,B2,T2,m,"['c', 'm']","['Clue', 'Monopoly']","[-0.15, 0.5]","[0.15, 0.5]",1,1,,,,,,,,,0,5,5,5,0,1,1,3,,,,,,,,,,,,,,,,,,,,,,,,,,,,,,,,,,,,,,,,,,,,,,,,,,,,,,,620.6233681580015,None,620.6233681580015,None,620.6233681580015,None,m,1,1.7287551539993729,622.1585712670021,None,622.1585712670021,None,622.1585712670021,None,623.9417795000008,None,623.9417795000008,None,623.9417795000008,None,623.9417795000008,None,,,,,,,,,,,,,,,,,,,,,,,,,,,,,,,,,,,,,,,,,,,,001,42,2020_Jan_30_1324,spring_faces,3.1.5,60.02693564592292,
condition files/Stage1_2.xlsx,,T3,B3,c,"['c', 'm']","['Clue', 'Monopoly']","[-0.15, 0.5]","[0.15, 0.5]",1,1,,,,,,,,,0,5,5,5,0,2,2,4,,,,,,,,,,,,,,,,,,,,,,,,,,,,,,,,,,,,,,,,,,,,,,,,,,,,,,,625.9070663230013,None,625.9070663230013,None,625.9070663230013,None,c,1,1.4384480139997322,627.4409253600024,None,627.4409253600024,None,627.4409253600024,None,628.9412229879999,None,628.9412229879999,None,628.9412229879999,None,628.9412229879999,None,,,,,,,,,,,,,,,,,,,,,,,,,,,,,,,,,,,,,,,,,,,,001,42,2020_Jan_30_1324,spring_faces,3.1.5,60.02693564592292,
condition files/Stage1_2.xlsx,,B3,T4,m,"['c', 'm']","['Clue', 'Monopoly']","[-0.15, 0.5]","[0.15, 0.5]",1,1,,,,,,,,,0,5,5,5,0,3,3,6,,,,,,,,,,,,,,,,,,,,,,,,,,,,,,,,,,,,,,,,,,,,,,,,,,,,,,,630.9066523110014,None,630.9066523110014,None,630.9066523110014,None,m,1,0.773919005998323,632.4414906720012,None,632.4414906720012,None,632.4414906720012,None,633.2741421210012,None,633.2741421210012,None,633.2741421210012,None,633.2741421210012,None,,,,,,,,,,,,,,,,,,,,,,,,,,,,,,,,,,,,,,,,,,,,001,42,2020_Jan_30_1324,spring_faces,3.1.5,60.02693564592292,
condition files/Stage1_2.xlsx,,B1,T1,c,"['c', 'm']","['Clue', 'Monopoly']","[-0.15, 0.5]","[0.15, 0.5]",1,1,,,,,,,,,0,5,5,5,0,4,4,0,,,,,,,,,,,,,,,,,,,,,,,,,,,,,,,,,,,,,,,,,,,,,,,,,,,,,,,635.239826115001,None,635.239826115001,None,635.239826115001,None,c,1,0.7282969190018775,636.7750019779996,None,636.7750019779996,None,636.7750019779996,None,637.5566974249996,None,637.5566974249996,None,637.5566974249996,None,637.5566974249996,None,,,,,,,,,,,,,,,,,,,,,,,,,,,,,,,,,,,,,,,,,,,,001,42,2020_Jan_30_1324,spring_faces,3.1.5,60.02693564592292,
condition files/Stage1_2.xlsx,,B4,T3,c,"['c', 'm']","['Clue', 'Monopoly']","[-0.15, 0.5]","[0.15, 0.5]",1,1,,,,,,,,,0,5,5,5,0,5,5,5,,,,,,,,,,,,,,,,,,,,,,,,,,,,,,,,,,,,,,,,,,,,,,,,,,,,,,,639.5232972539998,None,639.5232972539998,None,639.5232972539998,None,m,0,1.1818346449981618,641.0735113650007,None,641.0735113650007,None,641.0735113650007,None,642.3068205340023,None,642.3068205340023,None,642.3068205340023,None,642.3068205340023,None,,,,,,,,,,,,,,,,,,,,,,,,,,,,,,,,,,,,,,,,,,,,001,42,2020_Jan_30_1324,spring_faces,3.1.5,60.02693564592292,
condition files/Stage1_2.xlsx,,T1,B2,m,"['c', 'm']","['Clue', 'Monopoly']","[-0.15, 0.5]","[0.15, 0.5]",1,1,,,,,,,,,0,5,5,5,0,6,6,2,,,,,,,,,,,,,,,,,,,,,,,,,,,,,,,,,,,,,,,,,,,,,,,,,,,,,,,644.2733342620013,None,644.2733342620013,None,644.2733342620013,None,c,0,0.9767792410020775,645.8065853330008,None,645.8065853330008,None,645.8065853330008,None,646.8428111940011,None,646.8428111940011,None,646.8428111940011,None,646.8428111940011,None,,,,,,,,,,,,,,,,,,,,,,,,,,,,,,,,,,,,,,,,,,,,001,42,2020_Jan_30_1324,spring_faces,3.1.5,60.02693564592292,
condition files/Stage1_2.xlsx,,T4,B4,m,"['c', 'm']","['Clue', 'Monopoly']","[-0.15, 0.5]","[0.15, 0.5]",1,1,,,,,,,,,0,5,5,5,0,7,7,7,,,,,,,,,,,,,,,,,,,,,,,,,,,,,,,,,,,,,,,,,,,,,,,,,,,,,,,648.8065054729996,None,648.8065054729996,None,648.8065054729996,None,m,1,1.2907357250005589,650.3406412220029,None,650.3406412220029,None,650.3406412220029,None,651.6901123320022,None,651.6901123320022,None,651.6901123320022,None,651.6901123320022,None,,,,,,,,,,,,,,,,,,,,,,,,,,,,,,,,,,,,,,,,,,,,001,42,2020_Jan_30_1324,spring_faces,3.1.5,60.02693564592292,
condition files/Stage1_1.xlsx,,T3,B4,c,"['c', 'm']","['Clue', 'Monopoly']","[-0.15, 0.5]","[0.15, 0.5]",1,1,,,,,,,,,0,6,6,6,0,0,0,5,,,,,,,,,,,,,,,,,,,,,,,,,,,,,,,,,,,,,,,,,,,,,,,,,,,,,,,653.6733254740029,None,653.6733254740029,None,653.6733254740029,None,m,0,2.583788089999871,655.2234937190005,None,655.2234937190005,None,655.2234937190005,None,657.8746075100025,None,657.8746075100025,None,657.8746075100025,None,657.8746075100025,None,,,,,,,,,,,,,,,,,,,,,,,,,,,,,,,,,,,,,,,,,,,,001,42,2020_Jan_30_1324,spring_faces,3.1.5,60.02693564592292,
condition files/Stage1_1.xlsx,,B1,T2,c,"['c', 'm']","['Clue', 'Monopoly']","[-0.15, 0.5]","[0.15, 0.5]",1,1,,,,,,,,,0,6,6,6,0,1,1,1,,,,,,,,,,,,,,,,,,,,,,,,,,,,,,,,,,,,,,,,,,,,,,,,,,,,,,,659.8398755380003,None,659.8398755380003,None,659.8398755380003,None,m,0,1.009318506999989,661.3900899530017,None,661.3900899530017,None,661.3900899530017,None,662.4567299700029,None,662.4567299700029,None,662.4567299700029,None,662.4567299700029,None,,,,,,,,,,,,,,,,,,,,,,,,,,,,,,,,,,,,,,,,,,,,001,42,2020_Jan_30_1324,spring_faces,3.1.5,60.02693564592292,
condition files/Stage1_1.xlsx,,B2,T1,m,"['c', 'm']","['Clue', 'Monopoly']","[-0.15, 0.5]","[0.15, 0.5]",1,1,,,,,,,,,0,6,6,6,0,2,2,2,,,,,,,,,,,,,,,,,,,,,,,,,,,,,,,,,,,,,,,,,,,,,,,,,,,,,,,664.4233261720001,None,664.4233261720001,None,664.4233261720001,None,c,0,1.785056895998423,665.958305745,None,665.958305745,None,665.958305745,None,667.8068244830029,None,667.8068244830029,None,667.8068244830029,None,667.8068244830029,None,,,,,,,,,,,,,,,,,,,,,,,,,,,,,,,,,,,,,,,,,,,,001,42,2020_Jan_30_1324,spring_faces,3.1.5,60.02693564592292,
condition files/Stage1_1.xlsx,,B3,T3,c,"['c', 'm']","['Clue', 'Monopoly']","[-0.15, 0.5]","[0.15, 0.5]",1,1,,,,,,,,,0,6,6,6,0,3,3,4,,,,,,,,,,,,,,,,,,,,,,,,,,,,,,,,,,,,,,,,,,,,,,,,,,,,,,,669.7732364309995,None,669.7732364309995,None,669.7732364309995,None,m,0,1.556480991999706,671.3069056490021,None,671.3069056490021,None,671.3069056490021,None,672.9398283650007,None,672.9398283650007,None,672.9398283650007,None,672.9398283650007,None,,,,,,,,,,,,,,,,,,,,,,,,,,,,,,,,,,,,,,,,,,,,001,42,2020_Jan_30_1324,spring_faces,3.1.5,60.02693564592292,
condition files/Stage1_1.xlsx,,B4,T4,m,"['c', 'm']","['Clue', 'Monopoly']","[-0.15, 0.5]","[0.15, 0.5]",1,1,,,,,,,,,0,6,6,6,0,4,4,7,,,,,,,,,,,,,,,,,,,,,,,,,,,,,,,,,,,,,,,,,,,,,,,,,,,,,,,674.8899915540023,None,674.8899915540023,None,674.8899915540023,None,m,1,1.5264150180009892,676.4249109260018,None,676.4249109260018,None,676.4249109260018,None,678.0229023669999,None,678.0229023669999,None,678.0229023669999,None,678.0229023669999,None,,,,,,,,,,,,,,,,,,,,,,,,,,,,,,,,,,,,,,,,,,,,001,42,2020_Jan_30_1324,spring_faces,3.1.5,60.02693564592292,
condition files/Stage1_1.xlsx,,T1,B1,c,"['c', 'm']","['Clue', 'Monopoly']","[-0.15, 0.5]","[0.15, 0.5]",1,1,,,,,,,,,0,6,6,6,0,5,5,0,,,,,,,,,,,,,,,,,,,,,,,,,,,,,,,,,,,,,,,,,,,,,,,,,,,,,,,679.9732200970029,None,679.9732200970029,None,679.9732200970029,None,c,1,0.8107309990009526,681.5085606499997,None,681.5085606499997,None,681.5085606499997,None,682.3742238400009,None,682.3742238400009,None,682.3742238400009,None,682.3742238400009,None,,,,,,,,,,,,,,,,,,,,,,,,,,,,,,,,,,,,,,,,,,,,001,42,2020_Jan_30_1324,spring_faces,3.1.5,60.02693564592292,
condition files/Stage1_1.xlsx,,T2,B2,m,"['c', 'm']","['Clue', 'Monopoly']","[-0.15, 0.5]","[0.15, 0.5]",1,1,,,,,,,,,0,6,6,6,0,6,6,3,,,,,,,,,,,,,,,,,,,,,,,,,,,,,,,,,,,,,,,,,,,,,,,,,,,,,,,684.3401103680008,None,684.3401103680008,None,684.3401103680008,None,m,1,1.1655825460002234,685.8738058840026,None,685.8738058840026,None,685.8738058840026,None,687.1070552380006,None,687.1070552380006,None,687.1070552380006,None,687.1070552380006,None,,,,,,,,,,,,,,,,,,,,,,,,,,,,,,,,,,,,,,,,,,,,001,42,2020_Jan_30_1324,spring_faces,3.1.5,60.02693564592292,
condition files/Stage1_1.xlsx,,T4,B3,m,"['c', 'm']","['Clue', 'Monopoly']","[-0.15, 0.5]","[0.15, 0.5]",1,1,,,,,,,,,0,6,6,6,0,7,7,6,,,,,,,,,,,,,,,,,,,,,,,,,,,,,,,,,,,,,,,,,,,,,,,,,,,,,,,689.0567500780016,None,689.0567500780016,None,689.0567500780016,None,m,1,0.8810464240013971,690.5902932740028,None,690.5902932740028,None,690.5902932740028,None,691.5236998690016,None,691.5236998690016,None,691.5236998690016,None,691.5236998690016,None,,,,,,,,,,,,,,,,,,,,,,,,,,,,,,,,,,,,,,,,,,,,001,42,2020_Jan_30_1324,spring_faces,3.1.5,60.02693564592292,
condition files/Stage1_2.xlsx,,T3,B3,c,"['c', 'm']","['Clue', 'Monopoly']","[-0.15, 0.5]","[0.15, 0.5]",1,1,,,,,,,,,0,7,7,7,0,0,0,4,,,,,,,,,,,,,,,,,,,,,,,,,,,,,,,,,,,,,,,,,,,,,,,,,,,,,,,693.5067431770003,None,693.5067431770003,None,693.5067431770003,None,c,1,1.3588385170005495,695.0405983350029,None,695.0405983350029,None,695.0405983350029,None,696.4589352920011,None,696.4589352920011,None,696.4589352920011,None,696.4589352920011,None,,,,,,,,,,,,,,,,,,,,,,,,,,,,,,,,,,,,,,,,,,,,001,42,2020_Jan_30_1324,spring_faces,3.1.5,60.02693564592292,
condition files/Stage1_2.xlsx,,B2,T2,m,"['c', 'm']","['Clue', 'Monopoly']","[-0.15, 0.5]","[0.15, 0.5]",1,1,,,,,,,,,0,7,7,7,0,1,1,3,,,,,,,,,,,,,,,,,,,,,,,,,,,,,,,,,,,,,,,,,,,,,,,,,,,,,,,698.4232983350012,None,698.4232983350012,None,698.4232983350012,None,m,1,1.9775459020020207,699.9577313070004,None,699.9577313070004,None,699.9577313070004,None,701.9923126180001,None,701.9923126180001,None,701.9923126180001,None,701.9923126180001,None,,,,,,,,,,,,,,,,,,,,,,,,,,,,,,,,,,,,,,,,,,,,001,42,2020_Jan_30_1324,spring_faces,3.1.5,60.02693564592292,
condition files/Stage1_2.xlsx,,T1,B2,m,"['c', 'm']","['Clue', 'Monopoly']","[-0.15, 0.5]","[0.15, 0.5]",1,1,,,,,,,,,0,7,7,7,0,2,2,2,,,,,,,,,,,,,,,,,,,,,,,,,,,,,,,,,,,,,,,,,,,,,,,,,,,,,,,703.9568548380012,None,703.9568548380012,None,703.9568548380012,None,c,0,0.9239964260013949,705.4913976839998,None,705.4913976839998,None,705.4913976839998,None,706.4730622919997,None,706.4730622919997,None,706.4730622919997,None,706.4730622919997,None,,,,,,,,,,,,,,,,,,,,,,,,,,,,,,,,,,,,,,,,,,,,001,42,2020_Jan_30_1324,spring_faces,3.1.5,60.02693564592292,
condition files/Stage1_2.xlsx,,T4,B4,m,"['c', 'm']","['Clue', 'Monopoly']","[-0.15, 0.5]","[0.15, 0.5]",1,1,,,,,,,,,0,7,7,7,0,3,3,7,,,,,,,,,,,,,,,,,,,,,,,,,,,,,,,,,,,,,,,,,,,,,,,,,,,,,,,708.4399000430021,None,708.4399000430021,None,708.4399000430021,None,m,1,1.2251537829979497,709.9902269430022,None,709.9902269430022,None,709.9902269430022,None,711.2727873140029,None,711.2727873140029,None,711.2727873140029,None,711.2727873140029,None,,,,,,,,,,,,,,,,,,,,,,,,,,,,,,,,,,,,,,,,,,,,001,42,2020_Jan_30_1324,spring_faces,3.1.5,60.02693564592292,
condition files/Stage1_2.xlsx,,B3,T4,m,"['c', 'm']","['Clue', 'Monopoly']","[-0.15, 0.5]","[0.15, 0.5]",1,1,,,,,,,,,0,7,7,7,0,4,4,6,,,,,,,,,,,,,,,,,,,,,,,,,,,,,,,,,,,,,,,,,,,,,,,,,,,,,,,713.239469367003,None,713.239469367003,None,713.239469367003,None,m,1,0.7777916039995034,714.7895913400025,None,714.7895913400025,None,714.7895913400025,None,715.6233107469998,None,715.6233107469998,None,715.6233107469998,None,715.6233107469998,None,,,,,,,,,,,,,,,,,,,,,,,,,,,,,,,,,,,,,,,,,,,,001,42,2020_Jan_30_1324,spring_faces,3.1.5,60.02693564592292,
condition files/Stage1_2.xlsx,,T2,B1,c,"['c', 'm']","['Clue', 'Monopoly']","[-0.15, 0.5]","[0.15, 0.5]",1,1,,,,,,,,,0,7,7,7,0,5,5,1,,,,,,,,,,,,,,,,,,,,,,,,,,,,,,,,,,,,,,,,,,,,,,,,,,,,,,,717.589194483,None,717.589194483,None,717.589194483,None,c,1,0.5076802629992017,719.1237055519996,None,719.1237055519996,None,719.1237055519996,None,719.6905863909997,None,719.6905863909997,None,719.6905863909997,None,719.6905863909997,None,,,,,,,,,,,,,,,,,,,,,,,,,,,,,,,,,,,,,,,,,,,,001,42,2020_Jan_30_1324,spring_faces,3.1.5,60.02693564592292,
condition files/Stage1_2.xlsx,,B1,T1,c,"['c', 'm']","['Clue', 'Monopoly']","[-0.15, 0.5]","[0.15, 0.5]",1,1,,,,,,,,,0,7,7,7,0,6,6,0,,,,,,,,,,,,,,,,,,,,,,,,,,,,,,,,,,,,,,,,,,,,,,,,,,,,,,,721.656654716,None,721.656654716,None,721.656654716,None,m,0,1.049469448000309,723.1898967440029,None,723.1898967440029,None,723.1898967440029,None,724.2905258820028,None,724.2905258820028,None,724.2905258820028,None,724.2905258820028,None,,,,,,,,,,,,,,,,,,,,,,,,,,,,,,,,,,,,,,,,,,,,001,42,2020_Jan_30_1324,spring_faces,3.1.5,60.02693564592292,
condition files/Stage1_2.xlsx,,B4,T3,c,"['c', 'm']","['Clue', 'Monopoly']","[-0.15, 0.5]","[0.15, 0.5]",1,1,,,,,,,,,0,7,7,7,0,7,7,5,,,,,,,,,,,,,,,,,,,,,,,,,,,,,,,,,,,,,,,,,,,,,,,,,,,,,,,726.2566278930026,None,726.2566278930026,None,726.2566278930026,None,m,0,1.7289235799980816,727.7903732209998,None,727.7903732209998,None,727.7903732209998,None,729.5734856529998,None,729.5734856529998,None,729.5734856529998,None,729.5734856529998,None,,,,,,,,,,,,,,,,,,,,,,,,,,,,,,,,,,,,,,,,,,,,001,42,2020_Jan_30_1324,spring_faces,3.1.5,60.02693564592292,
condition files/Stage1_1.xlsx,,B1,T2,c,"['c', 'm']","['Clue', 'Monopoly']","[-0.15, 0.5]","[0.15, 0.5]",1,1,,,,,,,,,0,8,8,8,0,0,0,1,,,,,,,,,,,,,,,,,,,,,,,,,,,,,,,,,,,,,,,,,,,,,,,,,,,,,,,731.557072552001,None,731.557072552001,None,731.557072552001,None,c,1,0.6690992519979773,733.0902545280005,None,733.0902545280005,None,733.0902545280005,None,733.8237054160018,None,733.8237054160018,None,733.8237054160018,None,733.8237054160018,None,,,,,,,,,,,,,,,,,,,,,,,,,,,,,,,,,,,,,,,,,,,,001,42,2020_Jan_30_1324,spring_faces,3.1.5,60.02693564592292,
condition files/Stage1_1.xlsx,,T2,B2,m,"['c', 'm']","['Clue', 'Monopoly']","[-0.15, 0.5]","[0.15, 0.5]",1,1,,,,,,,,,0,8,8,8,0,1,1,3,,,,,,,,,,,,,,,,,,,,,,,,,,,,,,,,,,,,,,,,,,,,,,,,,,,,,,,735.7897948470018,None,735.7897948470018,None,735.7897948470018,None,m,1,1.2040693599992665,737.3232665750002,None,737.3232665750002,None,737.3232665750002,None,738.5899526220019,None,738.5899526220019,None,738.5899526220019,None,738.5899526220019,None,,,,,,,,,,,,,,,,,,,,,,,,,,,,,,,,,,,,,,,,,,,,001,42,2020_Jan_30_1324,spring_faces,3.1.5,60.02693564592292,
condition files/Stage1_1.xlsx,,T3,B4,c,"['c', 'm']","['Clue', 'Monopoly']","[-0.15, 0.5]","[0.15, 0.5]",1,1,,,,,,,,,0,8,8,8,0,2,2,5,,,,,,,,,,,,,,,,,,,,,,,,,,,,,,,,,,,,,,,,,,,,,,,,,,,,,,,740.5566121810007,None,740.5566121810007,None,740.5566121810007,None,m,0,1.6202687689983577,742.1070843170019,None,742.1070843170019,None,742.1070843170019,None,743.7904791470028,None,743.7904791470028,None,743.7904791470028,None,743.7904791470028,None,,,,,,,,,,,,,,,,,,,,,,,,,,,,,,,,,,,,,,,,,,,,001,42,2020_Jan_30_1324,spring_faces,3.1.5,60.02693564592292,
condition files/Stage1_1.xlsx,,T1,B1,c,"['c', 'm']","['Clue', 'Monopoly']","[-0.15, 0.5]","[0.15, 0.5]",1,1,,,,,,,,,0,8,8,8,0,3,3,0,,,,,,,,,,,,,,,,,,,,,,,,,,,,,,,,,,,,,,,,,,,,,,,,,,,,,,,745.7565855360008,None,745.7565855360008,None,745.7565855360008,None,m,0,0.9491211479980848,747.2902399660015,None,747.2902399660015,None,747.2902399660015,None,748.289914418001,None,748.289914418001,None,748.289914418001,None,748.289914418001,None,,,,,,,,,,,,,,,,,,,,,,,,,,,,,,,,,,,,,,,,,,,,001,42,2020_Jan_30_1324,spring_faces,3.1.5,60.02693564592292,
condition files/Stage1_1.xlsx,,B2,T1,m,"['c', 'm']","['Clue', 'Monopoly']","[-0.15, 0.5]","[0.15, 0.5]",1,1,,,,,,,,,0,8,8,8,0,4,4,2,,,,,,,,,,,,,,,,,,,,,,,,,,,,,,,,,,,,,,,,,,,,,,,,,,,,,,,750.256376272002,None,750.256376272002,None,750.256376272002,None,m,1,1.1374816440002178,751.7898771580003,None,751.7898771580003,None,751.7898771580003,None,752.9902047730029,None,752.9902047730029,None,752.9902047730029,None,752.9902047730029,None,,,,,,,,,,,,,,,,,,,,,,,,,,,,,,,,,,,,,,,,,,,,001,42,2020_Jan_30_1324,spring_faces,3.1.5,60.02693564592292,
condition files/Stage1_1.xlsx,,T4,B3,m,"['c', 'm']","['Clue', 'Monopoly']","[-0.15, 0.5]","[0.15, 0.5]",1,1,,,,,,,,,0,8,8,8,0,5,5,6,,,,,,,,,,,,,,,,,,,,,,,,,,,,,,,,,,,,,,,,,,,,,,,,,,,,,,,754.9566545830021,None,754.9566545830021,None,754.9566545830021,None,m,1,1.539713305002806,756.4916821250008,None,756.4916821250008,None,756.4916821250008,None,758.0894697590011,None,758.0894697590011,None,758.0894697590011,None,758.0894697590011,None,,,,,,,,,,,,,,,,,,,,,,,,,,,,,,,,,,,,,,,,,,,,001,42,2020_Jan_30_1324,spring_faces,3.1.5,60.02693564592292,
condition files/Stage1_1.xlsx,,B3,T3,c,"['c', 'm']","['Clue', 'Monopoly']","[-0.15, 0.5]","[0.15, 0.5]",1,1,,,,,,,,,0,8,8,8,0,6,6,4,,,,,,,,,,,,,,,,,,,,,,,,,,,,,,,,,,,,,,,,,,,,,,,,,,,,,,,760.0569445069996,None,760.0569445069996,None,760.0569445069996,None,c,1,1.5587117149989353,761.5926090890025,None,761.5926090890025,None,761.5926090890025,None,763.2088924390009,None,763.2088924390009,None,763.2088924390009,None,763.2088924390009,None,,,,,,,,,,,,,,,,,,,,,,,,,,,,,,,,,,,,,,,,,,,,001,42,2020_Jan_30_1324,spring_faces,3.1.5,60.02693564592292,
condition files/Stage1_1.xlsx,,B4,T4,m,"['c', 'm']","['Clue', 'Monopoly']","[-0.15, 0.5]","[0.15, 0.5]",1,1,,,,,,,,,0,8,8,8,0,7,7,7,,,,,,,,,,,,,,,,,,,,,,,,,,,,,,,,,,,,,,,,,,,,,,,,,,,,,,,765.173457439003,None,765.173457439003,None,765.173457439003,None,m,1,0.9083001269973465,766.7070625090018,None,766.7070625090018,None,766.7070625090018,None,767.6751547010026,None,767.6751547010026,None,767.6751547010026,None,767.6751547010026,None,,,,,,,,,,,,,,,,,,,,,,,,,,,,,,,,,,,,,,,,,,,,001,42,2020_Jan_30_1324,spring_faces,3.1.5,60.02693564592292,
condition files/Stage1_2.xlsx,,B3,T4,m,"['c', 'm']","['Clue', 'Monopoly']","[-0.15, 0.5]","[0.15, 0.5]",1,1,,,,,,,,,0,9,9,9,0,0,0,6,,,,,,,,,,,,,,,,,,,,,,,,,,,,,,,,,,,,,,,,,,,,,,,,,,,,,,,769.6567570139996,None,769.6567570139996,None,769.6567570139996,None,m,1,0.7287909909973678,771.19055381,None,771.19055381,None,771.19055381,None,771.9735317010018,None,771.9735317010018,None,771.9735317010018,None,771.9735317010018,None,,,,,,,,,,,,,,,,,,,,,,,,,,,,,,,,,,,,,,,,,,,,001,42,2020_Jan_30_1324,spring_faces,3.1.5,60.02693564592292,
condition files/Stage1_2.xlsx,,T1,B2,m,"['c', 'm']","['Clue', 'Monopoly']","[-0.15, 0.5]","[0.15, 0.5]",1,1,,,,,,,,,0,9,9,9,0,1,1,2,,,,,,,,,,,,,,,,,,,,,,,,,,,,,,,,,,,,,,,,,,,,,,,,,,,,,,,773.9400622940011,None,773.9400622940011,None,773.9400622940011,None,c,0,0.9416821279992291,775.4736993780025,None,775.4736993780025,None,775.4736993780025,None,776.4735155900016,None,776.4735155900016,None,776.4735155900016,None,776.4735155900016,None,,,,,,,,,,,,,,,,,,,,,,,,,,,,,,,,,,,,,,,,,,,,001,42,2020_Jan_30_1324,spring_faces,3.1.5,60.02693564592292,
condition files/Stage1_2.xlsx,,B2,T2,m,"['c', 'm']","['Clue', 'Monopoly']","[-0.15, 0.5]","[0.15, 0.5]",1,1,,,,,,,,,0,9,9,9,0,2,2,3,,,,,,,,,,,,,,,,,,,,,,,,,,,,,,,,,,,,,,,,,,,,,,,,,,,,,,,778.4400135510004,None,778.4400135510004,None,778.4400135510004,None,c,0,1.5458169869998528,779.973516404003,None,779.973516404003,None,779.973516404003,None,781.5734249199995,None,781.5734249199995,None,781.5734249199995,None,781.5734249199995,None,,,,,,,,,,,,,,,,,,,,,,,,,,,,,,,,,,,,,,,,,,,,001,42,2020_Jan_30_1324,spring_faces,3.1.5,60.02693564592292,
condition files/Stage1_2.xlsx,,T2,B1,c,"['c', 'm']","['Clue', 'Monopoly']","[-0.15, 0.5]","[0.15, 0.5]",1,1,,,,,,,,,0,9,9,9,0,3,3,1,,,,,,,,,,,,,,,,,,,,,,,,,,,,,,,,,,,,,,,,,,,,,,,,,,,,,,,783.539986451,None,783.539986451,None,783.539986451,None,m,0,0.6198571960012487,785.0755106739998,None,785.0755106739998,None,785.0755106739998,None,785.7729787820026,None,785.7729787820026,None,785.7729787820026,None,785.7729787820026,None,,,,,,,,,,,,,,,,,,,,,,,,,,,,,,,,,,,,,,,,,,,,001,42,2020_Jan_30_1324,spring_faces,3.1.5,60.02693564592292,
condition files/Stage1_2.xlsx,,B4,T3,c,"['c', 'm']","['Clue', 'Monopoly']","[-0.15, 0.5]","[0.15, 0.5]",1,1,,,,,,,,,0,9,9,9,0,4,4,5,,,,,,,,,,,,,,,,,,,,,,,,,,,,,,,,,,,,,,,,,,,,,,,,,,,,,,,787.7233550560013,None,787.7233550560013,None,787.7233550560013,None,m,0,1.3980444659973728,789.2573083300013,None,789.2573083300013,None,789.2573083300013,None,790.7068942180013,None,790.7068942180013,None,790.7068942180013,None,790.7068942180013,None,,,,,,,,,,,,,,,,,,,,,,,,,,,,,,,,,,,,,,,,,,,,001,42,2020_Jan_30_1324,spring_faces,3.1.5,60.02693564592292,
condition files/Stage1_2.xlsx,,B1,T1,c,"['c', 'm']","['Clue', 'Monopoly']","[-0.15, 0.5]","[0.15, 0.5]",1,1,,,,,,,,,0,9,9,9,0,5,5,0,,,,,,,,,,,,,,,,,,,,,,,,,,,,,,,,,,,,,,,,,,,,,,,,,,,,,,,792.672988145001,None,792.672988145001,None,792.672988145001,None,c,1,2.8007549190006102,794.2065320140027,None,794.2065320140027,None,794.2065320140027,None,797.0738302940008,None,797.0738302940008,None,797.0738302940008,None,797.0738302940008,None,,,,,,,,,,,,,,,,,,,,,,,,,,,,,,,,,,,,,,,,,,,,001,42,2020_Jan_30_1324,spring_faces,3.1.5,60.02693564592292,
condition files/Stage1_2.xlsx,,T4,B4,m,"['c', 'm']","['Clue', 'Monopoly']","[-0.15, 0.5]","[0.15, 0.5]",1,1,,,,,,,,,0,9,9,9,0,6,6,7,,,,,,,,,,,,,,,,,,,,,,,,,,,,,,,,,,,,,,,,,,,,,,,,,,,,,,,799.0399636610018,None,799.0399636610018,None,799.0399636610018,None,m,1,0.9438994900010584,800.5753852650014,None,800.5753852650014,None,800.5753852650014,None,801.5749897830028,None,801.5749897830028,None,801.5749897830028,None,801.5749897830028,None,,,,,,,,,,,,,,,,,,,,,,,,,,,,,,,,,,,,,,,,,,,,001,42,2020_Jan_30_1324,spring_faces,3.1.5,60.02693564592292,
condition files/Stage1_2.xlsx,,T3,B3,c,"['c', 'm']","['Clue', 'Monopoly']","[-0.15, 0.5]","[0.15, 0.5]",1,1,,,,,,,,,0,9,9,9,0,7,7,4,,,,,,,,,,,,,,,,,,,,,,,,,,,,,,,,,,,,,,,,,,,,,,,,,,,,,,,803.5395442810004,None,803.5395442810004,None,803.5395442810004,None,m,0,2.174252401000558,805.0731712600027,None,805.0731712600027,None,805.0731712600027,None,807.3234183430031,None,807.3234183430031,None,807.3234183430031,None,807.3234183430031,None,,,,,,,,,,,,,,,,,,,,,,,,,,,,,,,,,,,,,,,,,,,,001,42,2020_Jan_30_1324,spring_faces,3.1.5,60.02693564592292,
condition files/Stage1_1.xlsx,,T3,B4,c,"['c', 'm']","['Clue', 'Monopoly']","[-0.15, 0.5]","[0.15, 0.5]",1,1,,,,,,,,,0,10,10,10,0,0,0,5,,,,,,,,,,,,,,,,,,,,,,,,,,,,,,,,,,,,,,,,,,,,,,,,,,,,,,,809.2901111730025,None,809.2901111730025,None,809.2901111730025,None,c,1,0.6950492110008781,810.8402428549998,None,810.8402428549998,None,810.8402428549998,None,811.5902297030007,None,811.5902297030007,None,811.5902297030007,None,811.5902297030007,None,,,,,,,,,,,,,,,,,,,,,,,,,,,,,,,,,,,,,,,,,,,,001,42,2020_Jan_30_1324,spring_faces,3.1.5,60.02693564592292,
condition files/Stage1_1.xlsx,,B3,T3,c,"['c', 'm']","['Clue', 'Monopoly']","[-0.15, 0.5]","[0.15, 0.5]",1,1,,,,,,,,,0,10,10,10,0,1,1,4,,,,,,,,,,,,,,,,,,,,,,,,,,,,,,,,,,,,,,,,,,,,,,,,,,,,,,,813.5566047540015,None,813.5566047540015,None,813.5566047540015,None,m,0,2.139021599999978,815.0923702,None,815.0923702,None,815.0923702,None,817.2901038580021,None,817.2901038580021,None,817.2901038580021,None,817.2901038580021,None,,,,,,,,,,,,,,,,,,,,,,,,,,,,,,,,,,,,,,,,,,,,001,42,2020_Jan_30_1324,spring_faces,3.1.5,60.02693564592292,
condition files/Stage1_1.xlsx,,T2,B2,m,"['c', 'm']","['Clue', 'Monopoly']","[-0.15, 0.5]","[0.15, 0.5]",1,1,,,,,,,,,0,10,10,10,0,2,2,3,,,,,,,,,,,,,,,,,,,,,,,,,,,,,,,,,,,,,,,,,,,,,,,,,,,,,,,819.2564672670014,None,819.2564672670014,None,819.2564672670014,None,m,1,1.3364296889994876,820.8069276150018,None,820.8069276150018,None,820.8069276150018,None,822.2231061210005,None,822.2231061210005,None,822.2231061210005,None,822.2231061210005,None,,,,,,,,,,,,,,,,,,,,,,,,,,,,,,,,,,,,,,,,,,,,001,42,2020_Jan_30_1324,spring_faces,3.1.5,60.02693564592292,
condition files/Stage1_1.xlsx,,T4,B3,m,"['c', 'm']","['Clue', 'Monopoly']","[-0.15, 0.5]","[0.15, 0.5]",1,1,,,,,,,,,0,10,10,10,0,3,3,6,,,,,,,,,,,,,,,,,,,,,,,,,,,,,,,,,,,,,,,,,,,,,,,,,,,,,,,824.173306476001,None,824.173306476001,None,824.173306476001,None,m,1,1.1249875180001254,825.7063950219999,None,825.7063950219999,None,825.7063950219999,None,826.8902395010009,None,826.8902395010009,None,826.8902395010009,None,826.8902395010009,None,,,,,,,,,,,,,,,,,,,,,,,,,,,,,,,,,,,,,,,,,,,,001,42,2020_Jan_30_1324,spring_faces,3.1.5,60.02693564592292,
condition files/Stage1_1.xlsx,,B2,T1,m,"['c', 'm']","['Clue', 'Monopoly']","[-0.15, 0.5]","[0.15, 0.5]",1,1,,,,,,,,,0,10,10,10,0,4,4,2,,,,,,,,,,,,,,,,,,,,,,,,,,,,,,,,,,,,,,,,,,,,,,,,,,,,,,,828.856132424,None,828.856132424,None,828.856132424,None,c,0,0.7126278610012378,830.3907491690006,None,830.3907491690006,None,830.3907491690006,None,831.1568468799996,None,831.1568468799996,None,831.1568468799996,None,831.1568468799996,None,,,,,,,,,,,,,,,,,,,,,,,,,,,,,,,,,,,,,,,,,,,,001,42,2020_Jan_30_1324,spring_faces,3.1.5,60.02693564592292,
condition files/Stage1_1.xlsx,,T1,B1,c,"['c', 'm']","['Clue', 'Monopoly']","[-0.15, 0.5]","[0.15, 0.5]",1,1,,,,,,,,,0,10,10,10,0,5,5,0,,,,,,,,,,,,,,,,,,,,,,,,,,,,,,,,,,,,,,,,,,,,,,,,,,,,,,,833.1233114570023,None,833.1233114570023,None,833.1233114570023,None,c,1,2.9267556609993335,834.6566067759995,None,834.6566067759995,None,834.6566067759995,None,837.6408613000021,None,837.6408613000021,None,837.6408613000021,None,837.6408613000021,None,,,,,,,,,,,,,,,,,,,,,,,,,,,,,,,,,,,,,,,,,,,,001,42,2020_Jan_30_1324,spring_faces,3.1.5,60.02693564592292,
condition files/Stage1_1.xlsx,,B4,T4,m,"['c', 'm']","['Clue', 'Monopoly']","[-0.15, 0.5]","[0.15, 0.5]",1,1,,,,,,,,,0,10,10,10,0,6,6,7,,,,,,,,,,,,,,,,,,,,,,,,,,,,,,,,,,,,,,,,,,,,,,,,,,,,,,,839.6064936340008,None,839.6064936340008,None,839.6064936340008,None,m,1,1.0352652840010705,841.1400703880026,None,841.1400703880026,None,841.1400703880026,None,842.2428803980001,None,842.2428803980001,None,842.2428803980001,None,842.2428803980001,None,,,,,,,,,,,,,,,,,,,,,,,,,,,,,,,,,,,,,,,,,,,,001,42,2020_Jan_30_1324,spring_faces,3.1.5,60.02693564592292,
condition files/Stage1_1.xlsx,,B1,T2,c,"['c', 'm']","['Clue', 'Monopoly']","[-0.15, 0.5]","[0.15, 0.5]",1,1,,,,,,,,,0,10,10,10,0,7,7,1,,,,,,,,,,,,,,,,,,,,,,,,,,,,,,,,,,,,,,,,,,,,,,,,,,,,,,,844.2067330940008,None,844.2067330940008,None,844.2067330940008,None,m,0,2.9480967189992953,845.7392329380018,None,845.7392329380018,None,845.7392329380018,None,848.7404256830014,None,848.7404256830014,None,848.7404256830014,None,848.7404256830014,None,,,,,,,,,,,,,,,,,,,,,,,,,,,,,,,,,,,,,,,,,,,,001,42,2020_Jan_30_1324,spring_faces,3.1.5,60.02693564592292,
condition files/Stage1_2.xlsx,,B4,T3,c,"['c', 'm']","['Clue', 'Monopoly']","[-0.15, 0.5]","[0.15, 0.5]",1,1,,,,,,,,,0,11,11,11,0,0,0,5,,,,,,,,,,,,,,,,,,,,,,,,,,,,,,,,,,,,,,,,,,,,,,,,,,,,,,,850.7235340410007,None,850.7235340410007,None,850.7235340410007,None,m,0,3.7887991739989957,852.258611848003,None,852.258611848003,None,852.258611848003,None,856.106878134,None,856.106878134,None,856.106878134,None,856.106878134,None,,,,,,,,,,,,,,,,,,,,,,,,,,,,,,,,,,,,,,,,,,,,001,42,2020_Jan_30_1324,spring_faces,3.1.5,60.02693564592292,
condition files/Stage1_2.xlsx,,B1,T1,c,"['c', 'm']","['Clue', 'Monopoly']","[-0.15, 0.5]","[0.15, 0.5]",1,1,,,,,,,,,0,11,11,11,0,1,1,0,,,,,,,,,,,,,,,,,,,,,,,,,,,,,,,,,,,,,,,,,,,,,,,,,,,,,,,858.0724750549998,None,858.0724750549998,None,858.0724750549998,None,c,1,0.47162462000051164,859.6077431900012,None,859.6077431900012,None,859.6077431900012,None,860.1403631360008,None,860.1403631360008,None,860.1403631360008,None,860.1403631360008,None,,,,,,,,,,,,,,,,,,,,,,,,,,,,,,,,,,,,,,,,,,,,001,42,2020_Jan_30_1324,spring_faces,3.1.5,60.02693564592292,
condition files/Stage1_2.xlsx,,T2,B1,c,"['c', 'm']","['Clue', 'Monopoly']","[-0.15, 0.5]","[0.15, 0.5]",1,1,,,,,,,,,0,11,11,11,0,2,2,1,,,,,,,,,,,,,,,,,,,,,,,,,,,,,,,,,,,,,,,,,,,,,,,,,,,,,,,862.1066904350009,None,862.1066904350009,None,862.1066904350009,None,m,0,2.0222527849982725,863.6411108009997,None,863.6411108009997,None,863.6411108009997,None,865.7233147110019,None,865.7233147110019,None,865.7233147110019,None,865.7233147110019,None,,,,,,,,,,,,,,,,,,,,,,,,,,,,,,,,,,,,,,,,,,,,001,42,2020_Jan_30_1324,spring_faces,3.1.5,60.02693564592292,
condition files/Stage1_2.xlsx,,T4,B4,m,"['c', 'm']","['Clue', 'Monopoly']","[-0.15, 0.5]","[0.15, 0.5]",1,1,,,,,,,,,0,11,11,11,0,3,3,7,,,,,,,,,,,,,,,,,,,,,,,,,,,,,,,,,,,,,,,,,,,,,,,,,,,,,,,867.6900322900001,None,867.6900322900001,None,867.6900322900001,None,m,1,1.334721309998713,869.2246397250019,None,869.2246397250019,None,869.2246397250019,None,870.6400656559999,None,870.6400656559999,None,870.6400656559999,None,870.6400656559999,None,,,,,,,,,,,,,,,,,,,,,,,,,,,,,,,,,,,,,,,,,,,,001,42,2020_Jan_30_1324,spring_faces,3.1.5,60.02693564592292,
condition files/Stage1_2.xlsx,,B3,T4,m,"['c', 'm']","['Clue', 'Monopoly']","[-0.15, 0.5]","[0.15, 0.5]",1,1,,,,,,,,,0,11,11,11,0,4,4,6,,,,,,,,,,,,,,,,,,,,,,,,,,,,,,,,,,,,,,,,,,,,,,,,,,,,,,,872.5901235600031,None,872.5901235600031,None,872.5901235600031,None,m,1,0.8681394689992885,874.123162654003,None,874.123162654003,None,874.123162654003,None,875.0573231250019,None,875.0573231250019,None,875.0573231250019,None,875.0573231250019,None,,,,,,,,,,,,,,,,,,,,,,,,,,,,,,,,,,,,,,,,,,,,001,42,2020_Jan_30_1324,spring_faces,3.1.5,60.02693564592292,
condition files/Stage1_2.xlsx,,T3,B3,c,"['c', 'm']","['Clue', 'Monopoly']","[-0.15, 0.5]","[0.15, 0.5]",1,1,,,,,,,,,0,11,11,11,0,5,5,4,,,,,,,,,,,,,,,,,,,,,,,,,,,,,,,,,,,,,,,,,,,,,,,,,,,,,,,877.0230459930026,None,877.0230459930026,None,877.0230459930026,None,c,1,0.738749189000373,878.5566129170002,None,878.5566129170002,None,878.5566129170002,None,879.3571830190012,None,879.3571830190012,None,879.3571830190012,None,879.3571830190012,None,,,,,,,,,,,,,,,,,,,,,,,,,,,,,,,,,,,,,,,,,,,,001,42,2020_Jan_30_1324,spring_faces,3.1.5,60.02693564592292,
condition files/Stage1_2.xlsx,,B2,T2,m,"['c', 'm']","['Clue', 'Monopoly']","[-0.15, 0.5]","[0.15, 0.5]",1,1,,,,,,,,,0,11,11,11,0,6,6,3,,,,,,,,,,,,,,,,,,,,,,,,,,,,,,,,,,,,,,,,,,,,,,,,,,,,,,,881.3233008919997,None,881.3233008919997,None,881.3233008919997,None,m,1,0.9506767029997718,882.856629306003,None,882.856629306003,None,882.856629306003,None,883.8737894590013,None,883.8737894590013,None,883.8737894590013,None,883.8737894590013,None,,,,,,,,,,,,,,,,,,,,,,,,,,,,,,,,,,,,,,,,,,,,001,42,2020_Jan_30_1324,spring_faces,3.1.5,60.02693564592292,
condition files/Stage1_2.xlsx,,T1,B2,m,"['c', 'm']","['Clue', 'Monopoly']","[-0.15, 0.5]","[0.15, 0.5]",1,1,,,,,,,,,0,11,11,11,0,7,7,2,,,,,,,,,,,,,,,,,,,,,,,,,,,,,,,,,,,,,,,,,,,,,,,,,,,,,,,885.8399569020003,None,885.8399569020003,None,885.8399569020003,None,c,0,0.8649716500003706,887.3744031030001,None,887.3744031030001,None,887.3744031030001,None,888.2902158360012,None,888.2902158360012,None,888.2902158360012,None,888.2902158360012,None,,,,,,,,,,,,,,,,,,,,,,,,,,,,,,,,,,,,,,,,,,,,001,42,2020_Jan_30_1324,spring_faces,3.1.5,60.02693564592292,
,,,,,,,,,,,,,,,,,,,,,,,,,,,,,,,,,,,,,,,,,,,,,,,,,,,,,,,,,,,,,,,,,,,,,,,,,,,,,,,,,,,,,,,,,,,,,,,,,,,,,,,,,,,,,,,,890.2735211200015,None,space,7.862011331999383,895.2733266899995,None,,,,,,,,,,,,,,,,,,,,,,,,,,,,,,001,42,2020_Jan_30_1324,spring_faces,3.1.5,60.02693564592292,
condition files/Stage2_1.xlsx,,B4,T4,r,"['s', 'r']","['Stratego', 'Risk']","[-0.15, 0.5]","[0.15, 0.5]",1,1,,,,,,,,,,,,,,,,,0,0,0,0,0,0,0,5,,,,,,,,,,,,,,,,,,,,,,,,,,,,,,,,,,,,,,,,,,,,,,,903.1897616940005,None,903.1897616940005,None,903.1897616940005,None,r,1,0.8909609239999554,904.7083073780013,None,904.7083073780013,None,904.7083073780013,None,905.6594951950028,None,905.6594951950028,None,905.6594951950028,None,905.6594951950028,None,,,,,,,,,,,,,,,895.2733266899995,None,,,,,,,,,,,,,,,,,,,,,,,,,,,,001,42,2020_Jan_30_1324,spring_faces,3.1.5,60.02693564592292,
condition files/Stage2_1.xlsx,,B6,T6,r,"['s', 'r']","['Stratego', 'Risk']","[-0.15, 0.5]","[0.15, 0.5]",1,1,,,,,,,,,,,,,,,,,0,0,0,0,0,1,1,1,,,,,,,,,,,,,,,,,,,,,,,,,,,,,,,,,,,,,,,,,,,,,,,907.6226238810013,None,907.6226238810013,None,907.6226238810013,None,s,0,0.7305053600030078,909.1727912580027,None,909.1727912580027,None,909.1727912580027,None,909.9568241380002,None,909.9568241380002,None,909.9568241380002,None,909.9568241380002,None,,,,,,,,,,,,,,,,,,,,,,,,,,,,,,,,,,,,,,,,,,,,001,42,2020_Jan_30_1324,spring_faces,3.1.5,60.02693564592292,
condition files/Stage2_1.xlsx,,T3,B3,s,"['s', 'r']","['Stratego', 'Risk']","[-0.15, 0.5]","[0.15, 0.5]",1,1,,,,,,,,,,,,,,,,,0,0,0,0,0,2,2,4,,,,,,,,,,,,,,,,,,,,,,,,,,,,,,,,,,,,,,,,,,,,,,,911.9231542950001,None,911.9231542950001,None,911.9231542950001,None,s,1,1.8216488739999477,913.4736288580025,None,913.4736288580025,None,913.4736288580025,None,915.3591321800013,None,915.3591321800013,None,915.3591321800013,None,915.3591321800013,None,,,,,,,,,,,,,,,,,,,,,,,,,,,,,,,,,,,,,,,,,,,,001,42,2020_Jan_30_1324,spring_faces,3.1.5,60.02693564592292,
condition files/Stage2_1.xlsx,,T1,B1,s,"['s', 'r']","['Stratego', 'Risk']","[-0.15, 0.5]","[0.15, 0.5]",1,1,,,,,,,,,,,,,,,,,0,0,0,0,0,3,3,2,,,,,,,,,,,,,,,,,,,,,,,,,,,,,,,,,,,,,,,,,,,,,,,917.3232739150008,None,917.3232739150008,None,917.3232739150008,None,r,0,0.5488884780024819,918.858405297,None,918.858405297,None,918.858405297,None,919.4737283540017,None,919.4737283540017,None,919.4737283540017,None,919.4737283540017,None,,,,,,,,,,,,,,,,,,,,,,,,,,,,,,,,,,,,,,,,,,,,001,42,2020_Jan_30_1324,spring_faces,3.1.5,60.02693564592292,
condition files/Stage2_1.xlsx,,B2,T2,r,"['s', 'r']","['Stratego', 'Risk']","[-0.15, 0.5]","[0.15, 0.5]",1,1,,,,,,,,,,,,,,,,,0,0,0,0,0,4,4,3,,,,,,,,,,,,,,,,,,,,,,,,,,,,,,,,,,,,,,,,,,,,,,,921.4399646460006,None,921.4399646460006,None,921.4399646460006,None,r,1,0.9776557690020127,922.9736641950003,None,922.9736641950003,None,922.9736641950003,None,924.0092480519997,None,924.0092480519997,None,924.0092480519997,None,924.0092480519997,None,,,,,,,,,,,,,,,,,,,,,,,,,,,,,,,,,,,,,,,,,,,,001,42,2020_Jan_30_1324,spring_faces,3.1.5,60.02693564592292,
condition files/Stage2_1.xlsx,,T5,B5,s,"['s', 'r']","['Stratego', 'Risk']","[-0.15, 0.5]","[0.15, 0.5]",1,1,,,,,,,,,,,,,,,,,0,0,0,0,0,5,5,0,,,,,,,,,,,,,,,,,,,,,,,,,,,,,,,,,,,,,,,,,,,,,,,925.9732421020017,None,925.9732421020017,None,925.9732421020017,None,s,1,0.7162222780025331,927.5071689880024,None,927.5071689880024,None,927.5071689880024,None,928.2751067650024,None,928.2751067650024,None,928.2751067650024,None,928.2751067650024,None,,,,,,,,,,,,,,,,,,,,,,,,,,,,,,,,,,,,,,,,,,,,001,42,2020_Jan_30_1324,spring_faces,3.1.5,60.02693564592292,
condition files/Stage2_2.xlsx,,T2,B2,r,"['s', 'r']","['Stratego', 'Risk']","[-0.15, 0.5]","[0.15, 0.5]",1,1,,,,,,,,,,,,,,,,,0,1,1,1,0,0,0,3,,,,,,,,,,,,,,,,,,,,,,,,,,,,,,,,,,,,,,,,,,,,,,,930.2568059420009,None,930.2568059420009,None,930.2568059420009,None,s,0,0.9443578120008169,931.7910029600025,None,931.7910029600025,None,931.7910029600025,None,932.8068889189999,None,932.8068889189999,None,932.8068889189999,None,932.8068889189999,None,,,,,,,,,,,,,,,,,,,,,,,,,,,,,,,,,,,,,,,,,,,,001,42,2020_Jan_30_1324,spring_faces,3.1.5,60.02693564592292,
condition files/Stage2_2.xlsx,,T4,B4,r,"['s', 'r']","['Stratego', 'Risk']","[-0.15, 0.5]","[0.15, 0.5]",1,1,,,,,,,,,,,,,,,,,0,1,1,1,0,1,1,5,,,,,,,,,,,,,,,,,,,,,,,,,,,,,,,,,,,,,,,,,,,,,,,934.7563672910001,None,934.7563672910001,None,934.7563672910001,None,r,1,0.36449127800005954,936.3068341340004,None,936.3068341340004,None,936.3068341340004,None,936.7238023770005,None,936.7238023770005,None,936.7238023770005,None,936.7238023770005,None,,,,,,,,,,,,,,,,,,,,,,,,,,,,,,,,,,,,,,,,,,,,001,42,2020_Jan_30_1324,spring_faces,3.1.5,60.02693564592292,
condition files/Stage2_2.xlsx,,B5,T5,s,"['s', 'r']","['Stratego', 'Risk']","[-0.15, 0.5]","[0.15, 0.5]",1,1,,,,,,,,,,,,,,,,,0,1,1,1,0,2,2,0,,,,,,,,,,,,,,,,,,,,,,,,,,,,,,,,,,,,,,,,,,,,,,,938.6896747179999,None,938.6896747179999,None,938.6896747179999,None,s,1,0.5431924629992864,940.2242171940015,None,940.2242171940015,None,940.2242171940015,None,940.8249103859998,None,940.8249103859998,None,940.8249103859998,None,940.8249103859998,None,,,,,,,,,,,,,,,,,,,,,,,,,,,,,,,,,,,,,,,,,,,,001,42,2020_Jan_30_1324,spring_faces,3.1.5,60.02693564592292,
condition files/Stage2_2.xlsx,,B3,T3,s,"['s', 'r']","['Stratego', 'Risk']","[-0.15, 0.5]","[0.15, 0.5]",1,1,,,,,,,,,,,,,,,,,0,1,1,1,0,3,3,4,,,,,,,,,,,,,,,,,,,,,,,,,,,,,,,,,,,,,,,,,,,,,,,942.7899964630014,None,942.7899964630014,None,942.7899964630014,None,r,0,0.2505835140000272,944.3248059260004,None,944.3248059260004,None,944.3248059260004,None,944.6397784170003,None,944.6397784170003,None,944.6397784170003,None,944.6397784170003,None,,,,,,,,,,,,,,,,,,,,,,,,,,,,,,,,,,,,,,,,,,,,001,42,2020_Jan_30_1324,spring_faces,3.1.5,60.02693564592292,
condition files/Stage2_2.xlsx,,T6,B6,r,"['s', 'r']","['Stratego', 'Risk']","[-0.15, 0.5]","[0.15, 0.5]",1,1,,,,,,,,,,,,,,,,,0,1,1,1,0,4,4,1,,,,,,,,,,,,,,,,,,,,,,,,,,,,,,,,,,,,,,,,,,,,,,,946.6066288370021,None,946.6066288370021,None,946.6066288370021,None,r,1,0.25879872999939835,948.1566096620008,None,948.1566096620008,None,948.1566096620008,None,948.4744749970014,None,948.4744749970014,None,948.4744749970014,None,948.4744749970014,None,,,,,,,,,,,,,,,,,,,,,,,,,,,,,,,,,,,,,,,,,,,,001,42,2020_Jan_30_1324,spring_faces,3.1.5,60.02693564592292,
condition files/Stage2_2.xlsx,,B1,T1,s,"['s', 'r']","['Stratego', 'Risk']","[-0.15, 0.5]","[0.15, 0.5]",1,1,,,,,,,,,,,,,,,,,0,1,1,1,0,5,5,2,,,,,,,,,,,,,,,,,,,,,,,,,,,,,,,,,,,,,,,,,,,,,,,950.4395500470018,None,950.4395500470018,None,950.4395500470018,None,s,1,0.8739154919967405,951.9734873060006,None,951.9734873060006,None,951.9734873060006,None,952.9087792820028,None,952.9087792820028,None,952.9087792820028,None,952.9087792820028,None,,,,,,,,,,,,,,,,,,,,,,,,,,,,,,,,,,,,,,,,,,,,001,42,2020_Jan_30_1324,spring_faces,3.1.5,60.02693564592292,
condition files/Stage2_1.xlsx,,B6,T6,r,"['s', 'r']","['Stratego', 'Risk']","[-0.15, 0.5]","[0.15, 0.5]",1,1,,,,,,,,,,,,,,,,,0,2,2,2,0,0,0,1,,,,,,,,,,,,,,,,,,,,,,,,,,,,,,,,,,,,,,,,,,,,,,,954.8901907850013,None,954.8901907850013,None,954.8901907850013,None,s,0,0.6956811240015668,956.4236243590021,None,956.4236243590021,None,956.4236243590021,None,957.1902116849997,None,957.1902116849997,None,957.1902116849997,None,957.1902116849997,None,,,,,,,,,,,,,,,,,,,,,,,,,,,,,,,,,,,,,,,,,,,,001,42,2020_Jan_30_1324,spring_faces,3.1.5,60.02693564592292,
condition files/Stage2_1.xlsx,,T3,B3,s,"['s', 'r']","['Stratego', 'Risk']","[-0.15, 0.5]","[0.15, 0.5]",1,1,,,,,,,,,,,,,,,,,0,2,2,2,0,1,1,4,,,,,,,,,,,,,,,,,,,,,,,,,,,,,,,,,,,,,,,,,,,,,,,959.140144074001,None,959.140144074001,None,959.140144074001,None,r,0,0.2539168980001705,960.6734419660024,None,960.6734419660024,None,960.6734419660024,None,960.9921439940008,None,960.9921439940008,None,960.9921439940008,None,960.9921439940008,None,,,,,,,,,,,,,,,,,,,,,,,,,,,,,,,,,,,,,,,,,,,,001,42,2020_Jan_30_1324,spring_faces,3.1.5,60.02693564592292,
condition files/Stage2_1.xlsx,,B2,T2,r,"['s', 'r']","['Stratego', 'Risk']","[-0.15, 0.5]","[0.15, 0.5]",1,1,,,,,,,,,,,,,,,,,0,2,2,2,0,2,2,3,,,,,,,,,,,,,,,,,,,,,,,,,,,,,,,,,,,,,,,,,,,,,,,962.9566216210005,None,962.9566216210005,None,962.9566216210005,None,r,1,1.0135381530017185,964.4899528610003,None,964.4899528610003,None,964.4899528610003,None,965.5735787740014,None,965.5735787740014,None,965.5735787740014,None,965.5735787740014,None,,,,,,,,,,,,,,,,,,,,,,,,,,,,,,,,,,,,,,,,,,,,001,42,2020_Jan_30_1324,spring_faces,3.1.5,60.02693564592292,
condition files/Stage2_1.xlsx,,T5,B5,s,"['s', 'r']","['Stratego', 'Risk']","[-0.15, 0.5]","[0.15, 0.5]",1,1,,,,,,,,,,,,,,,,,0,2,2,2,0,3,3,0,,,,,,,,,,,,,,,,,,,,,,,,,,,,,,,,,,,,,,,,,,,,,,,967.5234070879997,None,967.5234070879997,None,967.5234070879997,None,s,1,0.7499597669993818,969.057344629,None,969.057344629,None,969.057344629,None,969.8735528990001,None,969.8735528990001,None,969.8735528990001,None,969.8735528990001,None,,,,,,,,,,,,,,,,,,,,,,,,,,,,,,,,,,,,,,,,,,,,001,42,2020_Jan_30_1324,spring_faces,3.1.5,60.02693564592292,
condition files/Stage2_1.xlsx,,B4,T4,r,"['s', 'r']","['Stratego', 'Risk']","[-0.15, 0.5]","[0.15, 0.5]",1,1,,,,,,,,,,,,,,,,,0,2,2,2,0,4,4,5,,,,,,,,,,,,,,,,,,,,,,,,,,,,,,,,,,,,,,,,,,,,,,,971.839464765002,None,971.839464765002,None,971.839464765002,None,r,1,0.7051393469992036,973.3741585600001,None,973.3741585600001,None,973.3741585600001,None,974.1569489190006,None,974.1569489190006,None,974.1569489190006,None,974.1569489190006,None,,,,,,,,,,,,,,,,,,,,,,,,,,,,,,,,,,,,,,,,,,,,001,42,2020_Jan_30_1324,spring_faces,3.1.5,60.02693564592292,
condition files/Stage2_1.xlsx,,T1,B1,s,"['s', 'r']","['Stratego', 'Risk']","[-0.15, 0.5]","[0.15, 0.5]",1,1,,,,,,,,,,,,,,,,,0,2,2,2,0,5,5,2,,,,,,,,,,,,,,,,,,,,,,,,,,,,,,,,,,,,,,,,,,,,,,,976.1065469830028,None,976.1065469830028,None,976.1065469830028,None,r,0,2.263455373002216,977.6398989510017,None,977.6398989510017,None,977.6398989510017,None,979.9732079150017,None,979.9732079150017,None,979.9732079150017,None,979.9732079150017,None,,,,,,,,,,,,,,,,,,,,,,,,,,,,,,,,,,,,,,,,,,,,001,42,2020_Jan_30_1324,spring_faces,3.1.5,60.02693564592292,
condition files/Stage2_2.xlsx,,B3,T3,s,"['s', 'r']","['Stratego', 'Risk']","[-0.15, 0.5]","[0.15, 0.5]",1,1,,,,,,,,,,,,,,,,,0,3,3,3,0,0,0,4,,,,,,,,,,,,,,,,,,,,,,,,,,,,,,,,,,,,,,,,,,,,,,,981.9397366550002,None,981.9397366550002,None,981.9397366550002,None,s,1,1.0376448839997465,983.4737281570015,None,983.4737281570015,None,983.4737281570015,None,984.573748887,None,984.573748887,None,984.573748887,None,984.573748887,None,,,,,,,,,,,,,,,,,,,,,,,,,,,,,,,,,,,,,,,,,,,,001,42,2020_Jan_30_1324,spring_faces,3.1.5,60.02693564592292,
condition files/Stage2_2.xlsx,,B5,T5,s,"['s', 'r']","['Stratego', 'Risk']","[-0.15, 0.5]","[0.15, 0.5]",1,1,,,,,,,,,,,,,,,,,0,3,3,3,0,1,1,0,,,,,,,,,,,,,,,,,,,,,,,,,,,,,,,,,,,,,,,,,,,,,,,986.5399303270024,None,986.5399303270024,None,986.5399303270024,None,s,1,0.7569850690015301,988.0744197080021,None,988.0744197080021,None,988.0744197080021,None,988.8896757840012,None,988.8896757840012,None,988.8896757840012,None,988.8896757840012,None,,,,,,,,,,,,,,,,,,,,,,,,,,,,,,,,,,,,,,,,,,,,001,42,2020_Jan_30_1324,spring_faces,3.1.5,60.02693564592292,
condition files/Stage2_2.xlsx,,B1,T1,s,"['s', 'r']","['Stratego', 'Risk']","[-0.15, 0.5]","[0.15, 0.5]",1,1,,,,,,,,,,,,,,,,,0,3,3,3,0,2,2,2,,,,,,,,,,,,,,,,,,,,,,,,,,,,,,,,,,,,,,,,,,,,,,,990.8568459779999,None,990.8568459779999,None,990.8568459779999,None,r,0,0.5855879769987951,992.3897538769997,None,992.3897538769997,None,992.3897538769997,None,993.0394988890002,None,993.0394988890002,None,993.0394988890002,None,993.0394988890002,None,,,,,,,,,,,,,,,,,,,,,,,,,,,,,,,,,,,,,,,,,,,,001,42,2020_Jan_30_1324,spring_faces,3.1.5,60.02693564592292,
condition files/Stage2_2.xlsx,,T6,B6,r,"['s', 'r']","['Stratego', 'Risk']","[-0.15, 0.5]","[0.15, 0.5]",1,1,,,,,,,,,,,,,,,,,0,3,3,3,0,3,3,1,,,,,,,,,,,,,,,,,,,,,,,,,,,,,,,,,,,,,,,,,,,,,,,995.0064824410001,None,995.0064824410001,None,995.0064824410001,None,s,0,1.234921266001038,996.5563635220024,None,996.5563635220024,None,996.5563635220024,None,997.8581501010012,None,997.8581501010012,None,997.8581501010012,None,997.8581501010012,None,,,,,,,,,,,,,,,,,,,,,,,,,,,,,,,,,,,,,,,,,,,,001,42,2020_Jan_30_1324,spring_faces,3.1.5,60.02693564592292,
condition files/Stage2_2.xlsx,,T2,B2,r,"['s', 'r']","['Stratego', 'Risk']","[-0.15, 0.5]","[0.15, 0.5]",1,1,,,,,,,,,,,,,,,,,0,3,3,3,0,4,4,3,,,,,,,,,,,,,,,,,,,,,,,,,,,,,,,,,,,,,,,,,,,,,,,999.8233823500013,None,999.8233823500013,None,999.8233823500013,None,r,1,0.7697271479992196,1001.3736331310029,None,1001.3736331310029,None,1001.3736331310029,None,1002.2069024120028,None,1002.2069024120028,None,1002.2069024120028,None,1002.2069024120028,None,,,,,,,,,,,,,,,,,,,,,,,,,,,,,,,,,,,,,,,,,,,,001,42,2020_Jan_30_1324,spring_faces,3.1.5,60.02693564592292,
condition files/Stage2_2.xlsx,,T4,B4,r,"['s', 'r']","['Stratego', 'Risk']","[-0.15, 0.5]","[0.15, 0.5]",1,1,,,,,,,,,,,,,,,,,0,3,3,3,0,5,5,5,,,,,,,,,,,,,,,,,,,,,,,,,,,,,,,,,,,,,,,,,,,,,,,1004.1734288629996,None,1004.1734288629996,None,1004.1734288629996,None,r,1,0.819750381000631,1005.7076214610024,None,1005.7076214610024,None,1005.7076214610024,None,1006.5901821070001,None,1006.5901821070001,None,1006.5901821070001,None,1006.5901821070001,None,,,,,,,,,,,,,,,,,,,,,,,,,,,,,,,,,,,,,,,,,,,,001,42,2020_Jan_30_1324,spring_faces,3.1.5,60.02693564592292,
condition files/Stage2_1.xlsx,,B2,T2,r,"['s', 'r']","['Stratego', 'Risk']","[-0.15, 0.5]","[0.15, 0.5]",1,1,,,,,,,,,,,,,,,,,0,4,4,4,0,0,0,3,,,,,,,,,,,,,,,,,,,,,,,,,,,,,,,,,,,,,,,,,,,,,,,1008.5733394210001,None,1008.5733394210001,None,1008.5733394210001,None,s,0,1.25184817400077,1010.1234991600031,None,1010.1234991600031,None,1010.1234991600031,None,1011.439891596001,None,1011.439891596001,None,1011.439891596001,None,1011.439891596001,None,,,,,,,,,,,,,,,,,,,,,,,,,,,,,,,,,,,,,,,,,,,,001,42,2020_Jan_30_1324,spring_faces,3.1.5,60.02693564592292,
condition files/Stage2_1.xlsx,,B4,T4,r,"['s', 'r']","['Stratego', 'Risk']","[-0.15, 0.5]","[0.15, 0.5]",1,1,,,,,,,,,,,,,,,,,0,4,4,4,0,1,1,5,,,,,,,,,,,,,,,,,,,,,,,,,,,,,,,,,,,,,,,,,,,,,,,1013.4066166960001,None,1013.4066166960001,None,1013.4066166960001,None,r,1,0.40269143199839164,1014.956660212003,None,1014.956660212003,None,1014.956660212003,None,1015.4230283569996,None,1015.4230283569996,None,1015.4230283569996,None,1015.4230283569996,None,,,,,,,,,,,,,,,,,,,,,,,,,,,,,,,,,,,,,,,,,,,,001,42,2020_Jan_30_1324,spring_faces,3.1.5,60.02693564592292,
condition files/Stage2_1.xlsx,,T1,B1,s,"['s', 'r']","['Stratego', 'Risk']","[-0.15, 0.5]","[0.15, 0.5]",1,1,,,,,,,,,,,,,,,,,0,4,4,4,0,2,2,2,,,,,,,,,,,,,,,,,,,,,,,,,,,,,,,,,,,,,,,,,,,,,,,1017.3897288410008,None,1017.3897288410008,None,1017.3897288410008,None,r,0,0.7232023280012072,1018.924182722003,None,1018.924182722003,None,1018.924182722003,None,1019.7083578500024,None,1019.7083578500024,None,1019.7083578500024,None,1019.7083578500024,None,,,,,,,,,,,,,,,,,,,,,,,,,,,,,,,,,,,,,,,,,,,,001,42,2020_Jan_30_1324,spring_faces,3.1.5,60.02693564592292,
condition files/Stage2_1.xlsx,,T3,B3,s,"['s', 'r']","['Stratego', 'Risk']","[-0.15, 0.5]","[0.15, 0.5]",1,1,,,,,,,,,,,,,,,,,0,4,4,4,0,3,3,4,,,,,,,,,,,,,,,,,,,,,,,,,,,,,,,,,,,,,,,,,,,,,,,1021.6727976610018,None,1021.6727976610018,None,1021.6727976610018,None,s,1,0.7287564389989711,1023.2065374800004,None,1023.2065374800004,None,1023.2065374800004,None,1023.9894935320008,None,1023.9894935320008,None,1023.9894935320008,None,1023.9894935320008,None,,,,,,,,,,,,,,,,,,,,,,,,,,,,,,,,,,,,,,,,,,,,001,42,2020_Jan_30_1324,spring_faces,3.1.5,60.02693564592292,
