condsFile,subStage,cue1,cue2,correct,responseKeys,responseNames,cue1Position,cue2Position,cue1Opacity,cue2Opacity,stageLoop0.thisRepN,stageLoop0.thisTrialN,stageLoop0.thisN,stageLoop0.thisIndex,blockLoop0.thisRepN,blockLoop0.thisTrialN,blockLoop0.thisN,blockLoop0.thisIndex,stage1Loop.thisRepN,stage1Loop.thisTrialN,stage1Loop.thisN,stage1Loop.thisIndex,blockLoop1.thisRepN,blockLoop1.thisTrialN,blockLoop1.thisN,blockLoop1.thisIndex,stage2Loop.thisRepN,stage2Loop.thisTrialN,stage2Loop.thisN,stage2Loop.thisIndex,blockLoop2.thisRepN,blockLoop2.thisTrialN,blockLoop2.thisN,blockLoop2.thisIndex,testLoop.thisRepN,testLoop.thisTrialN,testLoop.thisN,testLoop.thisIndex,blockLoopTest.thisRepN,blockLoopTest.thisTrialN,blockLoopTest.thisN,blockLoopTest.thisIndex,cuePics,id_instr_text.started,id_instr_text.stopped,space_to_continue_2.started,space_to_continue_2.stopped,end_instructions_resp_3.keys,end_instructions_resp_3.rt,end_instructions_resp_3.started,end_instructions_resp_3.stopped,id_input_instr.started,id_input_instr.stopped,id_input_rect.started,id_input_rect.stopped,id_input_resp.keys,id_input_resp.rt,id_input_resp.started,id_input_resp.stopped,sonaID,id_input_text.started,id_input_text.stopped,final_text.started,final_text.stopped,instructions.started,instructions.stopped,end_instructions_resp.keys,end_instructions_resp.rt,end_instructions_resp.started,end_instructions_resp.stopped,space_to_continue.started,space_to_continue.stopped,instructions_stage0.started,instructions_stage0.stopped,end_instructions_resp_stage0.keys,end_instructions_resp_stage0.rt,end_instructions_resp_stage0.started,end_instructions_resp_stage0.stopped,space_to_continue_stage0.started,space_to_continue_stage0.stopped,text.started,text.stopped,resp_text1.started,resp_text1.stopped,resp_text2.started,resp_text2.stopped,trial_resp.keys,trial_resp.corr,trial_resp.rt,trial_resp.started,trial_resp.stopped,cue1Image.started,cue1Image.stopped,cue2Image.started,cue2Image.stopped,cue1Image_fb.started,cue1Image_fb.stopped,cue2Image_fb.started,cue2Image_fb.stopped,fb_text_answer.started,fb_text_answer.stopped,feedback_image.started,feedback_image.stopped,instructions_stage1.started,instructions_stage1.stopped,end_instructions_resp_stage1.keys,end_instructions_resp_stage1.rt,end_instructions_resp_stage1.started,end_instructions_resp_stage1.stopped,space_to_continue_stage1.started,space_to_continue_stage1.stopped,instructions_2.started,instructions_2.stopped,end_instructions_resp_2.keys,end_instructions_resp_2.rt,end_instructions_resp_2.started,end_instructions_resp_2.stopped,press_space_to_continue_stage2.started,press_space_to_continue_stage2.stopped,instructions_testStage1.started,instructions_testStage1.stopped,end_instructions_resp_test1.keys,end_instructions_resp_test1.rt,end_instructions_resp_test1.started,end_instructions_resp_test1.stopped,press_space_to_continue_test1.started,press_space_to_continue_test1.stopped,cue1Image_testChoice.started,cue1Image_testChoice.stopped,cue2Image_testChoice.started,cue2Image_testChoice.stopped,test_resp.keys,test_resp.corr,test_resp.rt,test_resp.started,test_resp.stopped,cue1Image_testConf.started,cue1Image_testConf.stopped,cue2Image_testConf.started,cue2Image_testConf.stopped,conf_reminder.started,conf_reminder.stopped,conf_rating.response,conf_rating.rt,conf_rating.started,conf_rating.stopped,session,participant,date,expName,psychopyVersion,frameRate,
,,,,,,,,,,,,,,,,,,,,,,,,,,,,,,,,,,,,,,,,,,,"{'none': 'pictures/20M_AN_C.png', 'alpha': 'pictures/SHINEd_pear.png', 'beta': 'pictures/SHINEd_melon.png', 'theta': 'pictures/SHINEd_apple.png', 'phi': 'pictures/SHINEd_pepper.png', 'T1': 'pictures/26M_AN_C.png', 'T2': 'pictures/20M_AN_C.png', 'T3': 'pictures/36M_AN_C.png', 'T4': 'pictures/37M_AN_C.png', 'T5': 'pictures/31M_AN_C.png', 'T6': 'pictures/38M_AN_C.png', 'B1': 'pictures/22M_NE_C.png', 'B2': 'pictures/33M_NE_C.png', 'B3': 'pictures/32M_NE_C.png', 'B4': 'pictures/34M_NE_C.png', 'B5': 'pictures/23M_NE_C.png', 'B6': 'pictures/25M_NE_C.png'}",14.004979900000762,None,19.005417189000582,None,space,16.89667211699998,19.005417189000582,None,,,,,,,,,,,,,,,,,,,,,,,,,,,,,,,,,,,,,,,,,,,,,,,,,,,,,,,,,,,,,,,,,,,,,,,,,,,,,,,,,,,,,,,,,,,,,,,,001,43,2020_Jan_30_1358,spring_faces,3.1.5,60.062138245531536,
,,,,,,,,,,,,,,,,,,,,,,,,,,,,,,,,,,,,,,,,,,,,,,,,,,,,36.30564117600079,None,36.30564117600079,None,"['f', 'backspace', 'n', 'i', 'backspace', 'backspace', 's', 'e', 'n', 'i', 'backspace', 'backspace', 'backspace', 'backspace', 'backspace', '0', '5', 'backspace', '9', '2', '0', 'm', 'a', 's', 'backspace', 'f', 'r', 'a']","[12.044496056998469, 12.876579038998898, 27.756541654998728, 28.07654921199719, 28.412475490997167, 28.63653004200023, 36.92457607799952, 37.260576868997305, 41.32456715999797, 42.31653751699923, 45.10045136699773, 45.35653452999759, 45.51654796599905, 45.69260709399896, 45.8684638909981, 54.684483540000656, 55.116570842998044, 58.18854223000017, 58.97251615799905, 64.46044438399986, 64.62053704199934, 67.69258943299792, 67.78854134199719, 70.50857902899952, 70.9885398869992, 73.4524712709972, 73.6124693189995, 73.72456819799845]",36.30564117600079,None,,,,,,,,,,,,,,,,,,,,,,,,,,,,,,,,,,,,,,,,,,,,,,,,,,,,,,,,,,,,,,,,,,,,,,,,,,,,,,,,,,,,,,,,001,43,2020_Jan_30_1358,spring_faces,3.1.5,60.062138245531536,
,,,,,,,,,,,,,,,,,,,,,,,,,,,,,,,,,,,,,,,,,,,,,,,,,,,,,,,,,,,,0920mafra,36.30564117600079,None,36.30564117600079,None,115.10605563300123,None,space,6.772695616000419,120.10553781300041,None,,,,,,,,,,,,,,,,,,,,,,,,,,,,,,,,,,,,,,,,,,,,,,,,,,,,,,,,,,,,,,,,,,,,,,,,,,,,,001,43,2020_Jan_30_1358,spring_faces,3.1.5,60.062138245531536,
,,,,,,,,,,,,,,,,,,,,,,,,,,,,,,,,,,,,,,,,,,,,,,,,,,,,,,,,,,,,,,,,,,,,,,,120.10553781300041,None,126.92237047999879,None,space,6.476600981000956,131.90562321199832,None,,,,,,,,,,,,,,,,,,,,,,,,,,,,,,,,,,,,,,,,,,,,,,,,,,,,,,,,,,,,,,,,,,,,,001,43,2020_Jan_30_1358,spring_faces,3.1.5,60.062138245531536,
condition files/Stage0a.xlsx,0a,alpha,none,h,"['h', 'g']","['Chess', 'Go']","[0, 0.5]","[0, 0]",1,0,0,0,0,0,0,0,0,0,,,,,,,,,,,,,,,,,,,,,,,,,,,,,,,,,,,,,,,,,,,,,,,,,,,,,,,,,,,,,131.90562321199832,None,138.4384768839991,None,138.4384768839991,None,138.4384768839991,None,h,1,1.5886791750017437,139.99353862800126,None,139.99353862800126,None,139.99353862800126,None,141.65561166499901,None,141.65561166499901,None,141.65561166499901,None,141.65561166499901,None,,,,,,,,,,,,,,,,,,,,,,,,,,,,,,,,,,,,,,,,,,,,001,43,2020_Jan_30_1358,spring_faces,3.1.5,60.062138245531536,
condition files/Stage0a.xlsx,0a,beta,none,g,"['h', 'g']","['Chess', 'Go']","[0, 0.5]","[0, 0]",1,0,0,0,0,0,0,1,1,1,,,,,,,,,,,,,,,,,,,,,,,,,,,,,,,,,,,,,,,,,,,,,,,,,,,,,,,,,,,,,,,143.60525995900025,None,143.60525995900025,None,143.60525995900025,None,g,1,0.7937923760000558,145.14039424300063,None,145.14039424300063,None,145.14039424300063,None,145.9882196139988,None,145.9882196139988,None,145.9882196139988,None,145.9882196139988,None,,,,,,,,,,,,,,,,,,,,,,,,,,,,,,,,,,,,,,,,,,,,001,43,2020_Jan_30_1358,spring_faces,3.1.5,60.062138245531536,
condition files/Stage0a.xlsx,0a,alpha,none,h,"['h', 'g']","['Chess', 'Go']","[0, 0.5]","[0, 0]",1,0,0,1,1,1,0,0,0,0,,,,,,,,,,,,,,,,,,,,,,,,,,,,,,,,,,,,,,,,,,,,,,,,,,,,,,,,,,,,,,,147.97194275699803,None,147.97194275699803,None,147.97194275699803,None,h,1,0.6822728400002234,149.50787510399823,None,149.50787510399823,None,149.50787510399823,None,150.27241637000043,None,150.27241637000043,None,150.27241637000043,None,150.27241637000043,None,,,,,,,,,,,,,,,,,,,,,,,,,,,,,,,,,,,,,,,,,,,,001,43,2020_Jan_30_1358,spring_faces,3.1.5,60.062138245531536,
condition files/Stage0a.xlsx,0a,beta,none,g,"['h', 'g']","['Chess', 'Go']","[0, 0.5]","[0, 0]",1,0,0,1,1,1,0,1,1,1,,,,,,,,,,,,,,,,,,,,,,,,,,,,,,,,,,,,,,,,,,,,,,,,,,,,,,,,,,,,,,,152.22218296199935,None,152.22218296199935,None,152.22218296199935,None,g,1,0.8669386030014721,153.75527931399847,None,153.75527931399847,None,153.75527931399847,None,154.67193005100125,None,154.67193005100125,None,154.67193005100125,None,154.67193005100125,None,,,,,,,,,,,,,,,,,,,,,,,,,,,,,,,,,,,,,,,,,,,,001,43,2020_Jan_30_1358,spring_faces,3.1.5,60.062138245531536,
condition files/Stage0a.xlsx,0a,alpha,none,h,"['h', 'g']","['Chess', 'Go']","[0, 0.5]","[0, 0]",1,0,0,2,2,2,0,0,0,0,,,,,,,,,,,,,,,,,,,,,,,,,,,,,,,,,,,,,,,,,,,,,,,,,,,,,,,,,,,,,,,156.65581786599796,None,156.65581786599796,None,156.65581786599796,None,h,1,0.5776488250012335,158.1724878649984,None,158.1724878649984,None,158.1724878649984,None,158.8050250640008,None,158.8050250640008,None,158.8050250640008,None,158.8050250640008,None,,,,,,,,,,,,,,,,,,,,,,,,,,,,,,,,,,,,,,,,,,,,001,43,2020_Jan_30_1358,spring_faces,3.1.5,60.062138245531536,
condition files/Stage0a.xlsx,0a,beta,none,g,"['h', 'g']","['Chess', 'Go']","[0, 0.5]","[0, 0]",1,0,0,2,2,2,0,1,1,1,,,,,,,,,,,,,,,,,,,,,,,,,,,,,,,,,,,,,,,,,,,,,,,,,,,,,,,,,,,,,,,160.77234611300082,None,160.77234611300082,None,160.77234611300082,None,g,1,0.6689061949982715,162.30524962900017,None,162.30524962900017,None,162.30524962900017,None,163.03902980699786,None,163.03902980699786,None,163.03902980699786,None,163.03902980699786,None,,,,,,,,,,,,,,,,,,,,,,,,,,,,,,,,,,,,,,,,,,,,001,43,2020_Jan_30_1358,spring_faces,3.1.5,60.062138245531536,
condition files/Stage0a.xlsx,0a,beta,none,g,"['h', 'g']","['Chess', 'Go']","[0, 0.5]","[0, 0]",1,0,0,3,3,3,0,0,0,1,,,,,,,,,,,,,,,,,,,,,,,,,,,,,,,,,,,,,,,,,,,,,,,,,,,,,,,,,,,,,,,165.02229185200122,None,165.02229185200122,None,165.02229185200122,None,h,0,0.514746713997738,166.55543198300074,None,166.55543198300074,None,166.55543198300074,None,167.12265741100055,None,167.12265741100055,None,167.12265741100055,None,167.12265741100055,None,,,,,,,,,,,,,,,,,,,,,,,,,,,,,,,,,,,,,,,,,,,,001,43,2020_Jan_30_1358,spring_faces,3.1.5,60.062138245531536,
condition files/Stage0a.xlsx,0a,alpha,none,h,"['h', 'g']","['Chess', 'Go']","[0, 0.5]","[0, 0]",1,0,0,3,3,3,0,1,1,0,,,,,,,,,,,,,,,,,,,,,,,,,,,,,,,,,,,,,,,,,,,,,,,,,,,,,,,,,,,,,,,169.08863127899895,None,169.08863127899895,None,169.08863127899895,None,g,0,2.288244138999289,170.62194298399845,None,170.62194298399845,None,170.62194298399845,None,172.972499943,None,172.972499943,None,172.972499943,None,172.972499943,None,,,,,,,,,,,,,,,,,,,,,,,,,,,,,,,,,,,,,,,,,,,,001,43,2020_Jan_30_1358,spring_faces,3.1.5,60.062138245531536,
condition files/Stage0a.xlsx,0a,alpha,none,h,"['h', 'g']","['Chess', 'Go']","[0, 0.5]","[0, 0]",1,0,0,4,4,4,0,0,0,0,,,,,,,,,,,,,,,,,,,,,,,,,,,,,,,,,,,,,,,,,,,,,,,,,,,,,,,,,,,,,,,174.95574275699983,None,174.95574275699983,None,174.95574275699983,None,h,1,0.9013655989983818,176.488769855001,None,176.488769855001,None,176.488769855001,None,177.4560499649997,None,177.4560499649997,None,177.4560499649997,None,177.4560499649997,None,,,,,,,,,,,,,,,,,,,,,,,,,,,,,,,,,,,,,,,,,,,,001,43,2020_Jan_30_1358,spring_faces,3.1.5,60.062138245531536,
condition files/Stage0a.xlsx,0a,beta,none,g,"['h', 'g']","['Chess', 'Go']","[0, 0.5]","[0, 0]",1,0,0,4,4,4,0,1,1,1,,,,,,,,,,,,,,,,,,,,,,,,,,,,,,,,,,,,,,,,,,,,,,,,,,,,,,,,,,,,,,,179.42210932499802,None,179.42210932499802,None,179.42210932499802,None,g,1,1.0752326130022993,180.9549745359982,None,180.9549745359982,None,180.9549745359982,None,182.08886729499864,None,182.08886729499864,None,182.08886729499864,None,182.08886729499864,None,,,,,,,,,,,,,,,,,,,,,,,,,,,,,,,,,,,,,,,,,,,,001,43,2020_Jan_30_1358,spring_faces,3.1.5,60.062138245531536,
condition files/Stage0a.xlsx,0a,beta,none,g,"['h', 'g']","['Chess', 'Go']","[0, 0.5]","[0, 0]",1,0,0,5,5,5,0,0,0,1,,,,,,,,,,,,,,,,,,,,,,,,,,,,,,,,,,,,,,,,,,,,,,,,,,,,,,,,,,,,,,,184.07215997599997,None,184.07215997599997,None,184.07215997599997,None,g,1,0.6008373939985177,185.6052969429984,None,185.6052969429984,None,185.6052969429984,None,186.27231164499972,None,186.27231164499972,None,186.27231164499972,None,186.27231164499972,None,,,,,,,,,,,,,,,,,,,,,,,,,,,,,,,,,,,,,,,,,,,,001,43,2020_Jan_30_1358,spring_faces,3.1.5,60.062138245531536,
condition files/Stage0a.xlsx,0a,alpha,none,h,"['h', 'g']","['Chess', 'Go']","[0, 0.5]","[0, 0]",1,0,0,5,5,5,0,1,1,0,,,,,,,,,,,,,,,,,,,,,,,,,,,,,,,,,,,,,,,,,,,,,,,,,,,,,,,,,,,,,,,188.23878716599938,None,188.23878716599938,None,188.23878716599938,None,h,1,1.0259516659971268,189.7723121960007,None,189.7723121960007,None,189.7723121960007,None,190.85563020300106,None,190.85563020300106,None,190.85563020300106,None,190.85563020300106,None,,,,,,,,,,,,,,,,,,,,,,,,,,,,,,,,,,,,,,,,,,,,001,43,2020_Jan_30_1358,spring_faces,3.1.5,60.062138245531536,
condition files/Stage0b_1.xlsx,0b,alpha,none,h,"['h', 'g']","['Chess', 'Go']","[-0.15, 0.5]","[0.15, 0.5]",1,0,0,6,6,6,0,0,0,0,,,,,,,,,,,,,,,,,,,,,,,,,,,,,,,,,,,,,,,,,,,,,,,,,,,,,,,,,,,,,,,192.8386853000011,None,192.8386853000011,None,192.8386853000011,None,g,0,0.6343720330005453,194.3717607159997,None,194.3717607159997,None,194.3717607159997,None,195.0723779430009,None,195.0723779430009,None,195.0723779430009,None,195.0723779430009,None,,,,,,,,,,,,,,,,,,,,,,,,,,,,,,,,,,,,,,,,,,,,001,43,2020_Jan_30_1358,spring_faces,3.1.5,60.062138245531536,
condition files/Stage0b_1.xlsx,0b,none,beta,g,"['h', 'g']","['Chess', 'Go']","[-0.15, 0.5]","[0.15, 0.5]",0,1,0,6,6,6,0,1,1,1,,,,,,,,,,,,,,,,,,,,,,,,,,,,,,,,,,,,,,,,,,,,,,,,,,,,,,,,,,,,,,,197.03806513399832,None,197.03806513399832,None,197.03806513399832,None,g,1,1.0572128500025428,198.58905993399821,None,198.58905993399821,None,198.58905993399821,None,199.71034104199862,None,199.71034104199862,None,199.71034104199862,None,199.71034104199862,None,,,,,,,,,,,,,,,,,,,,,,,,,,,,,,,,,,,,,,,,,,,,001,43,2020_Jan_30_1358,spring_faces,3.1.5,60.062138245531536,
condition files/Stage0b_2.xlsx,0b,none,alpha,h,"['h', 'g']","['Chess', 'Go']","[-0.15, 0.5]","[0.15, 0.5]",0,1,0,7,7,7,0,0,0,0,,,,,,,,,,,,,,,,,,,,,,,,,,,,,,,,,,,,,,,,,,,,,,,,,,,,,,,,,,,,,,,201.6887915719999,None,201.6887915719999,None,201.6887915719999,None,g,0,0.6637158490011643,203.22244825300004,None,203.22244825300004,None,203.22244825300004,None,203.939529244999,None,203.939529244999,None,203.939529244999,None,203.939529244999,None,,,,,,,,,,,,,,,,,,,,,,,,,,,,,,,,,,,,,,,,,,,,001,43,2020_Jan_30_1358,spring_faces,3.1.5,60.062138245531536,
condition files/Stage0b_2.xlsx,0b,beta,none,g,"['h', 'g']","['Chess', 'Go']","[-0.15, 0.5]","[0.15, 0.5]",1,0,0,7,7,7,0,1,1,1,,,,,,,,,,,,,,,,,,,,,,,,,,,,,,,,,,,,,,,,,,,,,,,,,,,,,,,,,,,,,,,205.9048537790004,None,205.9048537790004,None,205.9048537790004,None,g,1,0.9096318070005509,207.45660068099824,None,207.45660068099824,None,207.45660068099824,None,208.42735982999875,None,208.42735982999875,None,208.42735982999875,None,208.42735982999875,None,,,,,,,,,,,,,,,,,,,,,,,,,,,,,,,,,,,,,,,,,,,,001,43,2020_Jan_30_1358,spring_faces,3.1.5,60.062138245531536,
condition files/Stage0b_1.xlsx,0b,none,beta,g,"['h', 'g']","['Chess', 'Go']","[-0.15, 0.5]","[0.15, 0.5]",0,1,0,8,8,8,0,0,0,1,,,,,,,,,,,,,,,,,,,,,,,,,,,,,,,,,,,,,,,,,,,,,,,,,,,,,,,,,,,,,,,210.405309638998,None,210.405309638998,None,210.405309638998,None,g,1,0.553743068001495,211.94046823199824,None,211.94046823199824,None,211.94046823199824,None,212.55601450299946,None,212.55601450299946,None,212.55601450299946,None,212.55601450299946,None,,,,,,,,,,,,,,,,,,,,,,,,,,,,,,,,,,,,,,,,,,,,001,43,2020_Jan_30_1358,spring_faces,3.1.5,60.062138245531536,
condition files/Stage0b_1.xlsx,0b,alpha,none,h,"['h', 'g']","['Chess', 'Go']","[-0.15, 0.5]","[0.15, 0.5]",1,0,0,8,8,8,0,1,1,0,,,,,,,,,,,,,,,,,,,,,,,,,,,,,,,,,,,,,,,,,,,,,,,,,,,,,,,,,,,,,,,214.52225077799812,None,214.52225077799812,None,214.52225077799812,None,g,0,0.5823706009978196,216.07180400200014,None,216.07180400200014,None,216.07180400200014,None,216.7114407529989,None,216.7114407529989,None,216.7114407529989,None,216.7114407529989,None,,,,,,,,,,,,,,,,,,,,,,,,,,,,,,,,,,,,,,,,,,,,001,43,2020_Jan_30_1358,spring_faces,3.1.5,60.062138245531536,
condition files/Stage0b_2.xlsx,0b,none,alpha,h,"['h', 'g']","['Chess', 'Go']","[-0.15, 0.5]","[0.15, 0.5]",0,1,0,9,9,9,0,0,0,0,,,,,,,,,,,,,,,,,,,,,,,,,,,,,,,,,,,,,,,,,,,,,,,,,,,,,,,,,,,,,,,218.68924377800067,None,218.68924377800067,None,218.68924377800067,None,h,1,0.8131203689990798,220.22508171799927,None,220.22508171799927,None,220.22508171799927,None,221.08915020399945,None,221.08915020399945,None,221.08915020399945,None,221.08915020399945,None,,,,,,,,,,,,,,,,,,,,,,,,,,,,,,,,,,,,,,,,,,,,001,43,2020_Jan_30_1358,spring_faces,3.1.5,60.062138245531536,
condition files/Stage0b_2.xlsx,0b,beta,none,g,"['h', 'g']","['Chess', 'Go']","[-0.15, 0.5]","[0.15, 0.5]",1,0,0,9,9,9,0,1,1,1,,,,,,,,,,,,,,,,,,,,,,,,,,,,,,,,,,,,,,,,,,,,,,,,,,,,,,,,,,,,,,,223.05557014000078,None,223.05557014000078,None,223.05557014000078,None,g,1,0.8648974989991984,224.58929752399854,None,224.58929752399854,None,224.58929752399854,None,225.50641205400098,None,225.50641205400098,None,225.50641205400098,None,225.50641205400098,None,,,,,,,,,,,,,,,,,,,,,,,,,,,,,,,,,,,,,,,,,,,,001,43,2020_Jan_30_1358,spring_faces,3.1.5,60.062138245531536,
condition files/Stage0b_1.xlsx,0b,none,beta,g,"['h', 'g']","['Chess', 'Go']","[-0.15, 0.5]","[0.15, 0.5]",0,1,0,10,10,10,0,0,0,1,,,,,,,,,,,,,,,,,,,,,,,,,,,,,,,,,,,,,,,,,,,,,,,,,,,,,,,,,,,,,,,227.48928949900073,None,227.48928949900073,None,227.48928949900073,None,g,1,0.9876285610007471,229.02659491400118,None,229.02659491400118,None,229.02659491400118,None,230.07205708499896,None,230.07205708499896,None,230.07205708499896,None,230.07205708499896,None,,,,,,,,,,,,,,,,,,,,,,,,,,,,,,,,,,,,,,,,,,,,001,43,2020_Jan_30_1358,spring_faces,3.1.5,60.062138245531536,
condition files/Stage0b_1.xlsx,0b,alpha,none,h,"['h', 'g']","['Chess', 'Go']","[-0.15, 0.5]","[0.15, 0.5]",1,0,0,10,10,10,0,1,1,0,,,,,,,,,,,,,,,,,,,,,,,,,,,,,,,,,,,,,,,,,,,,,,,,,,,,,,,,,,,,,,,232.03837713599933,None,232.03837713599933,None,232.03837713599933,None,h,1,0.8882436730018526,233.57394670600115,None,233.57394670600115,None,233.57394670600115,None,234.5237841800008,None,234.5237841800008,None,234.5237841800008,None,234.5237841800008,None,,,,,,,,,,,,,,,,,,,,,,,,,,,,,,,,,,,,,,,,,,,,001,43,2020_Jan_30_1358,spring_faces,3.1.5,60.062138245531536,
condition files/Stage0b_2.xlsx,0b,none,alpha,h,"['h', 'g']","['Chess', 'Go']","[-0.15, 0.5]","[0.15, 0.5]",0,1,0,11,11,11,0,0,0,0,,,,,,,,,,,,,,,,,,,,,,,,,,,,,,,,,,,,,,,,,,,,,,,,,,,,,,,,,,,,,,,236.50476982100008,None,236.50476982100008,None,236.50476982100008,None,h,1,1.444210154000757,238.04196406600022,None,238.04196406600022,None,238.04196406600022,None,239.5386379499978,None,239.5386379499978,None,239.5386379499978,None,239.5386379499978,None,,,,,,,,,,,,,,,,,,,,,,,,,,,,,,,,,,,,,,,,,,,,001,43,2020_Jan_30_1358,spring_faces,3.1.5,60.062138245531536,
condition files/Stage0b_2.xlsx,0b,beta,none,g,"['h', 'g']","['Chess', 'Go']","[-0.15, 0.5]","[0.15, 0.5]",1,0,0,11,11,11,0,1,1,1,,,,,,,,,,,,,,,,,,,,,,,,,,,,,,,,,,,,,,,,,,,,,,,,,,,,,,,,,,,,,,,241.50476713700118,None,241.50476713700118,None,241.50476713700118,None,g,1,1.1024604580015875,243.0557301589979,None,243.0557301589979,None,243.0557301589979,None,244.2247979620006,None,244.2247979620006,None,244.2247979620006,None,244.2247979620006,None,,,,,,,,,,,,,,,,,,,,,,,,,,,,,,,,,,,,,,,,,,,,001,43,2020_Jan_30_1358,spring_faces,3.1.5,60.062138245531536,
condition files/Stage0c_1.xlsx,0c,alpha,phi,h,"['h', 'g']","['Chess', 'Go']","[-0.15, 0.5]","[0.15, 0.5]",1,1,0,12,12,12,0,0,0,1,,,,,,,,,,,,,,,,,,,,,,,,,,,,,,,,,,,,,,,,,,,,,,,,,,,,,,,,,,,,,,,246.2056104100011,None,246.2056104100011,None,246.2056104100011,None,h,1,2.6755146239993337,247.73871857300037,None,247.73871857300037,None,247.73871857300037,None,250.4720087780006,None,250.4720087780006,None,250.4720087780006,None,250.4720087780006,None,,,,,,,,,,,,,,,,,,,,,,,,,,,,,,,,,,,,,,,,,,,,001,43,2020_Jan_30_1358,spring_faces,3.1.5,60.062138245531536,
condition files/Stage0c_1.xlsx,0c,theta,alpha,h,"['h', 'g']","['Chess', 'Go']","[-0.15, 0.5]","[0.15, 0.5]",1,1,0,12,12,12,0,1,1,0,,,,,,,,,,,,,,,,,,,,,,,,,,,,,,,,,,,,,,,,,,,,,,,,,,,,,,,,,,,,,,,252.43819817500116,None,252.43819817500116,None,252.43819817500116,None,h,1,1.4661660500023572,253.97201676699842,None,253.97201676699842,None,253.97201676699842,None,255.48919610699886,None,255.48919610699886,None,255.48919610699886,None,255.48919610699886,None,,,,,,,,,,,,,,,,,,,,,,,,,,,,,,,,,,,,,,,,,,,,001,43,2020_Jan_30_1358,spring_faces,3.1.5,60.062138245531536,
condition files/Stage0c_1.xlsx,0c,beta,theta,g,"['h', 'g']","['Chess', 'Go']","[-0.15, 0.5]","[0.15, 0.5]",1,1,0,12,12,12,0,2,2,2,,,,,,,,,,,,,,,,,,,,,,,,,,,,,,,,,,,,,,,,,,,,,,,,,,,,,,,,,,,,,,,257.4554852330002,None,257.4554852330002,None,257.4554852330002,None,g,1,0.6730152309974073,258.98916342400116,None,258.98916342400116,None,258.98916342400116,None,259.72223813099845,None,259.72223813099845,None,259.72223813099845,None,259.72223813099845,None,,,,,,,,,,,,,,,,,,,,,,,,,,,,,,,,,,,,,,,,,,,,001,43,2020_Jan_30_1358,spring_faces,3.1.5,60.062138245531536,
condition files/Stage0c_1.xlsx,0c,phi,beta,g,"['h', 'g']","['Chess', 'Go']","[-0.15, 0.5]","[0.15, 0.5]",1,1,0,12,12,12,0,3,3,3,,,,,,,,,,,,,,,,,,,,,,,,,,,,,,,,,,,,,,,,,,,,,,,,,,,,,,,,,,,,,,,261.6888631929978,None,261.6888631929978,None,261.6888631929978,None,g,1,1.3837137160007842,263.22240262799824,None,263.22240262799824,None,263.22240262799824,None,264.6554161460008,None,264.6554161460008,None,264.6554161460008,None,264.6554161460008,None,,,,,,,,,,,,,,,,,,,,,,,,,,,,,,,,,,,,,,,,,,,,001,43,2020_Jan_30_1358,spring_faces,3.1.5,60.062138245531536,
condition files/Stage0c_2.xlsx,0c,alpha,theta,h,"['h', 'g']","['Chess', 'Go']","[-0.15, 0.5]","[0.15, 0.5]",1,1,0,13,13,13,0,0,0,0,,,,,,,,,,,,,,,,,,,,,,,,,,,,,,,,,,,,,,,,,,,,,,,,,,,,,,,,,,,,,,,266.6558789369992,None,266.6558789369992,None,266.6558789369992,None,h,1,0.8651288490000297,268.18907462100105,None,268.18907462100105,None,268.18907462100105,None,269.1056884190002,None,269.1056884190002,None,269.1056884190002,None,269.1056884190002,None,,,,,,,,,,,,,,,,,,,,,,,,,,,,,,,,,,,,,,,,,,,,001,43,2020_Jan_30_1358,spring_faces,3.1.5,60.062138245531536,
condition files/Stage0c_2.xlsx,0c,theta,beta,g,"['h', 'g']","['Chess', 'Go']","[-0.15, 0.5]","[0.15, 0.5]",1,1,0,13,13,13,0,1,1,2,,,,,,,,,,,,,,,,,,,,,,,,,,,,,,,,,,,,,,,,,,,,,,,,,,,,,,,,,,,,,,,271.0722053239988,None,271.0722053239988,None,271.0722053239988,None,g,1,1.0731975560011051,272.604971621,None,272.604971621,None,272.604971621,None,273.7390778480003,None,273.7390778480003,None,273.7390778480003,None,273.7390778480003,None,,,,,,,,,,,,,,,,,,,,,,,,,,,,,,,,,,,,,,,,,,,,001,43,2020_Jan_30_1358,spring_faces,3.1.5,60.062138245531536,
condition files/Stage0c_2.xlsx,0c,beta,phi,g,"['h', 'g']","['Chess', 'Go']","[-0.15, 0.5]","[0.15, 0.5]",1,1,0,13,13,13,0,2,2,3,,,,,,,,,,,,,,,,,,,,,,,,,,,,,,,,,,,,,,,,,,,,,,,,,,,,,,,,,,,,,,,275.70550540000113,None,275.70550540000113,None,275.70550540000113,None,g,1,1.0631266890013649,277.23917815499954,None,277.23917815499954,None,277.23917815499954,None,278.3391000880001,None,278.3391000880001,None,278.3391000880001,None,278.3391000880001,None,,,,,,,,,,,,,,,,,,,,,,,,,,,,,,,,,,,,,,,,,,,,001,43,2020_Jan_30_1358,spring_faces,3.1.5,60.062138245531536,
condition files/Stage0c_2.xlsx,0c,phi,alpha,h,"['h', 'g']","['Chess', 'Go']","[-0.15, 0.5]","[0.15, 0.5]",1,1,0,13,13,13,0,3,3,1,,,,,,,,,,,,,,,,,,,,,,,,,,,,,,,,,,,,,,,,,,,,,,,,,,,,,,,,,,,,,,,280.32221158500033,None,280.32221158500033,None,280.32221158500033,None,h,1,2.3023662470004638,281.85578508099934,None,281.85578508099934,None,281.85578508099934,None,284.2223453589977,None,284.2223453589977,None,284.2223453589977,None,284.2223453589977,None,,,,,,,,,,,,,,,,,,,,,,,,,,,,,,,,,,,,,,,,,,,,001,43,2020_Jan_30_1358,spring_faces,3.1.5,60.062138245531536,
condition files/Stage0c_1.xlsx,0c,beta,theta,g,"['h', 'g']","['Chess', 'Go']","[-0.15, 0.5]","[0.15, 0.5]",1,1,0,14,14,14,0,0,0,2,,,,,,,,,,,,,,,,,,,,,,,,,,,,,,,,,,,,,,,,,,,,,,,,,,,,,,,,,,,,,,,286.20575989899953,None,286.20575989899953,None,286.20575989899953,None,g,1,0.7071662019989162,287.7390471949984,None,287.7390471949984,None,287.7390471949984,None,288.50542608899923,None,288.50542608899923,None,288.50542608899923,None,288.50542608899923,None,,,,,,,,,,,,,,,,,,,,,,,,,,,,,,,,,,,,,,,,,,,,001,43,2020_Jan_30_1358,spring_faces,3.1.5,60.062138245531536,
condition files/Stage0c_1.xlsx,0c,alpha,phi,h,"['h', 'g']","['Chess', 'Go']","[-0.15, 0.5]","[0.15, 0.5]",1,1,0,14,14,14,0,1,1,1,,,,,,,,,,,,,,,,,,,,,,,,,,,,,,,,,,,,,,,,,,,,,,,,,,,,,,,,,,,,,,,290.47237889199823,None,290.47237889199823,None,290.47237889199823,None,h,1,0.9683703099981358,292.0057384089996,None,292.0057384089996,None,292.0057384089996,None,293.03930125400075,None,293.03930125400075,None,293.03930125400075,None,293.03930125400075,None,,,,,,,,,,,,,,,,,,,,,,,,,,,,,,,,,,,,,,,,,,,,001,43,2020_Jan_30_1358,spring_faces,3.1.5,60.062138245531536,
condition files/Stage0c_1.xlsx,0c,theta,alpha,h,"['h', 'g']","['Chess', 'Go']","[-0.15, 0.5]","[0.15, 0.5]",1,1,0,14,14,14,0,2,2,0,,,,,,,,,,,,,,,,,,,,,,,,,,,,,,,,,,,,,,,,,,,,,,,,,,,,,,,,,,,,,,,295.00550906900025,None,295.00550906900025,None,295.00550906900025,None,h,1,1.3470688380002684,296.53907741799776,None,296.53907741799776,None,296.53907741799776,None,297.9231973370006,None,297.9231973370006,None,297.9231973370006,None,297.9231973370006,None,,,,,,,,,,,,,,,,,,,,,,,,,,,,,,,,,,,,,,,,,,,,001,43,2020_Jan_30_1358,spring_faces,3.1.5,60.062138245531536,
condition files/Stage0c_1.xlsx,0c,phi,beta,g,"['h', 'g']","['Chess', 'Go']","[-0.15, 0.5]","[0.15, 0.5]",1,1,0,14,14,14,0,3,3,3,,,,,,,,,,,,,,,,,,,,,,,,,,,,,,,,,,,,,,,,,,,,,,,,,,,,,,,,,,,,,,,299.90753969100115,None,299.90753969100115,None,299.90753969100115,None,g,1,0.9748605839995435,301.43933997299973,None,301.43933997299973,None,301.43933997299973,None,302.47243625699775,None,302.47243625699775,None,302.47243625699775,None,302.47243625699775,None,,,,,,,,,,,,,,,,,,,,,,,,,,,,,,,,,,,,,,,,,,,,001,43,2020_Jan_30_1358,spring_faces,3.1.5,60.062138245531536,
condition files/Stage0c_2.xlsx,0c,phi,alpha,h,"['h', 'g']","['Chess', 'Go']","[-0.15, 0.5]","[0.15, 0.5]",1,1,0,15,15,15,0,0,0,1,,,,,,,,,,,,,,,,,,,,,,,,,,,,,,,,,,,,,,,,,,,,,,,,,,,,,,,,,,,,,,,304.4556183309978,None,304.4556183309978,None,304.4556183309978,None,h,1,1.1929284279976855,305.9892997959978,None,305.9892997959978,None,305.9892997959978,None,307.2392421209988,None,307.2392421209988,None,307.2392421209988,None,307.2392421209988,None,,,,,,,,,,,,,,,,,,,,,,,,,,,,,,,,,,,,,,,,,,,,001,43,2020_Jan_30_1358,spring_faces,3.1.5,60.062138245531536,
condition files/Stage0c_2.xlsx,0c,alpha,theta,h,"['h', 'g']","['Chess', 'Go']","[-0.15, 0.5]","[0.15, 0.5]",1,1,0,15,15,15,0,1,1,0,,,,,,,,,,,,,,,,,,,,,,,,,,,,,,,,,,,,,,,,,,,,,,,,,,,,,,,,,,,,,,,309.2054631329993,None,309.2054631329993,None,309.2054631329993,None,h,1,1.835266223999497,310.7388969659987,None,310.7388969659987,None,310.7388969659987,None,312.6219849299996,None,312.6219849299996,None,312.6219849299996,None,312.6219849299996,None,,,,,,,,,,,,,,,,,,,,,,,,,,,,,,,,,,,,,,,,,,,,001,43,2020_Jan_30_1358,spring_faces,3.1.5,60.062138245531536,
condition files/Stage0c_2.xlsx,0c,theta,beta,g,"['h', 'g']","['Chess', 'Go']","[-0.15, 0.5]","[0.15, 0.5]",1,1,0,15,15,15,0,2,2,2,,,,,,,,,,,,,,,,,,,,,,,,,,,,,,,,,,,,,,,,,,,,,,,,,,,,,,,,,,,,,,,314.6054134650003,None,314.6054134650003,None,314.6054134650003,None,g,1,1.107070826998097,316.1391273900008,None,316.1391273900008,None,316.1391273900008,None,317.30512218700096,None,317.30512218700096,None,317.30512218700096,None,317.30512218700096,None,,,,,,,,,,,,,,,,,,,,,,,,,,,,,,,,,,,,,,,,,,,,001,43,2020_Jan_30_1358,spring_faces,3.1.5,60.062138245531536,
condition files/Stage0c_2.xlsx,0c,beta,phi,g,"['h', 'g']","['Chess', 'Go']","[-0.15, 0.5]","[0.15, 0.5]",1,1,0,15,15,15,0,3,3,3,,,,,,,,,,,,,,,,,,,,,,,,,,,,,,,,,,,,,,,,,,,,,,,,,,,,,,,,,,,,,,,319.27213080100046,None,319.27213080100046,None,319.27213080100046,None,g,1,1.2406006819983304,320.805611724998,None,320.805611724998,None,320.805611724998,None,322.09045984099794,None,322.09045984099794,None,322.09045984099794,None,322.09045984099794,None,,,,,,,,,,,,,,,,,,,,,,,,,,,,,,,,,,,,,,,,,,,,001,43,2020_Jan_30_1358,spring_faces,3.1.5,60.062138245531536,
condition files/Stage0c_1.xlsx,0c,theta,alpha,h,"['h', 'g']","['Chess', 'Go']","[-0.15, 0.5]","[0.15, 0.5]",1,1,0,16,16,16,0,0,0,0,,,,,,,,,,,,,,,,,,,,,,,,,,,,,,,,,,,,,,,,,,,,,,,,,,,,,,,,,,,,,,,324.08875317599814,None,324.08875317599814,None,324.08875317599814,None,h,1,2.711962991998007,325.6222348589981,None,325.6222348589981,None,325.6222348589981,None,328.388350186,None,328.388350186,None,328.388350186,None,328.388350186,None,,,,,,,,,,,,,,,,,,,,,,,,,,,,,,,,,,,,,,,,,,,,001,43,2020_Jan_30_1358,spring_faces,3.1.5,60.062138245531536,
condition files/Stage0c_1.xlsx,0c,alpha,phi,h,"['h', 'g']","['Chess', 'Go']","[-0.15, 0.5]","[0.15, 0.5]",1,1,0,16,16,16,0,1,1,1,,,,,,,,,,,,,,,,,,,,,,,,,,,,,,,,,,,,,,,,,,,,,,,,,,,,,,,,,,,,,,,330.355653472001,None,330.355653472001,None,330.355653472001,None,h,1,1.181136854000215,331.8890294439989,None,331.8890294439989,None,331.8890294439989,None,333.1056859409982,None,333.1056859409982,None,333.1056859409982,None,333.1056859409982,None,,,,,,,,,,,,,,,,,,,,,,,,,,,,,,,,,,,,,,,,,,,,001,43,2020_Jan_30_1358,spring_faces,3.1.5,60.062138245531536,
condition files/Stage0c_1.xlsx,0c,phi,beta,g,"['h', 'g']","['Chess', 'Go']","[-0.15, 0.5]","[0.15, 0.5]",1,1,0,16,16,16,0,2,2,3,,,,,,,,,,,,,,,,,,,,,,,,,,,,,,,,,,,,,,,,,,,,,,,,,,,,,,,,,,,,,,,335.08880948099977,None,335.08880948099977,None,335.08880948099977,None,g,1,1.2641161150022526,336.62203130299895,None,336.62203130299895,None,336.62203130299895,None,337.93845213799796,None,337.93845213799796,None,337.93845213799796,None,337.93845213799796,None,,,,,,,,,,,,,,,,,,,,,,,,,,,,,,,,,,,,,,,,,,,,001,43,2020_Jan_30_1358,spring_faces,3.1.5,60.062138245531536,
condition files/Stage0c_1.xlsx,0c,beta,theta,g,"['h', 'g']","['Chess', 'Go']","[-0.15, 0.5]","[0.15, 0.5]",1,1,0,16,16,16,0,3,3,2,,,,,,,,,,,,,,,,,,,,,,,,,,,,,,,,,,,,,,,,,,,,,,,,,,,,,,,,,,,,,,,339.9053216579996,None,339.9053216579996,None,339.9053216579996,None,g,1,2.175099477000913,341.4391125660004,None,341.4391125660004,None,341.4391125660004,None,343.67254083999796,None,343.67254083999796,None,343.67254083999796,None,343.67254083999796,None,,,,,,,,,,,,,,,,,,,,,,,,,,,,,,,,,,,,,,,,,,,,001,43,2020_Jan_30_1358,spring_faces,3.1.5,60.062138245531536,
condition files/Stage0c_2.xlsx,0c,phi,alpha,h,"['h', 'g']","['Chess', 'Go']","[-0.15, 0.5]","[0.15, 0.5]",1,1,0,17,17,17,0,0,0,1,,,,,,,,,,,,,,,,,,,,,,,,,,,,,,,,,,,,,,,,,,,,,,,,,,,,,,,,,,,,,,,345.6556019790005,None,345.6556019790005,None,345.6556019790005,None,h,1,0.9378096309992543,347.18832178199955,None,347.18832178199955,None,347.18832178199955,None,348.1890783569979,None,348.1890783569979,None,348.1890783569979,None,348.1890783569979,None,,,,,,,,,,,,,,,,,,,,,,,,,,,,,,,,,,,,,,,,,,,,001,43,2020_Jan_30_1358,spring_faces,3.1.5,60.062138245531536,
condition files/Stage0c_2.xlsx,0c,theta,beta,g,"['h', 'g']","['Chess', 'Go']","[-0.15, 0.5]","[0.15, 0.5]",1,1,0,17,17,17,0,1,1,2,,,,,,,,,,,,,,,,,,,,,,,,,,,,,,,,,,,,,,,,,,,,,,,,,,,,,,,,,,,,,,,350.15546292,None,350.15546292,None,350.15546292,None,h,0,1.4454976820015872,351.68865701899995,None,351.68865701899995,None,351.68865701899995,None,353.188148868001,None,353.188148868001,None,353.188148868001,None,353.188148868001,None,,,,,,,,,,,,,,,,,,,,,,,,,,,,,,,,,,,,,,,,,,,,001,43,2020_Jan_30_1358,spring_faces,3.1.5,60.062138245531536,
condition files/Stage0c_2.xlsx,0c,alpha,theta,h,"['h', 'g']","['Chess', 'Go']","[-0.15, 0.5]","[0.15, 0.5]",1,1,0,17,17,17,0,2,2,0,,,,,,,,,,,,,,,,,,,,,,,,,,,,,,,,,,,,,,,,,,,,,,,,,,,,,,,,,,,,,,,355.1550608690013,None,355.1550608690013,None,355.1550608690013,None,h,1,2.013122528001986,356.689233926998,None,356.689233926998,None,356.689233926998,None,358.75574272800077,None,358.75574272800077,None,358.75574272800077,None,358.75574272800077,None,,,,,,,,,,,,,,,,,,,,,,,,,,,,,,,,,,,,,,,,,,,,001,43,2020_Jan_30_1358,spring_faces,3.1.5,60.062138245531536,
condition files/Stage0c_2.xlsx,0c,beta,phi,g,"['h', 'g']","['Chess', 'Go']","[-0.15, 0.5]","[0.15, 0.5]",1,1,0,17,17,17,0,3,3,3,,,,,,,,,,,,,,,,,,,,,,,,,,,,,,,,,,,,,,,,,,,,,,,,,,,,,,,,,,,,,,,360.7217283709979,None,360.7217283709979,None,360.7217283709979,None,g,1,1.582491529003164,362.2556872319983,None,362.2556872319983,None,362.2556872319983,None,363.88915588500095,None,363.88915588500095,None,363.88915588500095,None,363.88915588500095,None,,,,,,,,,,,,,,,,,,,,,,,,,,,,,,,,,,,,,,,,,,,,001,43,2020_Jan_30_1358,spring_faces,3.1.5,60.062138245531536,
,,,,,,,,,,,,,,,,,,,,,,,,,,,,,,,,,,,,,,,,,,,,,,,,,,,,,,,,,,,,,,,,,,,,,,,,,,,,,,,,,,,,,,,,,,,,,,,,,,,,,,,,365.872215004998,None,space,2.7579004099970916,370.8723364469988,None,,,,,,,,,,,,,,,,,,,,,,,,,,,,,,,,,,,,,,001,43,2020_Jan_30_1358,spring_faces,3.1.5,60.062138245531536,
condition files/Stage1_1.xlsx,,T4,B3,m,"['c', 'm']","['Clue', 'Monopoly']","[-0.15, 0.5]","[0.15, 0.5]",1,1,,,,,,,,,0,0,0,0,0,0,0,6,,,,,,,,,,,,,,,,,,,,,,,,,,,,,,,,,,,,,,,,,,,,,,,,,,,,,,,373.68885281300027,None,373.68885281300027,None,373.68885281300027,None,c,0,1.2408879169997817,375.2053502859999,None,375.2053502859999,None,375.2053502859999,None,376.52345606299787,None,376.52345606299787,None,376.52345606299787,None,376.52345606299787,None,,,,,,,370.8723364469988,None,,,,,,,,,,,,,,,,,,,,,,,,,,,,,,,,,,,,001,43,2020_Jan_30_1358,spring_faces,3.1.5,60.062138245531536,
condition files/Stage1_1.xlsx,,B2,T1,m,"['c', 'm']","['Clue', 'Monopoly']","[-0.15, 0.5]","[0.15, 0.5]",1,1,,,,,,,,,0,0,0,0,0,1,1,2,,,,,,,,,,,,,,,,,,,,,,,,,,,,,,,,,,,,,,,,,,,,,,,,,,,,,,,378.47217823900064,None,378.47217823900064,None,378.47217823900064,None,m,1,0.5676991250002175,380.0064791199984,None,380.0064791199984,None,380.0064791199984,None,380.6386538299994,None,380.6386538299994,None,380.6386538299994,None,380.6386538299994,None,,,,,,,,,,,,,,,,,,,,,,,,,,,,,,,,,,,,,,,,,,,,001,43,2020_Jan_30_1358,spring_faces,3.1.5,60.062138245531536,
condition files/Stage1_1.xlsx,,B1,T2,c,"['c', 'm']","['Clue', 'Monopoly']","[-0.15, 0.5]","[0.15, 0.5]",1,1,,,,,,,,,0,0,0,0,0,2,2,1,,,,,,,,,,,,,,,,,,,,,,,,,,,,,,,,,,,,,,,,,,,,,,,,,,,,,,,382.60545930900116,None,382.60545930900116,None,382.60545930900116,None,c,1,0.4030144520002068,384.13918567400106,None,384.13918567400106,None,384.13918567400106,None,384.6050063779985,None,384.6050063779985,None,384.6050063779985,None,384.6050063779985,None,,,,,,,,,,,,,,,,,,,,,,,,,,,,,,,,,,,,,,,,,,,,001,43,2020_Jan_30_1358,spring_faces,3.1.5,60.062138245531536,
condition files/Stage1_1.xlsx,,B4,T4,m,"['c', 'm']","['Clue', 'Monopoly']","[-0.15, 0.5]","[0.15, 0.5]",1,1,,,,,,,,,0,0,0,0,0,3,3,7,,,,,,,,,,,,,,,,,,,,,,,,,,,,,,,,,,,,,,,,,,,,,,,,,,,,,,,386.57213998099905,None,386.57213998099905,None,386.57213998099905,None,c,0,0.868046993000462,388.10613399900103,None,388.10613399900103,None,388.10613399900103,None,389.0549178760011,None,389.0549178760011,None,389.0549178760011,None,389.0549178760011,None,,,,,,,,,,,,,,,,,,,,,,,,,,,,,,,,,,,,,,,,,,,,001,43,2020_Jan_30_1358,spring_faces,3.1.5,60.062138245531536,
condition files/Stage1_1.xlsx,,B3,T3,c,"['c', 'm']","['Clue', 'Monopoly']","[-0.15, 0.5]","[0.15, 0.5]",1,1,,,,,,,,,0,0,0,0,0,4,4,4,,,,,,,,,,,,,,,,,,,,,,,,,,,,,,,,,,,,,,,,,,,,,,,,,,,,,,,391.005077253998,None,391.005077253998,None,391.005077253998,None,c,1,1.8110850979974202,392.5390585540008,None,392.5390585540008,None,392.5390585540008,None,394.4068992149987,None,394.4068992149987,None,394.4068992149987,None,394.4068992149987,None,,,,,,,,,,,,,,,,,,,,,,,,,,,,,,,,,,,,,,,,,,,,001,43,2020_Jan_30_1358,spring_faces,3.1.5,60.062138245531536,
condition files/Stage1_1.xlsx,,T1,B1,c,"['c', 'm']","['Clue', 'Monopoly']","[-0.15, 0.5]","[0.15, 0.5]",1,1,,,,,,,,,0,0,0,0,0,5,5,0,,,,,,,,,,,,,,,,,,,,,,,,,,,,,,,,,,,,,,,,,,,,,,,,,,,,,,,396.37222678800026,None,396.37222678800026,None,396.37222678800026,None,m,0,1.2288555769991945,397.9053365740001,None,397.9053365740001,None,397.9053365740001,None,399.1891439489991,None,399.1891439489991,None,399.1891439489991,None,399.1891439489991,None,,,,,,,,,,,,,,,,,,,,,,,,,,,,,,,,,,,,,,,,,,,,001,43,2020_Jan_30_1358,spring_faces,3.1.5,60.062138245531536,
condition files/Stage1_1.xlsx,,T3,B4,c,"['c', 'm']","['Clue', 'Monopoly']","[-0.15, 0.5]","[0.15, 0.5]",1,1,,,,,,,,,0,0,0,0,0,6,6,5,,,,,,,,,,,,,,,,,,,,,,,,,,,,,,,,,,,,,,,,,,,,,,,,,,,,,,,401.15543283100124,None,401.15543283100124,None,401.15543283100124,None,c,1,1.6292821730021387,402.6888804570008,None,402.6888804570008,None,402.6888804570008,None,404.37238986100056,None,404.37238986100056,None,404.37238986100056,None,404.37238986100056,None,,,,,,,,,,,,,,,,,,,,,,,,,,,,,,,,,,,,,,,,,,,,001,43,2020_Jan_30_1358,spring_faces,3.1.5,60.062138245531536,
condition files/Stage1_1.xlsx,,T2,B2,m,"['c', 'm']","['Clue', 'Monopoly']","[-0.15, 0.5]","[0.15, 0.5]",1,1,,,,,,,,,0,0,0,0,0,7,7,3,,,,,,,,,,,,,,,,,,,,,,,,,,,,,,,,,,,,,,,,,,,,,,,,,,,,,,,406.33847665400026,None,406.33847665400026,None,406.33847665400026,None,m,1,0.9259074139990844,407.8723113060005,None,407.8723113060005,None,407.8723113060005,None,408.856557709998,None,408.856557709998,None,408.856557709998,None,408.856557709998,None,,,,,,,,,,,,,,,,,,,,,,,,,,,,,,,,,,,,,,,,,,,,001,43,2020_Jan_30_1358,spring_faces,3.1.5,60.062138245531536,
condition files/Stage1_2.xlsx,,T1,B2,m,"['c', 'm']","['Clue', 'Monopoly']","[-0.15, 0.5]","[0.15, 0.5]",1,1,,,,,,,,,0,1,1,1,0,0,0,2,,,,,,,,,,,,,,,,,,,,,,,,,,,,,,,,,,,,,,,,,,,,,,,,,,,,,,,410.8392701619996,None,410.8392701619996,None,410.8392701619996,None,c,0,0.48987501700321445,412.3723534710007,None,412.3723534710007,None,412.3723534710007,None,412.9218811690007,None,412.9218811690007,None,412.9218811690007,None,412.9218811690007,None,,,,,,,,,,,,,,,,,,,,,,,,,,,,,,,,,,,,,,,,,,,,001,43,2020_Jan_30_1358,spring_faces,3.1.5,60.062138245531536,
condition files/Stage1_2.xlsx,,B4,T3,c,"['c', 'm']","['Clue', 'Monopoly']","[-0.15, 0.5]","[0.15, 0.5]",1,1,,,,,,,,,0,1,1,1,0,1,1,5,,,,,,,,,,,,,,,,,,,,,,,,,,,,,,,,,,,,,,,,,,,,,,,,,,,,,,,414.88881592599864,None,414.88881592599864,None,414.88881592599864,None,c,1,2.806529887999204,416.423690874999,None,416.423690874999,None,416.423690874999,None,419.29094298999917,None,419.29094298999917,None,419.29094298999917,None,419.29094298999917,None,,,,,,,,,,,,,,,,,,,,,,,,,,,,,,,,,,,,,,,,,,,,001,43,2020_Jan_30_1358,spring_faces,3.1.5,60.062138245531536,
condition files/Stage1_2.xlsx,,T3,B3,c,"['c', 'm']","['Clue', 'Monopoly']","[-0.15, 0.5]","[0.15, 0.5]",1,1,,,,,,,,,0,1,1,1,0,2,2,4,,,,,,,,,,,,,,,,,,,,,,,,,,,,,,,,,,,,,,,,,,,,,,,,,,,,,,,421.2552004069985,None,421.2552004069985,None,421.2552004069985,None,c,1,0.9530877739998687,422.78910969199933,None,422.78910969199933,None,422.78910969199933,None,423.80560762499954,None,423.80560762499954,None,423.80560762499954,None,423.80560762499954,None,,,,,,,,,,,,,,,,,,,,,,,,,,,,,,,,,,,,,,,,,,,,001,43,2020_Jan_30_1358,spring_faces,3.1.5,60.062138245531536,
condition files/Stage1_2.xlsx,,T2,B1,c,"['c', 'm']","['Clue', 'Monopoly']","[-0.15, 0.5]","[0.15, 0.5]",1,1,,,,,,,,,0,1,1,1,0,3,3,1,,,,,,,,,,,,,,,,,,,,,,,,,,,,,,,,,,,,,,,,,,,,,,,,,,,,,,,425.77214278500105,None,425.77214278500105,None,425.77214278500105,None,m,0,0.771536592998018,427.3066533739984,None,427.3066533739984,None,427.3066533739984,None,428.1392717939998,None,428.1392717939998,None,428.1392717939998,None,428.1392717939998,None,,,,,,,,,,,,,,,,,,,,,,,,,,,,,,,,,,,,,,,,,,,,001,43,2020_Jan_30_1358,spring_faces,3.1.5,60.062138245531536,
condition files/Stage1_2.xlsx,,B1,T1,c,"['c', 'm']","['Clue', 'Monopoly']","[-0.15, 0.5]","[0.15, 0.5]",1,1,,,,,,,,,0,1,1,1,0,4,4,0,,,,,,,,,,,,,,,,,,,,,,,,,,,,,,,,,,,,,,,,,,,,,,,,,,,,,,,430.10543175899875,None,430.10543175899875,None,430.10543175899875,None,m,0,1.4784850670002925,431.6396641680003,None,431.6396641680003,None,431.6396641680003,None,433.17243030700047,None,433.17243030700047,None,433.17243030700047,None,433.17243030700047,None,,,,,,,,,,,,,,,,,,,,,,,,,,,,,,,,,,,,,,,,,,,,001,43,2020_Jan_30_1358,spring_faces,3.1.5,60.062138245531536,
condition files/Stage1_2.xlsx,,T4,B4,m,"['c', 'm']","['Clue', 'Monopoly']","[-0.15, 0.5]","[0.15, 0.5]",1,1,,,,,,,,,0,1,1,1,0,5,5,7,,,,,,,,,,,,,,,,,,,,,,,,,,,,,,,,,,,,,,,,,,,,,,,,,,,,,,,435.13899693200074,None,435.13899693200074,None,435.13899693200074,None,m,1,1.629705434999778,436.67245449999973,None,436.67245449999973,None,436.67245449999973,None,438.3578879509987,None,438.3578879509987,None,438.3578879509987,None,438.3578879509987,None,,,,,,,,,,,,,,,,,,,,,,,,,,,,,,,,,,,,,,,,,,,,001,43,2020_Jan_30_1358,spring_faces,3.1.5,60.062138245531536,
condition files/Stage1_2.xlsx,,B3,T4,m,"['c', 'm']","['Clue', 'Monopoly']","[-0.15, 0.5]","[0.15, 0.5]",1,1,,,,,,,,,0,1,1,1,0,6,6,6,,,,,,,,,,,,,,,,,,,,,,,,,,,,,,,,,,,,,,,,,,,,,,,,,,,,,,,440.32185469400065,None,440.32185469400065,None,440.32185469400065,None,m,1,0.7960594879987184,441.8581193099999,None,441.8581193099999,None,441.8581193099999,None,442.70530512999903,None,442.70530512999903,None,442.70530512999903,None,442.70530512999903,None,,,,,,,,,,,,,,,,,,,,,,,,,,,,,,,,,,,,,,,,,,,,001,43,2020_Jan_30_1358,spring_faces,3.1.5,60.062138245531536,
condition files/Stage1_2.xlsx,,B2,T2,m,"['c', 'm']","['Clue', 'Monopoly']","[-0.15, 0.5]","[0.15, 0.5]",1,1,,,,,,,,,0,1,1,1,0,7,7,3,,,,,,,,,,,,,,,,,,,,,,,,,,,,,,,,,,,,,,,,,,,,,,,,,,,,,,,444.67245519100106,None,444.67245519100106,None,444.67245519100106,None,m,1,2.0169468319982116,446.2052278320007,None,446.2052278320007,None,446.2052278320007,None,448.27253722800015,None,448.27253722800015,None,448.27253722800015,None,448.27253722800015,None,,,,,,,,,,,,,,,,,,,,,,,,,,,,,,,,,,,,,,,,,,,,001,43,2020_Jan_30_1358,spring_faces,3.1.5,60.062138245531536,
condition files/Stage1_1.xlsx,,B2,T1,m,"['c', 'm']","['Clue', 'Monopoly']","[-0.15, 0.5]","[0.15, 0.5]",1,1,,,,,,,,,0,2,2,2,0,0,0,2,,,,,,,,,,,,,,,,,,,,,,,,,,,,,,,,,,,,,,,,,,,,,,,,,,,,,,,450.2559888809992,None,450.2559888809992,None,450.2559888809992,None,c,0,0.9925872140011052,451.80567827699997,None,451.80567827699997,None,451.80567827699997,None,452.8559897490013,None,452.8559897490013,None,452.8559897490013,None,452.8559897490013,None,,,,,,,,,,,,,,,,,,,,,,,,,,,,,,,,,,,,,,,,,,,,001,43,2020_Jan_30_1358,spring_faces,3.1.5,60.062138245531536,
condition files/Stage1_1.xlsx,,B4,T4,m,"['c', 'm']","['Clue', 'Monopoly']","[-0.15, 0.5]","[0.15, 0.5]",1,1,,,,,,,,,0,2,2,2,0,1,1,7,,,,,,,,,,,,,,,,,,,,,,,,,,,,,,,,,,,,,,,,,,,,,,,,,,,,,,,454.8222725119995,None,454.8222725119995,None,454.8222725119995,None,m,1,1.482190847000311,456.3719939879993,None,456.3719939879993,None,456.3719939879993,None,457.9057471019987,None,457.9057471019987,None,457.9057471019987,None,457.9057471019987,None,,,,,,,,,,,,,,,,,,,,,,,,,,,,,,,,,,,,,,,,,,,,001,43,2020_Jan_30_1358,spring_faces,3.1.5,60.062138245531536,
condition files/Stage1_1.xlsx,,B3,T3,c,"['c', 'm']","['Clue', 'Monopoly']","[-0.15, 0.5]","[0.15, 0.5]",1,1,,,,,,,,,0,2,2,2,0,2,2,4,,,,,,,,,,,,,,,,,,,,,,,,,,,,,,,,,,,,,,,,,,,,,,,,,,,,,,,459.87181499099825,None,459.87181499099825,None,459.87181499099825,None,c,1,1.0720562099995732,461.40616223599864,None,461.40616223599864,None,461.40616223599864,None,462.5397736909981,None,462.5397736909981,None,462.5397736909981,None,462.5397736909981,None,,,,,,,,,,,,,,,,,,,,,,,,,,,,,,,,,,,,,,,,,,,,001,43,2020_Jan_30_1358,spring_faces,3.1.5,60.062138245531536,
condition files/Stage1_1.xlsx,,B1,T2,c,"['c', 'm']","['Clue', 'Monopoly']","[-0.15, 0.5]","[0.15, 0.5]",1,1,,,,,,,,,0,2,2,2,0,3,3,1,,,,,,,,,,,,,,,,,,,,,,,,,,,,,,,,,,,,,,,,,,,,,,,,,,,,,,,464.5055137319978,None,464.5055137319978,None,464.5055137319978,None,m,0,1.4944012640007713,466.0557458189978,None,466.0557458189978,None,466.0557458189978,None,467.6056770340001,None,467.6056770340001,None,467.6056770340001,None,467.6056770340001,None,,,,,,,,,,,,,,,,,,,,,,,,,,,,,,,,,,,,,,,,,,,,001,43,2020_Jan_30_1358,spring_faces,3.1.5,60.062138245531536,
condition files/Stage1_1.xlsx,,T4,B3,m,"['c', 'm']","['Clue', 'Monopoly']","[-0.15, 0.5]","[0.15, 0.5]",1,1,,,,,,,,,0,2,2,2,0,4,4,6,,,,,,,,,,,,,,,,,,,,,,,,,,,,,,,,,,,,,,,,,,,,,,,,,,,,,,,469.572240988,None,469.572240988,None,469.572240988,None,m,1,0.8277056400002039,471.12242091499866,None,471.12242091499866,None,471.12242091499866,None,472.008015591,None,472.008015591,None,472.008015591,None,472.008015591,None,,,,,,,,,,,,,,,,,,,,,,,,,,,,,,,,,,,,,,,,,,,,001,43,2020_Jan_30_1358,spring_faces,3.1.5,60.062138245531536,
condition files/Stage1_1.xlsx,,T3,B4,c,"['c', 'm']","['Clue', 'Monopoly']","[-0.15, 0.5]","[0.15, 0.5]",1,1,,,,,,,,,0,2,2,2,0,5,5,5,,,,,,,,,,,,,,,,,,,,,,,,,,,,,,,,,,,,,,,,,,,,,,,,,,,,,,,473.9720462410005,None,473.9720462410005,None,473.9720462410005,None,c,1,1.43559283599825,475.50661142899844,None,475.50661142899844,None,475.50661142899844,None,477.0062231310003,None,477.0062231310003,None,477.0062231310003,None,477.0062231310003,None,,,,,,,,,,,,,,,,,,,,,,,,,,,,,,,,,,,,,,,,,,,,001,43,2020_Jan_30_1358,spring_faces,3.1.5,60.062138245531536,
condition files/Stage1_1.xlsx,,T1,B1,c,"['c', 'm']","['Clue', 'Monopoly']","[-0.15, 0.5]","[0.15, 0.5]",1,1,,,,,,,,,0,2,2,2,0,6,6,0,,,,,,,,,,,,,,,,,,,,,,,,,,,,,,,,,,,,,,,,,,,,,,,,,,,,,,,478.97209197999837,None,478.97209197999837,None,478.97209197999837,None,c,1,1.0609053859989217,480.50531950799996,None,480.50531950799996,None,480.50531950799996,None,481.62249169799907,None,481.62249169799907,None,481.62249169799907,None,481.62249169799907,None,,,,,,,,,,,,,,,,,,,,,,,,,,,,,,,,,,,,,,,,,,,,001,43,2020_Jan_30_1358,spring_faces,3.1.5,60.062138245531536,
condition files/Stage1_1.xlsx,,T2,B2,m,"['c', 'm']","['Clue', 'Monopoly']","[-0.15, 0.5]","[0.15, 0.5]",1,1,,,,,,,,,0,2,2,2,0,7,7,3,,,,,,,,,,,,,,,,,,,,,,,,,,,,,,,,,,,,,,,,,,,,,,,,,,,,,,,483.58859386399854,None,483.58859386399854,None,483.58859386399854,None,m,1,2.1075687620032113,485.1226692759992,None,485.1226692759992,None,485.1226692759992,None,487.28936121199877,None,487.28936121199877,None,487.28936121199877,None,487.28936121199877,None,,,,,,,,,,,,,,,,,,,,,,,,,,,,,,,,,,,,,,,,,,,,001,43,2020_Jan_30_1358,spring_faces,3.1.5,60.062138245531536,
condition files/Stage1_2.xlsx,,B4,T3,c,"['c', 'm']","['Clue', 'Monopoly']","[-0.15, 0.5]","[0.15, 0.5]",1,1,,,,,,,,,0,3,3,3,0,0,0,5,,,,,,,,,,,,,,,,,,,,,,,,,,,,,,,,,,,,,,,,,,,,,,,,,,,,,,,489.2721940849988,None,489.2721940849988,None,489.2721940849988,None,c,1,2.088552018001792,490.8056593559995,None,490.8056593559995,None,490.8056593559995,None,492.9559597189982,None,492.9559597189982,None,492.9559597189982,None,492.9559597189982,None,,,,,,,,,,,,,,,,,,,,,,,,,,,,,,,,,,,,,,,,,,,,001,43,2020_Jan_30_1358,spring_faces,3.1.5,60.062138245531536,
condition files/Stage1_2.xlsx,,B3,T4,m,"['c', 'm']","['Clue', 'Monopoly']","[-0.15, 0.5]","[0.15, 0.5]",1,1,,,,,,,,,0,3,3,3,0,1,1,6,,,,,,,,,,,,,,,,,,,,,,,,,,,,,,,,,,,,,,,,,,,,,,,,,,,,,,,494.9219664429984,None,494.9219664429984,None,494.9219664429984,None,m,1,0.8863486139998713,496.4718423129998,None,496.4718423129998,None,496.4718423129998,None,497.43908604600074,None,497.43908604600074,None,497.43908604600074,None,497.43908604600074,None,,,,,,,,,,,,,,,,,,,,,,,,,,,,,,,,,,,,,,,,,,,,001,43,2020_Jan_30_1358,spring_faces,3.1.5,60.062138245531536,
condition files/Stage1_2.xlsx,,B2,T2,m,"['c', 'm']","['Clue', 'Monopoly']","[-0.15, 0.5]","[0.15, 0.5]",1,1,,,,,,,,,0,3,3,3,0,2,2,3,,,,,,,,,,,,,,,,,,,,,,,,,,,,,,,,,,,,,,,,,,,,,,,,,,,,,,,499.38907371000096,None,499.38907371000096,None,499.38907371000096,None,m,1,1.2199194810018525,500.9222646169983,None,500.9222646169983,None,500.9222646169983,None,502.20562695099943,None,502.20562695099943,None,502.20562695099943,None,502.20562695099943,None,,,,,,,,,,,,,,,,,,,,,,,,,,,,,,,,,,,,,,,,,,,,001,43,2020_Jan_30_1358,spring_faces,3.1.5,60.062138245531536,
condition files/Stage1_2.xlsx,,T2,B1,c,"['c', 'm']","['Clue', 'Monopoly']","[-0.15, 0.5]","[0.15, 0.5]",1,1,,,,,,,,,0,3,3,3,0,3,3,1,,,,,,,,,,,,,,,,,,,,,,,,,,,,,,,,,,,,,,,,,,,,,,,,,,,,,,,504.17220540500057,None,504.17220540500057,None,504.17220540500057,None,m,0,1.5087345690008078,505.70549555699836,None,505.70549555699836,None,505.70549555699836,None,507.2723993510008,None,507.2723993510008,None,507.2723993510008,None,507.2723993510008,None,,,,,,,,,,,,,,,,,,,,,,,,,,,,,,,,,,,,,,,,,,,,001,43,2020_Jan_30_1358,spring_faces,3.1.5,60.062138245531536,
condition files/Stage1_2.xlsx,,T1,B2,m,"['c', 'm']","['Clue', 'Monopoly']","[-0.15, 0.5]","[0.15, 0.5]",1,1,,,,,,,,,0,3,3,3,0,4,4,2,,,,,,,,,,,,,,,,,,,,,,,,,,,,,,,,,,,,,,,,,,,,,,,,,,,,,,,509.2385924779992,None,509.2385924779992,None,509.2385924779992,None,m,1,1.160478214998875,510.77363338899886,None,510.77363338899886,None,510.77363338899886,None,511.991519520001,None,511.991519520001,None,511.991519520001,None,511.991519520001,None,,,,,,,,,,,,,,,,,,,,,,,,,,,,,,,,,,,,,,,,,,,,001,43,2020_Jan_30_1358,spring_faces,3.1.5,60.062138245531536,
condition files/Stage1_2.xlsx,,B1,T1,c,"['c', 'm']","['Clue', 'Monopoly']","[-0.15, 0.5]","[0.15, 0.5]",1,1,,,,,,,,,0,3,3,3,0,5,5,0,,,,,,,,,,,,,,,,,,,,,,,,,,,,,,,,,,,,,,,,,,,,,,,,,,,,,,,513.9552703349982,None,513.9552703349982,None,513.9552703349982,None,m,0,1.3890640919998987,515.4891346769982,None,515.4891346769982,None,515.4891346769982,None,516.9392771009989,None,516.9392771009989,None,516.9392771009989,None,516.9392771009989,None,,,,,,,,,,,,,,,,,,,,,,,,,,,,,,,,,,,,,,,,,,,,001,43,2020_Jan_30_1358,spring_faces,3.1.5,60.062138245531536,
condition files/Stage1_2.xlsx,,T3,B3,c,"['c', 'm']","['Clue', 'Monopoly']","[-0.15, 0.5]","[0.15, 0.5]",1,1,,,,,,,,,0,3,3,3,0,6,6,4,,,,,,,,,,,,,,,,,,,,,,,,,,,,,,,,,,,,,,,,,,,,,,,,,,,,,,,518.9055266049982,None,518.9055266049982,None,518.9055266049982,None,c,1,1.559543040999415,520.4387450709983,None,520.4387450709983,None,520.4387450709983,None,522.0555011649994,None,522.0555011649994,None,522.0555011649994,None,522.0555011649994,None,,,,,,,,,,,,,,,,,,,,,,,,,,,,,,,,,,,,,,,,,,,,001,43,2020_Jan_30_1358,spring_faces,3.1.5,60.062138245531536,
condition files/Stage1_2.xlsx,,T4,B4,m,"['c', 'm']","['Clue', 'Monopoly']","[-0.15, 0.5]","[0.15, 0.5]",1,1,,,,,,,,,0,3,3,3,0,7,7,7,,,,,,,,,,,,,,,,,,,,,,,,,,,,,,,,,,,,,,,,,,,,,,,,,,,,,,,524.0222990250004,None,524.0222990250004,None,524.0222990250004,None,m,1,1.0192143200001738,525.5549673610003,None,525.5549673610003,None,525.5549673610003,None,526.6390737680013,None,526.6390737680013,None,526.6390737680013,None,526.6390737680013,None,,,,,,,,,,,,,,,,,,,,,,,,,,,,,,,,,,,,,,,,,,,,001,43,2020_Jan_30_1358,spring_faces,3.1.5,60.062138245531536,
condition files/Stage1_1.xlsx,,B4,T4,m,"['c', 'm']","['Clue', 'Monopoly']","[-0.15, 0.5]","[0.15, 0.5]",1,1,,,,,,,,,0,4,4,4,0,0,0,7,,,,,,,,,,,,,,,,,,,,,,,,,,,,,,,,,,,,,,,,,,,,,,,,,,,,,,,528.6223717629982,None,528.6223717629982,None,528.6223717629982,None,m,1,0.8017706949976855,530.1724072049983,None,530.1724072049983,None,530.1724072049983,None,531.0389807869979,None,531.0389807869979,None,531.0389807869979,None,531.0389807869979,None,,,,,,,,,,,,,,,,,,,,,,,,,,,,,,,,,,,,,,,,,,,,001,43,2020_Jan_30_1358,spring_faces,3.1.5,60.062138245531536,
condition files/Stage1_1.xlsx,,B1,T2,c,"['c', 'm']","['Clue', 'Monopoly']","[-0.15, 0.5]","[0.15, 0.5]",1,1,,,,,,,,,0,4,4,4,0,1,1,1,,,,,,,,,,,,,,,,,,,,,,,,,,,,,,,,,,,,,,,,,,,,,,,,,,,,,,,533.0048838049988,None,533.0048838049988,None,533.0048838049988,None,m,0,0.9158713519973389,534.5383046809984,None,534.5383046809984,None,534.5383046809984,None,535.5065581359995,None,535.5065581359995,None,535.5065581359995,None,535.5065581359995,None,,,,,,,,,,,,,,,,,,,,,,,,,,,,,,,,,,,,,,,,,,,,001,43,2020_Jan_30_1358,spring_faces,3.1.5,60.062138245531536,
condition files/Stage1_1.xlsx,,T3,B4,c,"['c', 'm']","['Clue', 'Monopoly']","[-0.15, 0.5]","[0.15, 0.5]",1,1,,,,,,,,,0,4,4,4,0,2,2,5,,,,,,,,,,,,,,,,,,,,,,,,,,,,,,,,,,,,,,,,,,,,,,,,,,,,,,,537.4720878859989,None,537.4720878859989,None,537.4720878859989,None,c,1,1.0070055040014267,539.0072346569978,None,539.0072346569978,None,539.0072346569978,None,540.0724492179979,None,540.0724492179979,None,540.0724492179979,None,540.0724492179979,None,,,,,,,,,,,,,,,,,,,,,,,,,,,,,,,,,,,,,,,,,,,,001,43,2020_Jan_30_1358,spring_faces,3.1.5,60.062138245531536,
condition files/Stage1_1.xlsx,,T2,B2,m,"['c', 'm']","['Clue', 'Monopoly']","[-0.15, 0.5]","[0.15, 0.5]",1,1,,,,,,,,,0,4,4,4,0,3,3,3,,,,,,,,,,,,,,,,,,,,,,,,,,,,,,,,,,,,,,,,,,,,,,,,,,,,,,,542.038778143,None,542.038778143,None,542.038778143,None,c,0,1.5617227680013457,543.5724290709986,None,543.5724290709986,None,543.5724290709986,None,545.2057823110008,None,545.2057823110008,None,545.2057823110008,None,545.2057823110008,None,,,,,,,,,,,,,,,,,,,,,,,,,,,,,,,,,,,,,,,,,,,,001,43,2020_Jan_30_1358,spring_faces,3.1.5,60.062138245531536,
condition files/Stage1_1.xlsx,,T4,B3,m,"['c', 'm']","['Clue', 'Monopoly']","[-0.15, 0.5]","[0.15, 0.5]",1,1,,,,,,,,,0,4,4,4,0,4,4,6,,,,,,,,,,,,,,,,,,,,,,,,,,,,,,,,,,,,,,,,,,,,,,,,,,,,,,,547.1550427149996,None,547.1550427149996,None,547.1550427149996,None,m,1,0.7810041699995054,548.6891798729994,None,548.6891798729994,None,548.6891798729994,None,549.5219380560011,None,549.5219380560011,None,549.5219380560011,None,549.5219380560011,None,,,,,,,,,,,,,,,,,,,,,,,,,,,,,,,,,,,,,,,,,,,,001,43,2020_Jan_30_1358,spring_faces,3.1.5,60.062138245531536,
condition files/Stage1_1.xlsx,,T1,B1,c,"['c', 'm']","['Clue', 'Monopoly']","[-0.15, 0.5]","[0.15, 0.5]",1,1,,,,,,,,,0,4,4,4,0,5,5,0,,,,,,,,,,,,,,,,,,,,,,,,,,,,,,,,,,,,,,,,,,,,,,,,,,,,,,,551.4888361330013,None,551.4888361330013,None,551.4888361330013,None,m,0,2.239606344002823,553.0226285629979,None,553.0226285629979,None,553.0226285629979,None,555.3391807189983,None,555.3391807189983,None,555.3391807189983,None,555.3391807189983,None,,,,,,,,,,,,,,,,,,,,,,,,,,,,,,,,,,,,,,,,,,,,001,43,2020_Jan_30_1358,spring_faces,3.1.5,60.062138245531536,
condition files/Stage1_1.xlsx,,B3,T3,c,"['c', 'm']","['Clue', 'Monopoly']","[-0.15, 0.5]","[0.15, 0.5]",1,1,,,,,,,,,0,4,4,4,0,6,6,4,,,,,,,,,,,,,,,,,,,,,,,,,,,,,,,,,,,,,,,,,,,,,,,,,,,,,,,557.288860667999,None,557.288860667999,None,557.288860667999,None,c,1,1.4319925409981806,558.8222125270004,None,558.8222125270004,None,558.8222125270004,None,560.305735605998,None,560.305735605998,None,560.305735605998,None,560.305735605998,None,,,,,,,,,,,,,,,,,,,,,,,,,,,,,,,,,,,,,,,,,,,,001,43,2020_Jan_30_1358,spring_faces,3.1.5,60.062138245531536,
condition files/Stage1_1.xlsx,,B2,T1,m,"['c', 'm']","['Clue', 'Monopoly']","[-0.15, 0.5]","[0.15, 0.5]",1,1,,,,,,,,,0,4,4,4,0,7,7,2,,,,,,,,,,,,,,,,,,,,,,,,,,,,,,,,,,,,,,,,,,,,,,,,,,,,,,,562.2720286160002,None,562.2720286160002,None,562.2720286160002,None,c,0,1.5999207540007774,563.8061816349982,None,563.8061816349982,None,563.8061816349982,None,565.4889544850012,None,565.4889544850012,None,565.4889544850012,None,565.4889544850012,None,,,,,,,,,,,,,,,,,,,,,,,,,,,,,,,,,,,,,,,,,,,,001,43,2020_Jan_30_1358,spring_faces,3.1.5,60.062138245531536,
condition files/Stage1_2.xlsx,,T4,B4,m,"['c', 'm']","['Clue', 'Monopoly']","[-0.15, 0.5]","[0.15, 0.5]",1,1,,,,,,,,,0,5,5,5,0,0,0,7,,,,,,,,,,,,,,,,,,,,,,,,,,,,,,,,,,,,,,,,,,,,,,,,,,,,,,,567.455733611001,None,567.455733611001,None,567.455733611001,None,m,1,1.00896320800166,568.9892901300009,None,568.9892901300009,None,568.9892901300009,None,570.0558370369981,None,570.0558370369981,None,570.0558370369981,None,570.0558370369981,None,,,,,,,,,,,,,,,,,,,,,,,,,,,,,,,,,,,,,,,,,,,,001,43,2020_Jan_30_1358,spring_faces,3.1.5,60.062138245531536,
condition files/Stage1_2.xlsx,,T1,B2,m,"['c', 'm']","['Clue', 'Monopoly']","[-0.15, 0.5]","[0.15, 0.5]",1,1,,,,,,,,,0,5,5,5,0,1,1,2,,,,,,,,,,,,,,,,,,,,,,,,,,,,,,,,,,,,,,,,,,,,,,,,,,,,,,,572.0218585760013,None,572.0218585760013,None,572.0218585760013,None,m,1,1.0823625439988973,573.5558540589991,None,573.5558540589991,None,573.5558540589991,None,574.6888580570012,None,574.6888580570012,None,574.6888580570012,None,574.6888580570012,None,,,,,,,,,,,,,,,,,,,,,,,,,,,,,,,,,,,,,,,,,,,,001,43,2020_Jan_30_1358,spring_faces,3.1.5,60.062138245531536,
condition files/Stage1_2.xlsx,,T2,B1,c,"['c', 'm']","['Clue', 'Monopoly']","[-0.15, 0.5]","[0.15, 0.5]",1,1,,,,,,,,,0,5,5,5,0,2,2,1,,,,,,,,,,,,,,,,,,,,,,,,,,,,,,,,,,,,,,,,,,,,,,,,,,,,,,,576.6555176750007,None,576.6555176750007,None,576.6555176750007,None,m,0,1.2173239229996398,578.188810263,None,578.188810263,None,578.188810263,None,579.4888713219989,None,579.4888713219989,None,579.4888713219989,None,579.4888713219989,None,,,,,,,,,,,,,,,,,,,,,,,,,,,,,,,,,,,,,,,,,,,,001,43,2020_Jan_30_1358,spring_faces,3.1.5,60.062138245531536,
condition files/Stage1_2.xlsx,,B2,T2,m,"['c', 'm']","['Clue', 'Monopoly']","[-0.15, 0.5]","[0.15, 0.5]",1,1,,,,,,,,,0,5,5,5,0,3,3,3,,,,,,,,,,,,,,,,,,,,,,,,,,,,,,,,,,,,,,,,,,,,,,,,,,,,,,,581.4383465669998,None,581.4383465669998,None,581.4383465669998,None,m,1,1.6331588859975454,582.9729874430013,None,582.9729874430013,None,582.9729874430013,None,584.6721421900002,None,584.6721421900002,None,584.6721421900002,None,584.6721421900002,None,,,,,,,,,,,,,,,,,,,,,,,,,,,,,,,,,,,,,,,,,,,,001,43,2020_Jan_30_1358,spring_faces,3.1.5,60.062138245531536,
condition files/Stage1_2.xlsx,,B1,T1,c,"['c', 'm']","['Clue', 'Monopoly']","[-0.15, 0.5]","[0.15, 0.5]",1,1,,,,,,,,,0,5,5,5,0,4,4,0,,,,,,,,,,,,,,,,,,,,,,,,,,,,,,,,,,,,,,,,,,,,,,,,,,,,,,,586.6389337779983,None,586.6389337779983,None,586.6389337779983,None,m,0,1.2482994710007915,588.1739399559992,None,588.1739399559992,None,588.1739399559992,None,589.4730456219986,None,589.4730456219986,None,589.4730456219986,None,589.4730456219986,None,,,,,,,,,,,,,,,,,,,,,,,,,,,,,,,,,,,,,,,,,,,,001,43,2020_Jan_30_1358,spring_faces,3.1.5,60.062138245531536,
condition files/Stage1_2.xlsx,,B4,T3,c,"['c', 'm']","['Clue', 'Monopoly']","[-0.15, 0.5]","[0.15, 0.5]",1,1,,,,,,,,,0,5,5,5,0,5,5,5,,,,,,,,,,,,,,,,,,,,,,,,,,,,,,,,,,,,,,,,,,,,,,,,,,,,,,,591.4391739290004,None,591.4391739290004,None,591.4391739290004,None,c,1,1.776840901999094,592.9733268019991,None,592.9733268019991,None,592.9733268019991,None,594.8057496439978,None,594.8057496439978,None,594.8057496439978,None,594.8057496439978,None,,,,,,,,,,,,,,,,,,,,,,,,,,,,,,,,,,,,,,,,,,,,001,43,2020_Jan_30_1358,spring_faces,3.1.5,60.062138245531536,
condition files/Stage1_2.xlsx,,T3,B3,c,"['c', 'm']","['Clue', 'Monopoly']","[-0.15, 0.5]","[0.15, 0.5]",1,1,,,,,,,,,0,5,5,5,0,6,6,4,,,,,,,,,,,,,,,,,,,,,,,,,,,,,,,,,,,,,,,,,,,,,,,,,,,,,,,596.7721923649988,None,596.7721923649988,None,596.7721923649988,None,c,1,1.563985150998633,598.3062021730002,None,598.3062021730002,None,598.3062021730002,None,599.9223151810002,None,599.9223151810002,None,599.9223151810002,None,599.9223151810002,None,,,,,,,,,,,,,,,,,,,,,,,,,,,,,,,,,,,,,,,,,,,,001,43,2020_Jan_30_1358,spring_faces,3.1.5,60.062138245531536,
condition files/Stage1_2.xlsx,,B3,T4,m,"['c', 'm']","['Clue', 'Monopoly']","[-0.15, 0.5]","[0.15, 0.5]",1,1,,,,,,,,,0,5,5,5,0,7,7,6,,,,,,,,,,,,,,,,,,,,,,,,,,,,,,,,,,,,,,,,,,,,,,,,,,,,,,,601.8889081730013,None,601.8889081730013,None,601.8889081730013,None,m,1,1.4239457549992949,603.4222968190006,None,603.4222968190006,None,603.4222968190006,None,604.907428311999,None,604.907428311999,None,604.907428311999,None,604.907428311999,None,,,,,,,,,,,,,,,,,,,,,,,,,,,,,,,,,,,,,,,,,,,,001,43,2020_Jan_30_1358,spring_faces,3.1.5,60.062138245531536,
condition files/Stage1_1.xlsx,,T1,B1,c,"['c', 'm']","['Clue', 'Monopoly']","[-0.15, 0.5]","[0.15, 0.5]",1,1,,,,,,,,,0,6,6,6,0,0,0,0,,,,,,,,,,,,,,,,,,,,,,,,,,,,,,,,,,,,,,,,,,,,,,,,,,,,,,,606.8891898059992,None,606.8891898059992,None,606.8891898059992,None,c,1,1.5277154850009538,608.4224401409992,None,608.4224401409992,None,608.4224401409992,None,610.0075983130009,None,610.0075983130009,None,610.0075983130009,None,610.0075983130009,None,,,,,,,,,,,,,,,,,,,,,,,,,,,,,,,,,,,,,,,,,,,,001,43,2020_Jan_30_1358,spring_faces,3.1.5,60.062138245531536,
condition files/Stage1_1.xlsx,,T2,B2,m,"['c', 'm']","['Clue', 'Monopoly']","[-0.15, 0.5]","[0.15, 0.5]",1,1,,,,,,,,,0,6,6,6,0,1,1,3,,,,,,,,,,,,,,,,,,,,,,,,,,,,,,,,,,,,,,,,,,,,,,,,,,,,,,,611.9721340100004,None,611.9721340100004,None,611.9721340100004,None,c,0,1.9648435469971446,613.5053311730007,None,613.5053311730007,None,613.5053311730007,None,615.5246390850007,None,615.5246390850007,None,615.5246390850007,None,615.5246390850007,None,,,,,,,,,,,,,,,,,,,,,,,,,,,,,,,,,,,,,,,,,,,,001,43,2020_Jan_30_1358,spring_faces,3.1.5,60.062138245531536,
condition files/Stage1_1.xlsx,,T3,B4,c,"['c', 'm']","['Clue', 'Monopoly']","[-0.15, 0.5]","[0.15, 0.5]",1,1,,,,,,,,,0,6,6,6,0,2,2,5,,,,,,,,,,,,,,,,,,,,,,,,,,,,,,,,,,,,,,,,,,,,,,,,,,,,,,,617.488608241998,None,617.488608241998,None,617.488608241998,None,c,1,1.5829171799996402,619.0392693419999,None,619.0392693419999,None,619.0392693419999,None,620.6890934479998,None,620.6890934479998,None,620.6890934479998,None,620.6890934479998,None,,,,,,,,,,,,,,,,,,,,,,,,,,,,,,,,,,,,,,,,,,,,001,43,2020_Jan_30_1358,spring_faces,3.1.5,60.062138245531536,
condition files/Stage1_1.xlsx,,B3,T3,c,"['c', 'm']","['Clue', 'Monopoly']","[-0.15, 0.5]","[0.15, 0.5]",1,1,,,,,,,,,0,6,6,6,0,3,3,4,,,,,,,,,,,,,,,,,,,,,,,,,,,,,,,,,,,,,,,,,,,,,,,,,,,,,,,622.6389374969986,None,622.6389374969986,None,622.6389374969986,None,c,1,1.5998550369986333,624.1743320850001,None,624.1743320850001,None,624.1743320850001,None,625.8390001859989,None,625.8390001859989,None,625.8390001859989,None,625.8390001859989,None,,,,,,,,,,,,,,,,,,,,,,,,,,,,,,,,,,,,,,,,,,,,001,43,2020_Jan_30_1358,spring_faces,3.1.5,60.062138245531536,
condition files/Stage1_1.xlsx,,B2,T1,m,"['c', 'm']","['Clue', 'Monopoly']","[-0.15, 0.5]","[0.15, 0.5]",1,1,,,,,,,,,0,6,6,6,0,4,4,2,,,,,,,,,,,,,,,,,,,,,,,,,,,,,,,,,,,,,,,,,,,,,,,,,,,,,,,627.8055821779999,None,627.8055821779999,None,627.8055821779999,None,m,1,1.2513804800000798,629.3387389199997,None,629.3387389199997,None,629.3387389199997,None,630.6725088249987,None,630.6725088249987,None,630.6725088249987,None,630.6725088249987,None,,,,,,,,,,,,,,,,,,,,,,,,,,,,,,,,,,,,,,,,,,,,001,43,2020_Jan_30_1358,spring_faces,3.1.5,60.062138245531536,
condition files/Stage1_1.xlsx,,T4,B3,m,"['c', 'm']","['Clue', 'Monopoly']","[-0.15, 0.5]","[0.15, 0.5]",1,1,,,,,,,,,0,6,6,6,0,5,5,6,,,,,,,,,,,,,,,,,,,,,,,,,,,,,,,,,,,,,,,,,,,,,,,,,,,,,,,632.6221947689992,None,632.6221947689992,None,632.6221947689992,None,m,1,1.1857369819990708,634.1724428199996,None,634.1724428199996,None,634.1724428199996,None,635.4223238839986,None,635.4223238839986,None,635.4223238839986,None,635.4223238839986,None,,,,,,,,,,,,,,,,,,,,,,,,,,,,,,,,,,,,,,,,,,,,001,43,2020_Jan_30_1358,spring_faces,3.1.5,60.062138245531536,
condition files/Stage1_1.xlsx,,B4,T4,m,"['c', 'm']","['Clue', 'Monopoly']","[-0.15, 0.5]","[0.15, 0.5]",1,1,,,,,,,,,0,6,6,6,0,6,6,7,,,,,,,,,,,,,,,,,,,,,,,,,,,,,,,,,,,,,,,,,,,,,,,,,,,,,,,637.3886417069989,None,637.3886417069989,None,637.3886417069989,None,m,1,1.1084396309997828,638.9217836870012,None,638.9217836870012,None,638.9217836870012,None,640.088530140998,None,640.088530140998,None,640.088530140998,None,640.088530140998,None,,,,,,,,,,,,,,,,,,,,,,,,,,,,,,,,,,,,,,,,,,,,001,43,2020_Jan_30_1358,spring_faces,3.1.5,60.062138245531536,
condition files/Stage1_1.xlsx,,B1,T2,c,"['c', 'm']","['Clue', 'Monopoly']","[-0.15, 0.5]","[0.15, 0.5]",1,1,,,,,,,,,0,6,6,6,0,7,7,1,,,,,,,,,,,,,,,,,,,,,,,,,,,,,,,,,,,,,,,,,,,,,,,,,,,,,,,642.0552940079979,None,642.0552940079979,None,642.0552940079979,None,c,1,1.816340809000394,643.5898102829997,None,643.5898102829997,None,643.5898102829997,None,645.4734972469996,None,645.4734972469996,None,645.4734972469996,None,645.4734972469996,None,,,,,,,,,,,,,,,,,,,,,,,,,,,,,,,,,,,,,,,,,,,,001,43,2020_Jan_30_1358,spring_faces,3.1.5,60.062138245531536,
condition files/Stage1_2.xlsx,,B4,T3,c,"['c', 'm']","['Clue', 'Monopoly']","[-0.15, 0.5]","[0.15, 0.5]",1,1,,,,,,,,,0,7,7,7,0,0,0,5,,,,,,,,,,,,,,,,,,,,,,,,,,,,,,,,,,,,,,,,,,,,,,,,,,,,,,,647.4557328939991,None,647.4557328939991,None,647.4557328939991,None,c,1,2.6414339010007097,648.9888160970004,None,648.9888160970004,None,648.9888160970004,None,651.6890787209995,None,651.6890787209995,None,651.6890787209995,None,651.6890787209995,None,,,,,,,,,,,,,,,,,,,,,,,,,,,,,,,,,,,,,,,,,,,,001,43,2020_Jan_30_1358,spring_faces,3.1.5,60.062138245531536,
condition files/Stage1_2.xlsx,,B1,T1,c,"['c', 'm']","['Clue', 'Monopoly']","[-0.15, 0.5]","[0.15, 0.5]",1,1,,,,,,,,,0,7,7,7,0,1,1,0,,,,,,,,,,,,,,,,,,,,,,,,,,,,,,,,,,,,,,,,,,,,,,,,,,,,,,,653.6554649540012,None,653.6554649540012,None,653.6554649540012,None,m,0,1.1770356050001283,655.1892080879988,None,655.1892080879988,None,655.1892080879988,None,656.4219637259994,None,656.4219637259994,None,656.4219637259994,None,656.4219637259994,None,,,,,,,,,,,,,,,,,,,,,,,,,,,,,,,,,,,,,,,,,,,,001,43,2020_Jan_30_1358,spring_faces,3.1.5,60.062138245531536,
condition files/Stage1_2.xlsx,,B3,T4,m,"['c', 'm']","['Clue', 'Monopoly']","[-0.15, 0.5]","[0.15, 0.5]",1,1,,,,,,,,,0,7,7,7,0,2,2,6,,,,,,,,,,,,,,,,,,,,,,,,,,,,,,,,,,,,,,,,,,,,,,,,,,,,,,,658.3888289809984,None,658.3888289809984,None,658.3888289809984,None,m,1,1.3883089489972917,659.9218918959996,None,659.9218918959996,None,659.9218918959996,None,661.3729974509988,None,661.3729974509988,None,661.3729974509988,None,661.3729974509988,None,,,,,,,,,,,,,,,,,,,,,,,,,,,,,,,,,,,,,,,,,,,,001,43,2020_Jan_30_1358,spring_faces,3.1.5,60.062138245531536,
condition files/Stage1_2.xlsx,,T4,B4,m,"['c', 'm']","['Clue', 'Monopoly']","[-0.15, 0.5]","[0.15, 0.5]",1,1,,,,,,,,,0,7,7,7,0,3,3,7,,,,,,,,,,,,,,,,,,,,,,,,,,,,,,,,,,,,,,,,,,,,,,,,,,,,,,,663.3388260510001,None,663.3388260510001,None,663.3388260510001,None,m,1,1.2841272469995602,664.8740745489995,None,664.8740745489995,None,664.8740745489995,None,666.2218909430012,None,666.2218909430012,None,666.2218909430012,None,666.2218909430012,None,,,,,,,,,,,,,,,,,,,,,,,,,,,,,,,,,,,,,,,,,,,,001,43,2020_Jan_30_1358,spring_faces,3.1.5,60.062138245531536,
condition files/Stage1_2.xlsx,,T1,B2,m,"['c', 'm']","['Clue', 'Monopoly']","[-0.15, 0.5]","[0.15, 0.5]",1,1,,,,,,,,,0,7,7,7,0,4,4,2,,,,,,,,,,,,,,,,,,,,,,,,,,,,,,,,,,,,,,,,,,,,,,,,,,,,,,,668.1886808809977,None,668.1886808809977,None,668.1886808809977,None,c,0,1.1398267789991223,669.7223959750008,None,669.7223959750008,None,669.7223959750008,None,670.9222040669993,None,670.9222040669993,None,670.9222040669993,None,670.9222040669993,None,,,,,,,,,,,,,,,,,,,,,,,,,,,,,,,,,,,,,,,,,,,,001,43,2020_Jan_30_1358,spring_faces,3.1.5,60.062138245531536,
condition files/Stage1_2.xlsx,,B2,T2,m,"['c', 'm']","['Clue', 'Monopoly']","[-0.15, 0.5]","[0.15, 0.5]",1,1,,,,,,,,,0,7,7,7,0,5,5,3,,,,,,,,,,,,,,,,,,,,,,,,,,,,,,,,,,,,,,,,,,,,,,,,,,,,,,,672.8888771620004,None,672.8888771620004,None,672.8888771620004,None,m,1,2.1680943030005437,674.4220414419979,None,674.4220414419979,None,674.4220414419979,None,676.6556956220011,None,676.6556956220011,None,676.6556956220011,None,676.6556956220011,None,,,,,,,,,,,,,,,,,,,,,,,,,,,,,,,,,,,,,,,,,,,,001,43,2020_Jan_30_1358,spring_faces,3.1.5,60.062138245531536,
condition files/Stage1_2.xlsx,,T3,B3,c,"['c', 'm']","['Clue', 'Monopoly']","[-0.15, 0.5]","[0.15, 0.5]",1,1,,,,,,,,,0,7,7,7,0,6,6,4,,,,,,,,,,,,,,,,,,,,,,,,,,,,,,,,,,,,,,,,,,,,,,,,,,,,,,,678.6221169970013,None,678.6221169970013,None,678.6221169970013,None,c,1,1.8110126210012822,680.1552174429999,None,680.1552174429999,None,680.1552174429999,None,682.0236301740006,None,682.0236301740006,None,682.0236301740006,None,682.0236301740006,None,,,,,,,,,,,,,,,,,,,,,,,,,,,,,,,,,,,,,,,,,,,,001,43,2020_Jan_30_1358,spring_faces,3.1.5,60.062138245531536,
condition files/Stage1_2.xlsx,,T2,B1,c,"['c', 'm']","['Clue', 'Monopoly']","[-0.15, 0.5]","[0.15, 0.5]",1,1,,,,,,,,,0,7,7,7,0,7,7,1,,,,,,,,,,,,,,,,,,,,,,,,,,,,,,,,,,,,,,,,,,,,,,,,,,,,,,,683.9888061870006,None,683.9888061870006,None,683.9888061870006,None,c,1,1.93174188699777,685.5224462929982,None,685.5224462929982,None,685.5224462929982,None,687.506055728998,None,687.506055728998,None,687.506055728998,None,687.506055728998,None,,,,,,,,,,,,,,,,,,,,,,,,,,,,,,,,,,,,,,,,,,,,001,43,2020_Jan_30_1358,spring_faces,3.1.5,60.062138245531536,
condition files/Stage1_1.xlsx,,T4,B3,m,"['c', 'm']","['Clue', 'Monopoly']","[-0.15, 0.5]","[0.15, 0.5]",1,1,,,,,,,,,0,8,8,8,0,0,0,6,,,,,,,,,,,,,,,,,,,,,,,,,,,,,,,,,,,,,,,,,,,,,,,,,,,,,,,689.4888741159994,None,689.4888741159994,None,689.4888741159994,None,m,1,0.989574608996918,691.0246721410003,None,691.0246721410003,None,691.0246721410003,None,692.0750581200009,None,692.0750581200009,None,692.0750581200009,None,692.0750581200009,None,,,,,,,,,,,,,,,,,,,,,,,,,,,,,,,,,,,,,,,,,,,,001,43,2020_Jan_30_1358,spring_faces,3.1.5,60.062138245531536,
condition files/Stage1_1.xlsx,,B4,T4,m,"['c', 'm']","['Clue', 'Monopoly']","[-0.15, 0.5]","[0.15, 0.5]",1,1,,,,,,,,,0,8,8,8,0,1,1,7,,,,,,,,,,,,,,,,,,,,,,,,,,,,,,,,,,,,,,,,,,,,,,,,,,,,,,,694.0389243460013,None,694.0389243460013,None,694.0389243460013,None,m,1,1.0978095739992568,695.5723795339982,None,695.5723795339982,None,695.5723795339982,None,696.7219380189999,None,696.7219380189999,None,696.7219380189999,None,696.7219380189999,None,,,,,,,,,,,,,,,,,,,,,,,,,,,,,,,,,,,,,,,,,,,,001,43,2020_Jan_30_1358,spring_faces,3.1.5,60.062138245531536,
condition files/Stage1_1.xlsx,,B2,T1,m,"['c', 'm']","['Clue', 'Monopoly']","[-0.15, 0.5]","[0.15, 0.5]",1,1,,,,,,,,,0,8,8,8,0,2,2,2,,,,,,,,,,,,,,,,,,,,,,,,,,,,,,,,,,,,,,,,,,,,,,,,,,,,,,,698.6888306119981,None,698.6888306119981,None,698.6888306119981,None,m,1,1.1202618219977012,700.2219417060005,None,700.2219417060005,None,700.2219417060005,None,701.4056744420013,None,701.4056744420013,None,701.4056744420013,None,701.4056744420013,None,,,,,,,,,,,,,,,,,,,,,,,,,,,,,,,,,,,,,,,,,,,,001,43,2020_Jan_30_1358,spring_faces,3.1.5,60.062138245531536,
condition files/Stage1_1.xlsx,,T1,B1,c,"['c', 'm']","['Clue', 'Monopoly']","[-0.15, 0.5]","[0.15, 0.5]",1,1,,,,,,,,,0,8,8,8,0,3,3,0,,,,,,,,,,,,,,,,,,,,,,,,,,,,,,,,,,,,,,,,,,,,,,,,,,,,,,,703.3722099890001,None,703.3722099890001,None,703.3722099890001,None,m,0,1.444868337999651,704.9053043690001,None,704.9053043690001,None,704.9053043690001,None,706.4063711220006,None,706.4063711220006,None,706.4063711220006,None,706.4063711220006,None,,,,,,,,,,,,,,,,,,,,,,,,,,,,,,,,,,,,,,,,,,,,001,43,2020_Jan_30_1358,spring_faces,3.1.5,60.062138245531536,
condition files/Stage1_1.xlsx,,B3,T3,c,"['c', 'm']","['Clue', 'Monopoly']","[-0.15, 0.5]","[0.15, 0.5]",1,1,,,,,,,,,0,8,8,8,0,4,4,4,,,,,,,,,,,,,,,,,,,,,,,,,,,,,,,,,,,,,,,,,,,,,,,,,,,,,,,708.3721748860007,None,708.3721748860007,None,708.3721748860007,None,c,1,1.4670426419979776,709.907138726001,None,709.907138726001,None,709.907138726001,None,711.4391176569989,None,711.4391176569989,None,711.4391176569989,None,711.4391176569989,None,,,,,,,,,,,,,,,,,,,,,,,,,,,,,,,,,,,,,,,,,,,,001,43,2020_Jan_30_1358,spring_faces,3.1.5,60.062138245531536,
condition files/Stage1_1.xlsx,,B1,T2,c,"['c', 'm']","['Clue', 'Monopoly']","[-0.15, 0.5]","[0.15, 0.5]",1,1,,,,,,,,,0,8,8,8,0,5,5,1,,,,,,,,,,,,,,,,,,,,,,,,,,,,,,,,,,,,,,,,,,,,,,,,,,,,,,,713.4055248029981,None,713.4055248029981,None,713.4055248029981,None,c,1,1.6499810299974342,714.9401470259982,None,714.9401470259982,None,714.9401470259982,None,716.655508666001,None,716.655508666001,None,716.655508666001,None,716.655508666001,None,,,,,,,,,,,,,,,,,,,,,,,,,,,,,,,,,,,,,,,,,,,,001,43,2020_Jan_30_1358,spring_faces,3.1.5,60.062138245531536,
condition files/Stage1_1.xlsx,,T2,B2,m,"['c', 'm']","['Clue', 'Monopoly']","[-0.15, 0.5]","[0.15, 0.5]",1,1,,,,,,,,,0,8,8,8,0,6,6,3,,,,,,,,,,,,,,,,,,,,,,,,,,,,,,,,,,,,,,,,,,,,,,,,,,,,,,,718.6219448730008,None,718.6219448730008,None,718.6219448730008,None,m,1,1.3777002249989891,720.1564214969985,None,720.1564214969985,None,720.1564214969985,None,721.5910102079979,None,721.5910102079979,None,721.5910102079979,None,721.5910102079979,None,,,,,,,,,,,,,,,,,,,,,,,,,,,,,,,,,,,,,,,,,,,,001,43,2020_Jan_30_1358,spring_faces,3.1.5,60.062138245531536,
condition files/Stage1_1.xlsx,,T3,B4,c,"['c', 'm']","['Clue', 'Monopoly']","[-0.15, 0.5]","[0.15, 0.5]",1,1,,,,,,,,,0,8,8,8,0,7,7,5,,,,,,,,,,,,,,,,,,,,,,,,,,,,,,,,,,,,,,,,,,,,,,,,,,,,,,,723.5557469800005,None,723.5557469800005,None,723.5557469800005,None,c,1,1.6128377679997357,725.0893455500009,None,725.0893455500009,None,725.0893455500009,None,726.7578396399986,None,726.7578396399986,None,726.7578396399986,None,726.7578396399986,None,,,,,,,,,,,,,,,,,,,,,,,,,,,,,,,,,,,,,,,,,,,,001,43,2020_Jan_30_1358,spring_faces,3.1.5,60.062138245531536,
condition files/Stage1_2.xlsx,,B4,T3,c,"['c', 'm']","['Clue', 'Monopoly']","[-0.15, 0.5]","[0.15, 0.5]",1,1,,,,,,,,,0,9,9,9,0,0,0,5,,,,,,,,,,,,,,,,,,,,,,,,,,,,,,,,,,,,,,,,,,,,,,,,,,,,,,,728.7389918139997,None,728.7389918139997,None,728.7389918139997,None,c,1,1.2616328209987842,730.288492609001,None,730.288492609001,None,730.288492609001,None,731.605715589998,None,731.605715589998,None,731.605715589998,None,731.605715589998,None,,,,,,,,,,,,,,,,,,,,,,,,,,,,,,,,,,,,,,,,,,,,001,43,2020_Jan_30_1358,spring_faces,3.1.5,60.062138245531536,
condition files/Stage1_2.xlsx,,T2,B1,c,"['c', 'm']","['Clue', 'Monopoly']","[-0.15, 0.5]","[0.15, 0.5]",1,1,,,,,,,,,0,9,9,9,0,1,1,1,,,,,,,,,,,,,,,,,,,,,,,,,,,,,,,,,,,,,,,,,,,,,,,,,,,,,,,733.5724015720007,None,733.5724015720007,None,733.5724015720007,None,c,1,1.2925084589987819,735.1057580460001,None,735.1057580460001,None,735.1057580460001,None,736.4553078329991,None,736.4553078329991,None,736.4553078329991,None,736.4553078329991,None,,,,,,,,,,,,,,,,,,,,,,,,,,,,,,,,,,,,,,,,,,,,001,43,2020_Jan_30_1358,spring_faces,3.1.5,60.062138245531536,
condition files/Stage1_2.xlsx,,B3,T4,m,"['c', 'm']","['Clue', 'Monopoly']","[-0.15, 0.5]","[0.15, 0.5]",1,1,,,,,,,,,0,9,9,9,0,2,2,6,,,,,,,,,,,,,,,,,,,,,,,,,,,,,,,,,,,,,,,,,,,,,,,,,,,,,,,738.4223210939999,None,738.4223210939999,None,738.4223210939999,None,m,1,1.2105292089981958,739.9557005099996,None,739.9557005099996,None,739.9557005099996,None,741.2246556989994,None,741.2246556989994,None,741.2246556989994,None,741.2246556989994,None,,,,,,,,,,,,,,,,,,,,,,,,,,,,,,,,,,,,,,,,,,,,001,43,2020_Jan_30_1358,spring_faces,3.1.5,60.062138245531536,
condition files/Stage1_2.xlsx,,T3,B3,c,"['c', 'm']","['Clue', 'Monopoly']","[-0.15, 0.5]","[0.15, 0.5]",1,1,,,,,,,,,0,9,9,9,0,3,3,4,,,,,,,,,,,,,,,,,,,,,,,,,,,,,,,,,,,,,,,,,,,,,,,,,,,,,,,743.1882244749977,None,743.1882244749977,None,743.1882244749977,None,c,1,1.2120463110004494,744.7220913130004,None,744.7220913130004,None,744.7220913130004,None,745.9918297939985,None,745.9918297939985,None,745.9918297939985,None,745.9918297939985,None,,,,,,,,,,,,,,,,,,,,,,,,,,,,,,,,,,,,,,,,,,,,001,43,2020_Jan_30_1358,spring_faces,3.1.5,60.062138245531536,
condition files/Stage1_2.xlsx,,T1,B2,m,"['c', 'm']","['Clue', 'Monopoly']","[-0.15, 0.5]","[0.15, 0.5]",1,1,,,,,,,,,0,9,9,9,0,4,4,2,,,,,,,,,,,,,,,,,,,,,,,,,,,,,,,,,,,,,,,,,,,,,,,,,,,,,,,747.9555174779998,None,747.9555174779998,None,747.9555174779998,None,c,0,1.0694081020010344,749.4887779189994,None,749.4887779189994,None,749.4887779189994,None,750.6228807939988,None,750.6228807939988,None,750.6228807939988,None,750.6228807939988,None,,,,,,,,,,,,,,,,,,,,,,,,,,,,,,,,,,,,,,,,,,,,001,43,2020_Jan_30_1358,spring_faces,3.1.5,60.062138245531536,
condition files/Stage1_2.xlsx,,B2,T2,m,"['c', 'm']","['Clue', 'Monopoly']","[-0.15, 0.5]","[0.15, 0.5]",1,1,,,,,,,,,0,9,9,9,0,5,5,3,,,,,,,,,,,,,,,,,,,,,,,,,,,,,,,,,,,,,,,,,,,,,,,,,,,,,,,752.5889712019998,None,752.5889712019998,None,752.5889712019998,None,m,1,1.2813694969991047,754.1247633069979,None,754.1247633069979,None,754.1247633069979,None,755.4725674539986,None,755.4725674539986,None,755.4725674539986,None,755.4725674539986,None,,,,,,,,,,,,,,,,,,,,,,,,,,,,,,,,,,,,,,,,,,,,001,43,2020_Jan_30_1358,spring_faces,3.1.5,60.062138245531536,
condition files/Stage1_2.xlsx,,B1,T1,c,"['c', 'm']","['Clue', 'Monopoly']","[-0.15, 0.5]","[0.15, 0.5]",1,1,,,,,,,,,0,9,9,9,0,6,6,0,,,,,,,,,,,,,,,,,,,,,,,,,,,,,,,,,,,,,,,,,,,,,,,,,,,,,,,757.4389985859998,None,757.4389985859998,None,757.4389985859998,None,m,0,1.2481800660025328,758.9739671200005,None,758.9739671200005,None,758.9739671200005,None,760.2743516339979,None,760.2743516339979,None,760.2743516339979,None,760.2743516339979,None,,,,,,,,,,,,,,,,,,,,,,,,,,,,,,,,,,,,,,,,,,,,001,43,2020_Jan_30_1358,spring_faces,3.1.5,60.062138245531536,
condition files/Stage1_2.xlsx,,T4,B4,m,"['c', 'm']","['Clue', 'Monopoly']","[-0.15, 0.5]","[0.15, 0.5]",1,1,,,,,,,,,0,9,9,9,0,7,7,7,,,,,,,,,,,,,,,,,,,,,,,,,,,,,,,,,,,,,,,,,,,,,,,,,,,,,,,762.2387624619987,None,762.2387624619987,None,762.2387624619987,None,c,0,1.2658494050010631,763.7883468330001,None,763.7883468330001,None,763.7883468330001,None,765.1223970430001,None,765.1223970430001,None,765.1223970430001,None,765.1223970430001,None,,,,,,,,,,,,,,,,,,,,,,,,,,,,,,,,,,,,,,,,,,,,001,43,2020_Jan_30_1358,spring_faces,3.1.5,60.062138245531536,
condition files/Stage1_1.xlsx,,B4,T4,m,"['c', 'm']","['Clue', 'Monopoly']","[-0.15, 0.5]","[0.15, 0.5]",1,1,,,,,,,,,0,10,10,10,0,0,0,7,,,,,,,,,,,,,,,,,,,,,,,,,,,,,,,,,,,,,,,,,,,,,,,,,,,,,,,767.0889361519985,None,767.0889361519985,None,767.0889361519985,None,m,1,1.2469054329994833,768.6232786420005,None,768.6232786420005,None,768.6232786420005,None,769.9225989810002,None,769.9225989810002,None,769.9225989810002,None,769.9225989810002,None,,,,,,,,,,,,,,,,,,,,,,,,,,,,,,,,,,,,,,,,,,,,001,43,2020_Jan_30_1358,spring_faces,3.1.5,60.062138245531536,
condition files/Stage1_1.xlsx,,T4,B3,m,"['c', 'm']","['Clue', 'Monopoly']","[-0.15, 0.5]","[0.15, 0.5]",1,1,,,,,,,,,0,10,10,10,0,1,1,6,,,,,,,,,,,,,,,,,,,,,,,,,,,,,,,,,,,,,,,,,,,,,,,,,,,,,,,771.8887917760003,None,771.8887917760003,None,771.8887917760003,None,m,1,1.1833504800015362,773.4388515770006,None,773.4388515770006,None,773.4388515770006,None,774.6717848810003,None,774.6717848810003,None,774.6717848810003,None,774.6717848810003,None,,,,,,,,,,,,,,,,,,,,,,,,,,,,,,,,,,,,,,,,,,,,001,43,2020_Jan_30_1358,spring_faces,3.1.5,60.062138245531536,
condition files/Stage1_1.xlsx,,B2,T1,m,"['c', 'm']","['Clue', 'Monopoly']","[-0.15, 0.5]","[0.15, 0.5]",1,1,,,,,,,,,0,10,10,10,0,2,2,2,,,,,,,,,,,,,,,,,,,,,,,,,,,,,,,,,,,,,,,,,,,,,,,,,,,,,,,776.6388456620007,None,776.6388456620007,None,776.6388456620007,None,c,0,1.4095639789993584,778.1726693339988,None,778.1726693339988,None,778.1726693339988,None,779.6390272040007,None,779.6390272040007,None,779.6390272040007,None,779.6390272040007,None,,,,,,,,,,,,,,,,,,,,,,,,,,,,,,,,,,,,,,,,,,,,001,43,2020_Jan_30_1358,spring_faces,3.1.5,60.062138245531536,
condition files/Stage1_1.xlsx,,T1,B1,c,"['c', 'm']","['Clue', 'Monopoly']","[-0.15, 0.5]","[0.15, 0.5]",1,1,,,,,,,,,0,10,10,10,0,3,3,0,,,,,,,,,,,,,,,,,,,,,,,,,,,,,,,,,,,,,,,,,,,,,,,,,,,,,,,781.6048738799982,None,781.6048738799982,None,781.6048738799982,None,c,1,1.1455965300010575,783.1405125249985,None,783.1405125249985,None,783.1405125249985,None,784.3560969509999,None,784.3560969509999,None,784.3560969509999,None,784.3560969509999,None,,,,,,,,,,,,,,,,,,,,,,,,,,,,,,,,,,,,,,,,,,,,001,43,2020_Jan_30_1358,spring_faces,3.1.5,60.062138245531536,
condition files/Stage1_1.xlsx,,B1,T2,c,"['c', 'm']","['Clue', 'Monopoly']","[-0.15, 0.5]","[0.15, 0.5]",1,1,,,,,,,,,0,10,10,10,0,4,4,1,,,,,,,,,,,,,,,,,,,,,,,,,,,,,,,,,,,,,,,,,,,,,,,,,,,,,,,786.3054816160002,None,786.3054816160002,None,786.3054816160002,None,m,0,1.5197546839990537,787.8384115789995,None,787.8384115789995,None,787.8384115789995,None,789.422424086999,None,789.422424086999,None,789.422424086999,None,789.422424086999,None,,,,,,,,,,,,,,,,,,,,,,,,,,,,,,,,,,,,,,,,,,,,001,43,2020_Jan_30_1358,spring_faces,3.1.5,60.062138245531536,
condition files/Stage1_1.xlsx,,B3,T3,c,"['c', 'm']","['Clue', 'Monopoly']","[-0.15, 0.5]","[0.15, 0.5]",1,1,,,,,,,,,0,10,10,10,0,5,5,4,,,,,,,,,,,,,,,,,,,,,,,,,,,,,,,,,,,,,,,,,,,,,,,,,,,,,,,791.3886672139997,None,791.3886672139997,None,791.3886672139997,None,c,1,1.66688965999856,792.9232680659989,None,792.9232680659989,None,792.9232680659989,None,794.6551574359983,None,794.6551574359983,None,794.6551574359983,None,794.6551574359983,None,,,,,,,,,,,,,,,,,,,,,,,,,,,,,,,,,,,,,,,,,,,,001,43,2020_Jan_30_1358,spring_faces,3.1.5,60.062138245531536,
condition files/Stage1_1.xlsx,,T2,B2,m,"['c', 'm']","['Clue', 'Monopoly']","[-0.15, 0.5]","[0.15, 0.5]",1,1,,,,,,,,,0,10,10,10,0,6,6,3,,,,,,,,,,,,,,,,,,,,,,,,,,,,,,,,,,,,,,,,,,,,,,,,,,,,,,,796.6216999089993,None,796.6216999089993,None,796.6216999089993,None,c,0,2.289632198997424,798.1566035670003,None,798.1566035670003,None,798.1566035670003,None,800.5066663409998,None,800.5066663409998,None,800.5066663409998,None,800.5066663409998,None,,,,,,,,,,,,,,,,,,,,,,,,,,,,,,,,,,,,,,,,,,,,001,43,2020_Jan_30_1358,spring_faces,3.1.5,60.062138245531536,
condition files/Stage1_1.xlsx,,T3,B4,c,"['c', 'm']","['Clue', 'Monopoly']","[-0.15, 0.5]","[0.15, 0.5]",1,1,,,,,,,,,0,10,10,10,0,7,7,5,,,,,,,,,,,,,,,,,,,,,,,,,,,,,,,,,,,,,,,,,,,,,,,,,,,,,,,802.4719852870003,None,802.4719852870003,None,802.4719852870003,None,c,1,2.4887672169970756,804.005448453001,None,804.005448453001,None,804.005448453001,None,806.5724317050008,None,806.5724317050008,None,806.5724317050008,None,806.5724317050008,None,,,,,,,,,,,,,,,,,,,,,,,,,,,,,,,,,,,,,,,,,,,,001,43,2020_Jan_30_1358,spring_faces,3.1.5,60.062138245531536,
condition files/Stage1_2.xlsx,,B3,T4,m,"['c', 'm']","['Clue', 'Monopoly']","[-0.15, 0.5]","[0.15, 0.5]",1,1,,,,,,,,,0,11,11,11,0,0,0,6,,,,,,,,,,,,,,,,,,,,,,,,,,,,,,,,,,,,,,,,,,,,,,,,,,,,,,,808.5390156879985,None,808.5390156879985,None,808.5390156879985,None,m,1,1.1577748589988914,810.0724733040006,None,810.0724733040006,None,810.0724733040006,None,811.2918510140007,None,811.2918510140007,None,811.2918510140007,None,811.2918510140007,None,,,,,,,,,,,,,,,,,,,,,,,,,,,,,,,,,,,,,,,,,,,,001,43,2020_Jan_30_1358,spring_faces,3.1.5,60.062138245531536,
condition files/Stage1_2.xlsx,,T3,B3,c,"['c', 'm']","['Clue', 'Monopoly']","[-0.15, 0.5]","[0.15, 0.5]",1,1,,,,,,,,,0,11,11,11,0,1,1,4,,,,,,,,,,,,,,,,,,,,,,,,,,,,,,,,,,,,,,,,,,,,,,,,,,,,,,,813.2555818500005,None,813.2555818500005,None,813.2555818500005,None,m,0,1.9130950510007096,814.789138158998,None,814.789138158998,None,814.789138158998,None,816.7560572010007,None,816.7560572010007,None,816.7560572010007,None,816.7560572010007,None,,,,,,,,,,,,,,,,,,,,,,,,,,,,,,,,,,,,,,,,,,,,001,43,2020_Jan_30_1358,spring_faces,3.1.5,60.062138245531536,
condition files/Stage1_2.xlsx,,B2,T2,m,"['c', 'm']","['Clue', 'Monopoly']","[-0.15, 0.5]","[0.15, 0.5]",1,1,,,,,,,,,0,11,11,11,0,2,2,3,,,,,,,,,,,,,,,,,,,,,,,,,,,,,,,,,,,,,,,,,,,,,,,,,,,,,,,818.7217177540006,None,818.7217177540006,None,818.7217177540006,None,c,0,1.230516917003115,820.2556545549996,None,820.2556545549996,None,820.2556545549996,None,821.5419388490009,None,821.5419388490009,None,821.5419388490009,None,821.5419388490009,None,,,,,,,,,,,,,,,,,,,,,,,,,,,,,,,,,,,,,,,,,,,,001,43,2020_Jan_30_1358,spring_faces,3.1.5,60.062138245531536,
condition files/Stage1_2.xlsx,,T2,B1,c,"['c', 'm']","['Clue', 'Monopoly']","[-0.15, 0.5]","[0.15, 0.5]",1,1,,,,,,,,,0,11,11,11,0,3,3,1,,,,,,,,,,,,,,,,,,,,,,,,,,,,,,,,,,,,,,,,,,,,,,,,,,,,,,,823.5050281859985,None,823.5050281859985,None,823.5050281859985,None,c,1,2.4958047559994156,825.0383809419982,None,825.0383809419982,None,825.0383809419982,None,827.5908546659994,None,827.5908546659994,None,827.5908546659994,None,827.5908546659994,None,,,,,,,,,,,,,,,,,,,,,,,,,,,,,,,,,,,,,,,,,,,,001,43,2020_Jan_30_1358,spring_faces,3.1.5,60.062138245531536,
condition files/Stage1_2.xlsx,,T4,B4,m,"['c', 'm']","['Clue', 'Monopoly']","[-0.15, 0.5]","[0.15, 0.5]",1,1,,,,,,,,,0,11,11,11,0,4,4,7,,,,,,,,,,,,,,,,,,,,,,,,,,,,,,,,,,,,,,,,,,,,,,,,,,,,,,,829.5557107130007,None,829.5557107130007,None,829.5557107130007,None,c,0,2.7644387959990127,831.1057272959988,None,831.1057272959988,None,831.1057272959988,None,833.925267259001,None,833.925267259001,None,833.925267259001,None,833.925267259001,None,,,,,,,,,,,,,,,,,,,,,,,,,,,,,,,,,,,,,,,,,,,,001,43,2020_Jan_30_1358,spring_faces,3.1.5,60.062138245531536,
condition files/Stage1_2.xlsx,,B1,T1,c,"['c', 'm']","['Clue', 'Monopoly']","[-0.15, 0.5]","[0.15, 0.5]",1,1,,,,,,,,,0,11,11,11,0,5,5,0,,,,,,,,,,,,,,,,,,,,,,,,,,,,,,,,,,,,,,,,,,,,,,,,,,,,,,,835.8881992969982,None,835.8881992969982,None,835.8881992969982,None,m,0,1.91728625000178,837.4249260059987,None,837.4249260059987,None,837.4249260059987,None,839.4081540429979,None,839.4081540429979,None,839.4081540429979,None,839.4081540429979,None,,,,,,,,,,,,,,,,,,,,,,,,,,,,,,,,,,,,,,,,,,,,001,43,2020_Jan_30_1358,spring_faces,3.1.5,60.062138245531536,
condition files/Stage1_2.xlsx,,B4,T3,c,"['c', 'm']","['Clue', 'Monopoly']","[-0.15, 0.5]","[0.15, 0.5]",1,1,,,,,,,,,0,11,11,11,0,6,6,5,,,,,,,,,,,,,,,,,,,,,,,,,,,,,,,,,,,,,,,,,,,,,,,,,,,,,,,841.3721860410005,None,841.3721860410005,None,841.3721860410005,None,c,1,1.3965739849991223,842.905731709001,None,842.905731709001,None,842.905731709001,None,844.355387276999,None,844.355387276999,None,844.355387276999,None,844.355387276999,None,,,,,,,,,,,,,,,,,,,,,,,,,,,,,,,,,,,,,,,,,,,,001,43,2020_Jan_30_1358,spring_faces,3.1.5,60.062138245531536,
condition files/Stage1_2.xlsx,,T1,B2,m,"['c', 'm']","['Clue', 'Monopoly']","[-0.15, 0.5]","[0.15, 0.5]",1,1,,,,,,,,,0,11,11,11,0,7,7,2,,,,,,,,,,,,,,,,,,,,,,,,,,,,,,,,,,,,,,,,,,,,,,,,,,,,,,,846.3221700979993,None,846.3221700979993,None,846.3221700979993,None,c,0,1.7749487219989533,847.855293569999,None,847.855293569999,None,847.855293569999,None,849.6908220160003,None,849.6908220160003,None,849.6908220160003,None,849.6908220160003,None,,,,,,,,,,,,,,,,,,,,,,,,,,,,,,,,,,,,,,,,,,,,001,43,2020_Jan_30_1358,spring_faces,3.1.5,60.062138245531536,
,,,,,,,,,,,,,,,,,,,,,,,,,,,,,,,,,,,,,,,,,,,,,,,,,,,,,,,,,,,,,,,,,,,,,,,,,,,,,,,,,,,,,,,,,,,,,,,,,,,,,,,,,,,,,,,,851.6724342220004,None,space,8.542141252000874,856.6721203380002,None,,,,,,,,,,,,,,,,,,,,,,,,,,,,,,001,43,2020_Jan_30_1358,spring_faces,3.1.5,60.062138245531536,
condition files/Stage2_1.xlsx,,B6,T6,r,"['s', 'r']","['Stratego', 'Risk']","[-0.15, 0.5]","[0.15, 0.5]",1,1,,,,,,,,,,,,,,,,,0,0,0,0,0,0,0,1,,,,,,,,,,,,,,,,,,,,,,,,,,,,,,,,,,,,,,,,,,,,,,,865.272564709001,None,865.272564709001,None,865.272564709001,None,r,1,1.36913770299725,866.7890752300009,None,866.7890752300009,None,866.7890752300009,None,868.2383641349988,None,868.2383641349988,None,868.2383641349988,None,868.2383641349988,None,,,,,,,,,,,,,,,856.6721203380002,None,,,,,,,,,,,,,,,,,,,,,,,,,,,,001,43,2020_Jan_30_1358,spring_faces,3.1.5,60.062138245531536,
condition files/Stage2_1.xlsx,,T1,B1,s,"['s', 'r']","['Stratego', 'Risk']","[-0.15, 0.5]","[0.15, 0.5]",1,1,,,,,,,,,,,,,,,,,0,0,0,0,0,1,1,2,,,,,,,,,,,,,,,,,,,,,,,,,,,,,,,,,,,,,,,,,,,,,,,870.1887762320002,None,870.1887762320002,None,870.1887762320002,None,s,1,1.3801076939998893,871.7220903310008,None,871.7220903310008,None,871.7220903310008,None,873.1582028349985,None,873.1582028349985,None,873.1582028349985,None,873.1582028349985,None,,,,,,,,,,,,,,,,,,,,,,,,,,,,,,,,,,,,,,,,,,,,001,43,2020_Jan_30_1358,spring_faces,3.1.5,60.062138245531536,
condition files/Stage2_1.xlsx,,T3,B3,s,"['s', 'r']","['Stratego', 'Risk']","[-0.15, 0.5]","[0.15, 0.5]",1,1,,,,,,,,,,,,,,,,,0,0,0,0,0,2,2,4,,,,,,,,,,,,,,,,,,,,,,,,,,,,,,,,,,,,,,,,,,,,,,,875.122194642001,None,875.122194642001,None,875.122194642001,None,s,1,1.1339211739978055,876.6722002639981,None,876.6722002639981,None,876.6722002639981,None,877.8726250680011,None,877.8726250680011,None,877.8726250680011,None,877.8726250680011,None,,,,,,,,,,,,,,,,,,,,,,,,,,,,,,,,,,,,,,,,,,,,001,43,2020_Jan_30_1358,spring_faces,3.1.5,60.062138245531536,
condition files/Stage2_1.xlsx,,B4,T4,r,"['s', 'r']","['Stratego', 'Risk']","[-0.15, 0.5]","[0.15, 0.5]",1,1,,,,,,,,,,,,,,,,,0,0,0,0,0,3,3,5,,,,,,,,,,,,,,,,,,,,,,,,,,,,,,,,,,,,,,,,,,,,,,,879.8388110909982,None,879.8388110909982,None,879.8388110909982,None,s,0,1.023638625996682,881.374620120001,None,881.374620120001,None,881.374620120001,None,882.4720615699989,None,882.4720615699989,None,882.4720615699989,None,882.4720615699989,None,,,,,,,,,,,,,,,,,,,,,,,,,,,,,,,,,,,,,,,,,,,,001,43,2020_Jan_30_1358,spring_faces,3.1.5,60.062138245531536,
condition files/Stage2_1.xlsx,,T5,B5,s,"['s', 'r']","['Stratego', 'Risk']","[-0.15, 0.5]","[0.15, 0.5]",1,1,,,,,,,,,,,,,,,,,0,0,0,0,0,4,4,0,,,,,,,,,,,,,,,,,,,,,,,,,,,,,,,,,,,,,,,,,,,,,,,884.4222375749996,None,884.4222375749996,None,884.4222375749996,None,r,0,1.8977622559978045,885.9724197760006,None,885.9724197760006,None,885.9724197760006,None,887.9393307409991,None,887.9393307409991,None,887.9393307409991,None,887.9393307409991,None,,,,,,,,,,,,,,,,,,,,,,,,,,,,,,,,,,,,,,,,,,,,001,43,2020_Jan_30_1358,spring_faces,3.1.5,60.062138245531536,
condition files/Stage2_1.xlsx,,B2,T2,r,"['s', 'r']","['Stratego', 'Risk']","[-0.15, 0.5]","[0.15, 0.5]",1,1,,,,,,,,,,,,,,,,,0,0,0,0,0,5,5,3,,,,,,,,,,,,,,,,,,,,,,,,,,,,,,,,,,,,,,,,,,,,,,,889.8884087919978,None,889.8884087919978,None,889.8884087919978,None,s,0,1.9039619929972105,891.422254295001,None,891.422254295001,None,891.422254295001,None,893.3888530539989,None,893.3888530539989,None,893.3888530539989,None,893.3888530539989,None,,,,,,,,,,,,,,,,,,,,,,,,,,,,,,,,,,,,,,,,,,,,001,43,2020_Jan_30_1358,spring_faces,3.1.5,60.062138245531536,
condition files/Stage2_2.xlsx,,T6,B6,r,"['s', 'r']","['Stratego', 'Risk']","[-0.15, 0.5]","[0.15, 0.5]",1,1,,,,,,,,,,,,,,,,,0,1,1,1,0,0,0,1,,,,,,,,,,,,,,,,,,,,,,,,,,,,,,,,,,,,,,,,,,,,,,,895.3726667339979,None,895.3726667339979,None,895.3726667339979,None,s,0,1.1884537929981889,896.9057615439997,None,896.9057615439997,None,896.9057615439997,None,898.1556833100003,None,898.1556833100003,None,898.1556833100003,None,898.1556833100003,None,,,,,,,,,,,,,,,,,,,,,,,,,,,,,,,,,,,,,,,,,,,,001,43,2020_Jan_30_1358,spring_faces,3.1.5,60.062138245531536,
condition files/Stage2_2.xlsx,,B5,T5,s,"['s', 'r']","['Stratego', 'Risk']","[-0.15, 0.5]","[0.15, 0.5]",1,1,,,,,,,,,,,,,,,,,0,1,1,1,0,1,1,0,,,,,,,,,,,,,,,,,,,,,,,,,,,,,,,,,,,,,,,,,,,,,,,900.1221388739978,None,900.1221388739978,None,900.1221388739978,None,s,1,1.4777999910002109,901.6563293969994,None,901.6563293969994,None,901.6563293969994,None,903.1918035419985,None,903.1918035419985,None,903.1918035419985,None,903.1918035419985,None,,,,,,,,,,,,,,,,,,,,,,,,,,,,,,,,,,,,,,,,,,,,001,43,2020_Jan_30_1358,spring_faces,3.1.5,60.062138245531536,
condition files/Stage2_2.xlsx,,B1,T1,s,"['s', 'r']","['Stratego', 'Risk']","[-0.15, 0.5]","[0.15, 0.5]",1,1,,,,,,,,,,,,,,,,,0,1,1,1,0,2,2,2,,,,,,,,,,,,,,,,,,,,,,,,,,,,,,,,,,,,,,,,,,,,,,,905.1555869969998,None,905.1555869969998,None,905.1555869969998,None,r,0,0.5067242529985378,906.6915495619978,None,906.6915495619978,None,906.6915495619978,None,907.2552938279987,None,907.2552938279987,None,907.2552938279987,None,907.2552938279987,None,,,,,,,,,,,,,,,,,,,,,,,,,,,,,,,,,,,,,,,,,,,,001,43,2020_Jan_30_1358,spring_faces,3.1.5,60.062138245531536,
condition files/Stage2_2.xlsx,,T4,B4,r,"['s', 'r']","['Stratego', 'Risk']","[-0.15, 0.5]","[0.15, 0.5]",1,1,,,,,,,,,,,,,,,,,0,1,1,1,0,3,3,5,,,,,,,,,,,,,,,,,,,,,,,,,,,,,,,,,,,,,,,,,,,,,,,909.2222356339989,None,909.2222356339989,None,909.2222356339989,None,s,0,1.4348188439980731,910.7553364439991,None,910.7553364439991,None,910.7553364439991,None,912.2723178460001,None,912.2723178460001,None,912.2723178460001,None,912.2723178460001,None,,,,,,,,,,,,,,,,,,,,,,,,,,,,,,,,,,,,,,,,,,,,001,43,2020_Jan_30_1358,spring_faces,3.1.5,60.062138245531536,
condition files/Stage2_2.xlsx,,T2,B2,r,"['s', 'r']","['Stratego', 'Risk']","[-0.15, 0.5]","[0.15, 0.5]",1,1,,,,,,,,,,,,,,,,,0,1,1,1,0,4,4,3,,,,,,,,,,,,,,,,,,,,,,,,,,,,,,,,,,,,,,,,,,,,,,,914.2222390389979,None,914.2222390389979,None,914.2222390389979,None,r,1,1.0731503349998093,915.7570954199982,None,915.7570954199982,None,915.7570954199982,None,916.8894573879988,None,916.8894573879988,None,916.8894573879988,None,916.8894573879988,None,,,,,,,,,,,,,,,,,,,,,,,,,,,,,,,,,,,,,,,,,,,,001,43,2020_Jan_30_1358,spring_faces,3.1.5,60.062138245531536,
condition files/Stage2_2.xlsx,,B3,T3,s,"['s', 'r']","['Stratego', 'Risk']","[-0.15, 0.5]","[0.15, 0.5]",1,1,,,,,,,,,,,,,,,,,0,1,1,1,0,5,5,4,,,,,,,,,,,,,,,,,,,,,,,,,,,,,,,,,,,,,,,,,,,,,,,918.8555423629987,None,918.8555423629987,None,918.8555423629987,None,r,0,0.9851783800004341,920.3890190559978,None,920.3890190559978,None,920.3890190559978,None,921.439202925998,None,921.439202925998,None,921.439202925998,None,921.439202925998,None,,,,,,,,,,,,,,,,,,,,,,,,,,,,,,,,,,,,,,,,,,,,001,43,2020_Jan_30_1358,spring_faces,3.1.5,60.062138245531536,
condition files/Stage2_1.xlsx,,B2,T2,r,"['s', 'r']","['Stratego', 'Risk']","[-0.15, 0.5]","[0.15, 0.5]",1,1,,,,,,,,,,,,,,,,,0,2,2,2,0,0,0,3,,,,,,,,,,,,,,,,,,,,,,,,,,,,,,,,,,,,,,,,,,,,,,,923.4223470039979,None,923.4223470039979,None,923.4223470039979,None,r,1,1.0110335899989877,924.9552095149993,None,924.9552095149993,None,924.9552095149993,None,926.0392744140008,None,926.0392744140008,None,926.0392744140008,None,926.0392744140008,None,,,,,,,,,,,,,,,,,,,,,,,,,,,,,,,,,,,,,,,,,,,,001,43,2020_Jan_30_1358,spring_faces,3.1.5,60.062138245531536,
condition files/Stage2_1.xlsx,,B6,T6,r,"['s', 'r']","['Stratego', 'Risk']","[-0.15, 0.5]","[0.15, 0.5]",1,1,,,,,,,,,,,,,,,,,0,2,2,2,0,1,1,1,,,,,,,,,,,,,,,,,,,,,,,,,,,,,,,,,,,,,,,,,,,,,,,927.9890911199982,None,927.9890911199982,None,927.9890911199982,None,s,0,0.8098645619975287,929.524330526001,None,929.524330526001,None,929.524330526001,None,930.3886884649983,None,930.3886884649983,None,930.3886884649983,None,930.3886884649983,None,,,,,,,,,,,,,,,,,,,,,,,,,,,,,,,,,,,,,,,,,,,,001,43,2020_Jan_30_1358,spring_faces,3.1.5,60.062138245531536,
condition files/Stage2_1.xlsx,,B4,T4,r,"['s', 'r']","['Stratego', 'Risk']","[-0.15, 0.5]","[0.15, 0.5]",1,1,,,,,,,,,,,,,,,,,0,2,2,2,0,2,2,5,,,,,,,,,,,,,,,,,,,,,,,,,,,,,,,,,,,,,,,,,,,,,,,932.3555724149992,None,932.3555724149992,None,932.3555724149992,None,s,0,1.2453173520007113,933.8888706360012,None,933.8888706360012,None,933.8888706360012,None,935.1891303000011,None,935.1891303000011,None,935.1891303000011,None,935.1891303000011,None,,,,,,,,,,,,,,,,,,,,,,,,,,,,,,,,,,,,,,,,,,,,001,43,2020_Jan_30_1358,spring_faces,3.1.5,60.062138245531536,
condition files/Stage2_1.xlsx,,T3,B3,s,"['s', 'r']","['Stratego', 'Risk']","[-0.15, 0.5]","[0.15, 0.5]",1,1,,,,,,,,,,,,,,,,,0,2,2,2,0,3,3,4,,,,,,,,,,,,,,,,,,,,,,,,,,,,,,,,,,,,,,,,,,,,,,,937.155618214998,None,937.155618214998,None,937.155618214998,None,r,0,0.8130388070021581,938.6892079860008,None,938.6892079860008,None,938.6892079860008,None,939.5581534459998,None,939.5581534459998,None,939.5581534459998,None,939.5581534459998,None,,,,,,,,,,,,,,,,,,,,,,,,,,,,,,,,,,,,,,,,,,,,001,43,2020_Jan_30_1358,spring_faces,3.1.5,60.062138245531536,
condition files/Stage2_1.xlsx,,T1,B1,s,"['s', 'r']","['Stratego', 'Risk']","[-0.15, 0.5]","[0.15, 0.5]",1,1,,,,,,,,,,,,,,,,,0,2,2,2,0,4,4,2,,,,,,,,,,,,,,,,,,,,,,,,,,,,,,,,,,,,,,,,,,,,,,,941.5216939310012,None,941.5216939310012,None,941.5216939310012,None,s,1,1.598557631001313,943.0556418619999,None,943.0556418619999,None,943.0556418619999,None,944.7058522949992,None,944.7058522949992,None,944.7058522949992,None,944.7058522949992,None,,,,,,,,,,,,,,,,,,,,,,,,,,,,,,,,,,,,,,,,,,,,001,43,2020_Jan_30_1358,spring_faces,3.1.5,60.062138245531536,
condition files/Stage2_1.xlsx,,T5,B5,s,"['s', 'r']","['Stratego', 'Risk']","[-0.15, 0.5]","[0.15, 0.5]",1,1,,,,,,,,,,,,,,,,,0,2,2,2,0,5,5,0,,,,,,,,,,,,,,,,,,,,,,,,,,,,,,,,,,,,,,,,,,,,,,,946.6722586629985,None,946.6722586629985,None,946.6722586629985,None,r,0,1.1207227390004846,948.2054869239983,None,948.2054869239983,None,948.2054869239983,None,949.3887676109989,None,949.3887676109989,None,949.3887676109989,None,949.3887676109989,None,,,,,,,,,,,,,,,,,,,,,,,,,,,,,,,,,,,,,,,,,,,,001,43,2020_Jan_30_1358,spring_faces,3.1.5,60.062138245531536,
condition files/Stage2_2.xlsx,,B5,T5,s,"['s', 'r']","['Stratego', 'Risk']","[-0.15, 0.5]","[0.15, 0.5]",1,1,,,,,,,,,,,,,,,,,0,3,3,3,0,0,0,0,,,,,,,,,,,,,,,,,,,,,,,,,,,,,,,,,,,,,,,,,,,,,,,951.3719208270013,None,951.3719208270013,None,951.3719208270013,None,r,0,1.1409458430025552,952.9053118349984,None,952.9053118349984,None,952.9053118349984,None,954.1054437720013,None,954.1054437720013,None,954.1054437720013,None,954.1054437720013,None,,,,,,,,,,,,,,,,,,,,,,,,,,,,,,,,,,,,,,,,,,,,001,43,2020_Jan_30_1358,spring_faces,3.1.5,60.062138245531536,
condition files/Stage2_2.xlsx,,B1,T1,s,"['s', 'r']","['Stratego', 'Risk']","[-0.15, 0.5]","[0.15, 0.5]",1,1,,,,,,,,,,,,,,,,,0,3,3,3,0,1,1,2,,,,,,,,,,,,,,,,,,,,,,,,,,,,,,,,,,,,,,,,,,,,,,,956.0721812179981,None,956.0721812179981,None,956.0721812179981,None,s,1,0.6328484799996659,957.6053719970005,None,957.6053719970005,None,957.6053719970005,None,958.2891248710002,None,958.2891248710002,None,958.2891248710002,None,958.2891248710002,None,,,,,,,,,,,,,,,,,,,,,,,,,,,,,,,,,,,,,,,,,,,,001,43,2020_Jan_30_1358,spring_faces,3.1.5,60.062138245531536,
condition files/Stage2_2.xlsx,,T6,B6,r,"['s', 'r']","['Stratego', 'Risk']","[-0.15, 0.5]","[0.15, 0.5]",1,1,,,,,,,,,,,,,,,,,0,3,3,3,0,2,2,1,,,,,,,,,,,,,,,,,,,,,,,,,,,,,,,,,,,,,,,,,,,,,,,960.2551540470013,None,960.2551540470013,None,960.2551540470013,None,r,1,0.6880485090005095,961.7901780389984,None,961.7901780389984,None,961.7901780389984,None,962.5389288890001,None,962.5389288890001,None,962.5389288890001,None,962.5389288890001,None,,,,,,,,,,,,,,,,,,,,,,,,,,,,,,,,,,,,,,,,,,,,001,43,2020_Jan_30_1358,spring_faces,3.1.5,60.062138245531536,
condition files/Stage2_2.xlsx,,T2,B2,r,"['s', 'r']","['Stratego', 'Risk']","[-0.15, 0.5]","[0.15, 0.5]",1,1,,,,,,,,,,,,,,,,,0,3,3,3,0,3,3,3,,,,,,,,,,,,,,,,,,,,,,,,,,,,,,,,,,,,,,,,,,,,,,,964.5049973050009,None,964.5049973050009,None,964.5049973050009,None,s,0,0.550119438998081,966.0560068449995,None,966.0560068449995,None,966.0560068449995,None,966.6726200339981,None,966.6726200339981,None,966.6726200339981,None,966.6726200339981,None,,,,,,,,,,,,,,,,,,,,,,,,,,,,,,,,,,,,,,,,,,,,001,43,2020_Jan_30_1358,spring_faces,3.1.5,60.062138245531536,
condition files/Stage2_2.xlsx,,T4,B4,r,"['s', 'r']","['Stratego', 'Risk']","[-0.15, 0.5]","[0.15, 0.5]",1,1,,,,,,,,,,,,,,,,,0,3,3,3,0,4,4,5,,,,,,,,,,,,,,,,,,,,,,,,,,,,,,,,,,,,,,,,,,,,,,,968.6385625000003,None,968.6385625000003,None,968.6385625000003,None,s,0,1.1370987959999184,970.1731144090008,None,970.1731144090008,None,970.1731144090008,None,971.372551886001,None,971.372551886001,None,971.372551886001,None,971.372551886001,None,,,,,,,,,,,,,,,,,,,,,,,,,,,,,,,,,,,,,,,,,,,,001,43,2020_Jan_30_1358,spring_faces,3.1.5,60.062138245531536,
condition files/Stage2_2.xlsx,,B3,T3,s,"['s', 'r']","['Stratego', 'Risk']","[-0.15, 0.5]","[0.15, 0.5]",1,1,,,,,,,,,,,,,,,,,0,3,3,3,0,5,5,4,,,,,,,,,,,,,,,,,,,,,,,,,,,,,,,,,,,,,,,,,,,,,,,973.3383940460008,None,973.3383940460008,None,973.3383940460008,None,r,0,0.9498594859978766,974.8883468140011,None,974.8883468140011,None,974.8883468140011,None,975.8906559429997,None,975.8906559429997,None,975.8906559429997,None,975.8906559429997,None,,,,,,,,,,,,,,,,,,,,,,,,,,,,,,,,,,,,,,,,,,,,001,43,2020_Jan_30_1358,spring_faces,3.1.5,60.062138245531536,
condition files/Stage2_1.xlsx,,T3,B3,s,"['s', 'r']","['Stratego', 'Risk']","[-0.15, 0.5]","[0.15, 0.5]",1,1,,,,,,,,,,,,,,,,,0,4,4,4,0,0,0,4,,,,,,,,,,,,,,,,,,,,,,,,,,,,,,,,,,,,,,,,,,,,,,,977.8723459370012,None,977.8723459370012,None,977.8723459370012,None,s,1,2.38291627199942,979.4072353800002,None,979.4072353800002,None,979.4072353800002,None,981.8557715610004,None,981.8557715610004,None,981.8557715610004,None,981.8557715610004,None,,,,,,,,,,,,,,,,,,,,,,,,,,,,,,,,,,,,,,,,,,,,001,43,2020_Jan_30_1358,spring_faces,3.1.5,60.062138245531536,
condition files/Stage2_1.xlsx,,B6,T6,r,"['s', 'r']","['Stratego', 'Risk']","[-0.15, 0.5]","[0.15, 0.5]",1,1,,,,,,,,,,,,,,,,,0,4,4,4,0,1,1,1,,,,,,,,,,,,,,,,,,,,,,,,,,,,,,,,,,,,,,,,,,,,,,,983.8214929009991,None,983.8214929009991,None,983.8214929009991,None,r,1,1.793822071998875,985.3724150359994,None,985.3724150359994,None,985.3724150359994,None,987.2239413290008,None,987.2239413290008,None,987.2239413290008,None,987.2239413290008,None,,,,,,,,,,,,,,,,,,,,,,,,,,,,,,,,,,,,,,,,,,,,001,43,2020_Jan_30_1358,spring_faces,3.1.5,60.062138245531536,
condition files/Stage2_1.xlsx,,T1,B1,s,"['s', 'r']","['Stratego', 'Risk']","[-0.15, 0.5]","[0.15, 0.5]",1,1,,,,,,,,,,,,,,,,,0,4,4,4,0,2,2,2,,,,,,,,,,,,,,,,,,,,,,,,,,,,,,,,,,,,,,,,,,,,,,,989.1881862080008,None,989.1881862080008,None,989.1881862080008,None,s,1,0.8761326410021866,990.7221632190012,None,990.7221632190012,None,990.7221632190012,None,991.6584975590013,None,991.6584975590013,None,991.6584975590013,None,991.6584975590013,None,,,,,,,,,,,,,,,,,,,,,,,,,,,,,,,,,,,,,,,,,,,,001,43,2020_Jan_30_1358,spring_faces,3.1.5,60.062138245531536,
