condsFile,subStage,cue1,cue2,correct,responseKeys,responseNames,cue1Position,cue2Position,cue1Opacity,cue2Opacity,stageLoop0.thisRepN,stageLoop0.thisTrialN,stageLoop0.thisN,stageLoop0.thisIndex,blockLoop0.thisRepN,blockLoop0.thisTrialN,blockLoop0.thisN,blockLoop0.thisIndex,stage1Loop.thisRepN,stage1Loop.thisTrialN,stage1Loop.thisN,stage1Loop.thisIndex,blockLoop1.thisRepN,blockLoop1.thisTrialN,blockLoop1.thisN,blockLoop1.thisIndex,stage2Loop.thisRepN,stage2Loop.thisTrialN,stage2Loop.thisN,stage2Loop.thisIndex,blockLoop2.thisRepN,blockLoop2.thisTrialN,blockLoop2.thisN,blockLoop2.thisIndex,testLoop.thisRepN,testLoop.thisTrialN,testLoop.thisN,testLoop.thisIndex,blockLoopTest.thisRepN,blockLoopTest.thisTrialN,blockLoopTest.thisN,blockLoopTest.thisIndex,cuePics,id_instr_text.started,id_instr_text.stopped,space_to_continue_2.started,space_to_continue_2.stopped,end_instructions_resp_3.keys,end_instructions_resp_3.rt,end_instructions_resp_3.started,end_instructions_resp_3.stopped,id_input_instr.started,id_input_instr.stopped,id_input_rect.started,id_input_rect.stopped,id_input_resp.keys,id_input_resp.rt,id_input_resp.started,id_input_resp.stopped,sonaID,id_input_text.started,id_input_text.stopped,final_text.started,final_text.stopped,instructions.started,instructions.stopped,end_instructions_resp.keys,end_instructions_resp.rt,end_instructions_resp.started,end_instructions_resp.stopped,space_to_continue.started,space_to_continue.stopped,instructions_stage0.started,instructions_stage0.stopped,end_instructions_resp_stage0.keys,end_instructions_resp_stage0.rt,end_instructions_resp_stage0.started,end_instructions_resp_stage0.stopped,space_to_continue_stage0.started,space_to_continue_stage0.stopped,text.started,text.stopped,resp_text1.started,resp_text1.stopped,resp_text2.started,resp_text2.stopped,trial_resp.keys,trial_resp.corr,trial_resp.rt,trial_resp.started,trial_resp.stopped,cue1Image.started,cue1Image.stopped,cue2Image.started,cue2Image.stopped,cue1Image_fb.started,cue1Image_fb.stopped,cue2Image_fb.started,cue2Image_fb.stopped,fb_text_answer.started,fb_text_answer.stopped,feedback_image.started,feedback_image.stopped,instructions_stage1.started,instructions_stage1.stopped,end_instructions_resp_stage1.keys,end_instructions_resp_stage1.rt,end_instructions_resp_stage1.started,end_instructions_resp_stage1.stopped,space_to_continue_stage1.started,space_to_continue_stage1.stopped,instructions_2.started,instructions_2.stopped,end_instructions_resp_2.keys,end_instructions_resp_2.rt,end_instructions_resp_2.started,end_instructions_resp_2.stopped,press_space_to_continue_stage2.started,press_space_to_continue_stage2.stopped,instructions_testStage1.started,instructions_testStage1.stopped,end_instructions_resp_test1.keys,end_instructions_resp_test1.rt,end_instructions_resp_test1.started,end_instructions_resp_test1.stopped,press_space_to_continue_test1.started,press_space_to_continue_test1.stopped,cue1Image_testChoice.started,cue1Image_testChoice.stopped,cue2Image_testChoice.started,cue2Image_testChoice.stopped,test_resp.keys,test_resp.corr,test_resp.rt,test_resp.started,test_resp.stopped,cue1Image_testConf.started,cue1Image_testConf.stopped,cue2Image_testConf.started,cue2Image_testConf.stopped,conf_reminder.started,conf_reminder.stopped,conf_rating.response,conf_rating.rt,conf_rating.started,conf_rating.stopped,session,participant,date,expName,psychopyVersion,frameRate,
,,,,,,,,,,,,,,,,,,,,,,,,,,,,,,,,,,,,,,,,,,,"{'none': 'pictures/20M_AN_C.png', 'alpha': 'pictures/SHINEd_melon.png', 'beta': 'pictures/SHINEd_apple.png', 'theta': 'pictures/SHINEd_pepper.png', 'phi': 'pictures/SHINEd_pear.png', 'T1': 'pictures/36M_AN_C.png', 'T2': 'pictures/33M_AN_C.png', 'T3': 'pictures/23M_AN_C.png', 'T4': 'pictures/20M_AN_C.png', 'T5': 'pictures/22M_AN_C.png', 'T6': 'pictures/31M_AN_C.png', 'B1': 'pictures/38M_NE_C.png', 'B2': 'pictures/37M_NE_C.png', 'B3': 'pictures/25M_NE_C.png', 'B4': 'pictures/32M_NE_C.png', 'B5': 'pictures/26M_NE_C.png', 'B6': 'pictures/34M_NE_C.png'}",63.13490861399987,None,68.1182037619983,None,space,13.635813005999808,68.1182037619983,None,,,,,,,,,,,,,,,,,,,,,,,,,,,,,,,,,,,,,,,,,,,,,,,,,,,,,,,,,,,,,,,,,,,,,,,,,,,,,,,,,,,,,,,,,,,,,,,,001,47,2020_Jan_30_1446,spring_faces,3.1.5,60.193158520551854,
,,,,,,,,,,,,,,,,,,,,,,,,,,,,,,,,,,,,,,,,,,,,,,,,,,,,82.15138828899944,None,82.15138828899944,None,"['1', '0', '3', '0', 'h', 'u', 't', 'r', 'e']","[10.450557599000604, 10.6106839210006, 17.42656652599908, 17.682582093999372, 24.050564002998726, 24.25867540299805, 35.346617801998946, 35.60256963199936, 35.77857645200129]",82.15138828899944,None,,,,,,,,,,,,,,,,,,,,,,,,,,,,,,,,,,,,,,,,,,,,,,,,,,,,,,,,,,,,,,,,,,,,,,,,,,,,,,,,,,,,,,,,001,47,2020_Jan_30_1446,spring_faces,3.1.5,60.193158520551854,
,,,,,,,,,,,,,,,,,,,,,,,,,,,,,,,,,,,,,,,,,,,,,,,,,,,,,,,,,,,,1030hutre,82.15138828899944,None,82.15138828899944,None,123.00126411699966,None,space,0.6967422420020739,128.00127036599952,None,,,,,,,,,,,,,,,,,,,,,,,,,,,,,,,,,,,,,,,,,,,,,,,,,,,,,,,,,,,,,,,,,,,,,,,,,,,,,001,47,2020_Jan_30_1446,spring_faces,3.1.5,60.193158520551854,
,,,,,,,,,,,,,,,,,,,,,,,,,,,,,,,,,,,,,,,,,,,,,,,,,,,,,,,,,,,,,,,,,,,,,,,128.00127036599952,None,128.7347534920009,None,space,6.259086686997762,133.73500664699895,None,,,,,,,,,,,,,,,,,,,,,,,,,,,,,,,,,,,,,,,,,,,,,,,,,,,,,,,,,,,,,,,,,,,,,001,47,2020_Jan_30_1446,spring_faces,3.1.5,60.193158520551854,
condition files/Stage0a.xlsx,0a,alpha,none,h,"['h', 'g']","['Chess', 'Go']","[0, 0.5]","[0, 0]",1,0,0,0,0,0,0,0,0,0,,,,,,,,,,,,,,,,,,,,,,,,,,,,,,,,,,,,,,,,,,,,,,,,,,,,,,,,,,,,,133.73500664699895,None,140.05185527199865,None,140.05185527199865,None,140.05185527199865,None,g,0,3.4096410409983946,141.73634555899844,None,141.73634555899844,None,141.73634555899844,None,145.21838564499922,None,145.21838564499922,None,145.21838564499922,None,145.21838564499922,None,,,,,,,,,,,,,,,,,,,,,,,,,,,,,,,,,,,,,,,,,,,,001,47,2020_Jan_30_1446,spring_faces,3.1.5,60.193158520551854,
condition files/Stage0a.xlsx,0a,beta,none,g,"['h', 'g']","['Chess', 'Go']","[0, 0.5]","[0, 0]",1,0,0,0,0,0,0,1,1,1,,,,,,,,,,,,,,,,,,,,,,,,,,,,,,,,,,,,,,,,,,,,,,,,,,,,,,,,,,,,,,,147.16793549900103,None,147.16793549900103,None,147.16793549900103,None,h,0,0.8908464390005975,148.71921104599824,None,148.71921104599824,None,148.71921104599824,None,149.668093166998,None,149.668093166998,None,149.668093166998,None,149.668093166998,None,,,,,,,,,,,,,,,,,,,,,,,,,,,,,,,,,,,,,,,,,,,,001,47,2020_Jan_30_1446,spring_faces,3.1.5,60.193158520551854,
condition files/Stage0a.xlsx,0a,alpha,none,h,"['h', 'g']","['Chess', 'Go']","[0, 0.5]","[0, 0]",1,0,0,1,1,1,0,0,0,0,,,,,,,,,,,,,,,,,,,,,,,,,,,,,,,,,,,,,,,,,,,,,,,,,,,,,,,,,,,,,,,151.6518280909986,None,151.6518280909986,None,151.6518280909986,None,h,1,2.3127047659982054,153.18533835500057,None,153.18533835500057,None,153.18533835500057,None,155.56803704199774,None,155.56803704199774,None,155.56803704199774,None,155.56803704199774,None,,,,,,,,,,,,,,,,,,,,,,,,,,,,,,,,,,,,,,,,,,,,001,47,2020_Jan_30_1446,spring_faces,3.1.5,60.193158520551854,
condition files/Stage0a.xlsx,0a,beta,none,g,"['h', 'g']","['Chess', 'Go']","[0, 0.5]","[0, 0]",1,0,0,1,1,1,0,1,1,1,,,,,,,,,,,,,,,,,,,,,,,,,,,,,,,,,,,,,,,,,,,,,,,,,,,,,,,,,,,,,,,157.51795418099937,None,157.51795418099937,None,157.51795418099937,None,g,1,0.8785630799975479,159.05145220299892,None,159.05145220299892,None,159.05145220299892,None,159.98479055999996,None,159.98479055999996,None,159.98479055999996,None,159.98479055999996,None,,,,,,,,,,,,,,,,,,,,,,,,,,,,,,,,,,,,,,,,,,,,001,47,2020_Jan_30_1446,spring_faces,3.1.5,60.193158520551854,
condition files/Stage0a.xlsx,0a,alpha,none,h,"['h', 'g']","['Chess', 'Go']","[0, 0.5]","[0, 0]",1,0,0,2,2,2,0,0,0,0,,,,,,,,,,,,,,,,,,,,,,,,,,,,,,,,,,,,,,,,,,,,,,,,,,,,,,,,,,,,,,,161.9683161489993,None,161.9683161489993,None,161.9683161489993,None,h,1,0.6525791470012337,163.5014363579976,None,163.5014363579976,None,163.5014363579976,None,164.21812955099813,None,164.21812955099813,None,164.21812955099813,None,164.21812955099813,None,,,,,,,,,,,,,,,,,,,,,,,,,,,,,,,,,,,,,,,,,,,,001,47,2020_Jan_30_1446,spring_faces,3.1.5,60.193158520551854,
condition files/Stage0a.xlsx,0a,beta,none,g,"['h', 'g']","['Chess', 'Go']","[0, 0.5]","[0, 0]",1,0,0,2,2,2,0,1,1,1,,,,,,,,,,,,,,,,,,,,,,,,,,,,,,,,,,,,,,,,,,,,,,,,,,,,,,,,,,,,,,,166.18475249399853,None,166.18475249399853,None,166.18475249399853,None,g,1,0.46713979699779884,167.7188506450002,None,167.7188506450002,None,167.7188506450002,None,168.25149049600077,None,168.25149049600077,None,168.25149049600077,None,168.25149049600077,None,,,,,,,,,,,,,,,,,,,,,,,,,,,,,,,,,,,,,,,,,,,,001,47,2020_Jan_30_1446,spring_faces,3.1.5,60.193158520551854,
condition files/Stage0a.xlsx,0a,beta,none,g,"['h', 'g']","['Chess', 'Go']","[0, 0.5]","[0, 0]",1,0,0,3,3,3,0,0,0,1,,,,,,,,,,,,,,,,,,,,,,,,,,,,,,,,,,,,,,,,,,,,,,,,,,,,,,,,,,,,,,,170.2348125009994,None,170.2348125009994,None,170.2348125009994,None,h,0,0.46620761300073355,171.76783446099944,None,171.76783446099944,None,171.76783446099944,None,172.28497707600036,None,172.28497707600036,None,172.28497707600036,None,172.28497707600036,None,,,,,,,,,,,,,,,,,,,,,,,,,,,,,,,,,,,,,,,,,,,,001,47,2020_Jan_30_1446,spring_faces,3.1.5,60.193158520551854,
condition files/Stage0a.xlsx,0a,alpha,none,h,"['h', 'g']","['Chess', 'Go']","[0, 0.5]","[0, 0]",1,0,0,3,3,3,0,1,1,0,,,,,,,,,,,,,,,,,,,,,,,,,,,,,,,,,,,,,,,,,,,,,,,,,,,,,,,,,,,,,,,174.2512665510003,None,174.2512665510003,None,174.2512665510003,None,h,1,0.9293690259983123,175.78461514299852,None,175.78461514299852,None,175.78461514299852,None,176.76802719099942,None,176.76802719099942,None,176.76802719099942,None,176.76802719099942,None,,,,,,,,,,,,,,,,,,,,,,,,,,,,,,,,,,,,,,,,,,,,001,47,2020_Jan_30_1446,spring_faces,3.1.5,60.193158520551854,
condition files/Stage0a.xlsx,0a,beta,none,g,"['h', 'g']","['Chess', 'Go']","[0, 0.5]","[0, 0]",1,0,0,4,4,4,0,0,0,1,,,,,,,,,,,,,,,,,,,,,,,,,,,,,,,,,,,,,,,,,,,,,,,,,,,,,,,,,,,,,,,178.7513896169985,None,178.7513896169985,None,178.7513896169985,None,g,1,0.5072764100004861,180.28682148100052,None,180.28682148100052,None,180.28682148100052,None,180.85189864999847,None,180.85189864999847,None,180.85189864999847,None,180.85189864999847,None,,,,,,,,,,,,,,,,,,,,,,,,,,,,,,,,,,,,,,,,,,,,001,47,2020_Jan_30_1446,spring_faces,3.1.5,60.193158520551854,
condition files/Stage0a.xlsx,0a,alpha,none,h,"['h', 'g']","['Chess', 'Go']","[0, 0.5]","[0, 0]",1,0,0,4,4,4,0,1,1,0,,,,,,,,,,,,,,,,,,,,,,,,,,,,,,,,,,,,,,,,,,,,,,,,,,,,,,,,,,,,,,,182.81800784299776,None,182.81800784299776,None,182.81800784299776,None,h,1,0.6667783859993506,184.35128555199844,None,184.35128555199844,None,184.35128555199844,None,185.06904105099966,None,185.06904105099966,None,185.06904105099966,None,185.06904105099966,None,,,,,,,,,,,,,,,,,,,,,,,,,,,,,,,,,,,,,,,,,,,,001,47,2020_Jan_30_1446,spring_faces,3.1.5,60.193158520551854,
condition files/Stage0a.xlsx,0a,alpha,none,h,"['h', 'g']","['Chess', 'Go']","[0, 0.5]","[0, 0]",1,0,0,5,5,5,0,0,0,0,,,,,,,,,,,,,,,,,,,,,,,,,,,,,,,,,,,,,,,,,,,,,,,,,,,,,,,,,,,,,,,187.05160516699834,None,187.05160516699834,None,187.05160516699834,None,h,1,0.5770783929983736,188.58500226199976,None,188.58500226199976,None,188.58500226199976,None,189.21846929399908,None,189.21846929399908,None,189.21846929399908,None,189.21846929399908,None,,,,,,,,,,,,,,,,,,,,,,,,,,,,,,,,,,,,,,,,,,,,001,47,2020_Jan_30_1446,spring_faces,3.1.5,60.193158520551854,
condition files/Stage0a.xlsx,0a,beta,none,g,"['h', 'g']","['Chess', 'Go']","[0, 0.5]","[0, 0]",1,0,0,5,5,5,0,1,1,1,,,,,,,,,,,,,,,,,,,,,,,,,,,,,,,,,,,,,,,,,,,,,,,,,,,,,,,,,,,,,,,191.18465743200068,None,191.18465743200068,None,191.18465743200068,None,g,1,0.6522110490004707,192.71781530099906,None,192.71781530099906,None,192.71781530099906,None,193.43513814700054,None,193.43513814700054,None,193.43513814700054,None,193.43513814700054,None,,,,,,,,,,,,,,,,,,,,,,,,,,,,,,,,,,,,,,,,,,,,001,47,2020_Jan_30_1446,spring_faces,3.1.5,60.193158520551854,
condition files/Stage0b_1.xlsx,0b,none,beta,g,"['h', 'g']","['Chess', 'Go']","[-0.15, 0.5]","[0.15, 0.5]",0,1,0,6,6,6,0,0,0,1,,,,,,,,,,,,,,,,,,,,,,,,,,,,,,,,,,,,,,,,,,,,,,,,,,,,,,,,,,,,,,,195.46838598599788,None,195.46838598599788,None,195.46838598599788,None,g,1,0.49772456899881945,196.96829780699773,None,196.96829780699773,None,196.96829780699773,None,197.51882477799882,None,197.51882477799882,None,197.51882477799882,None,197.51882477799882,None,,,,,,,,,,,,,,,,,,,,,,,,,,,,,,,,,,,,,,,,,,,,001,47,2020_Jan_30_1446,spring_faces,3.1.5,60.193158520551854,
condition files/Stage0b_1.xlsx,0b,alpha,none,h,"['h', 'g']","['Chess', 'Go']","[-0.15, 0.5]","[0.15, 0.5]",1,0,0,6,6,6,0,1,1,0,,,,,,,,,,,,,,,,,,,,,,,,,,,,,,,,,,,,,,,,,,,,,,,,,,,,,,,,,,,,,,,199.48478169699956,None,199.48478169699956,None,199.48478169699956,None,h,1,0.6871512409998104,201.03486482299922,None,201.03486482299922,None,201.03486482299922,None,201.78476938699896,None,201.78476938699896,None,201.78476938699896,None,201.78476938699896,None,,,,,,,,,,,,,,,,,,,,,,,,,,,,,,,,,,,,,,,,,,,,001,47,2020_Jan_30_1446,spring_faces,3.1.5,60.193158520551854,
condition files/Stage0b_2.xlsx,0b,beta,none,g,"['h', 'g']","['Chess', 'Go']","[-0.15, 0.5]","[0.15, 0.5]",1,0,0,7,7,7,0,0,0,1,,,,,,,,,,,,,,,,,,,,,,,,,,,,,,,,,,,,,,,,,,,,,,,,,,,,,,,,,,,,,,,203.8008372789991,None,203.8008372789991,None,203.8008372789991,None,g,1,0.4690816369984532,205.30093291999947,None,205.30093291999947,None,205.30093291999947,None,205.8348389419989,None,205.8348389419989,None,205.8348389419989,None,205.8348389419989,None,,,,,,,,,,,,,,,,,,,,,,,,,,,,,,,,,,,,,,,,,,,,001,47,2020_Jan_30_1446,spring_faces,3.1.5,60.193158520551854,
condition files/Stage0b_2.xlsx,0b,none,alpha,h,"['h', 'g']","['Chess', 'Go']","[-0.15, 0.5]","[0.15, 0.5]",0,1,0,7,7,7,0,1,1,0,,,,,,,,,,,,,,,,,,,,,,,,,,,,,,,,,,,,,,,,,,,,,,,,,,,,,,,,,,,,,,,207.80091965999964,None,207.80091965999964,None,207.80091965999964,None,h,1,0.6106856119986332,209.3513609269976,None,209.3513609269976,None,209.3513609269976,None,210.0227777149994,None,210.0227777149994,None,210.0227777149994,None,210.0227777149994,None,,,,,,,,,,,,,,,,,,,,,,,,,,,,,,,,,,,,,,,,,,,,001,47,2020_Jan_30_1446,spring_faces,3.1.5,60.193158520551854,
condition files/Stage0b_1.xlsx,0b,alpha,none,h,"['h', 'g']","['Chess', 'Go']","[-0.15, 0.5]","[0.15, 0.5]",1,0,0,8,8,8,0,0,0,0,,,,,,,,,,,,,,,,,,,,,,,,,,,,,,,,,,,,,,,,,,,,,,,,,,,,,,,,,,,,,,,212.00157811499957,None,212.00157811499957,None,212.00157811499957,None,h,1,0.6477957810020598,213.53819867999846,None,213.53819867999846,None,213.53819867999846,None,214.25117937200048,None,214.25117937200048,None,214.25117937200048,None,214.25117937200048,None,,,,,,,,,,,,,,,,,,,,,,,,,,,,,,,,,,,,,,,,,,,,001,47,2020_Jan_30_1446,spring_faces,3.1.5,60.193158520551854,
condition files/Stage0b_1.xlsx,0b,none,beta,g,"['h', 'g']","['Chess', 'Go']","[-0.15, 0.5]","[0.15, 0.5]",0,1,0,8,8,8,0,1,1,1,,,,,,,,,,,,,,,,,,,,,,,,,,,,,,,,,,,,,,,,,,,,,,,,,,,,,,,,,,,,,,,216.2180897750004,None,216.2180897750004,None,216.2180897750004,None,g,1,0.5293530889975955,217.75266120299784,None,217.75266120299784,None,217.75266120299784,None,218.3357214489988,None,218.3357214489988,None,218.3357214489988,None,218.3357214489988,None,,,,,,,,,,,,,,,,,,,,,,,,,,,,,,,,,,,,,,,,,,,,001,47,2020_Jan_30_1446,spring_faces,3.1.5,60.193158520551854,
condition files/Stage0b_2.xlsx,0b,beta,none,g,"['h', 'g']","['Chess', 'Go']","[-0.15, 0.5]","[0.15, 0.5]",1,0,0,9,9,9,0,0,0,1,,,,,,,,,,,,,,,,,,,,,,,,,,,,,,,,,,,,,,,,,,,,,,,,,,,,,,,,,,,,,,,220.31839946299806,None,220.31839946299806,None,220.31839946299806,None,g,1,0.8115128320023359,221.85450793199925,None,221.85450793199925,None,221.85450793199925,None,222.7182131419977,None,222.7182131419977,None,222.7182131419977,None,222.7182131419977,None,,,,,,,,,,,,,,,,,,,,,,,,,,,,,,,,,,,,,,,,,,,,001,47,2020_Jan_30_1446,spring_faces,3.1.5,60.193158520551854,
condition files/Stage0b_2.xlsx,0b,none,alpha,h,"['h', 'g']","['Chess', 'Go']","[-0.15, 0.5]","[0.15, 0.5]",0,1,0,9,9,9,0,1,1,0,,,,,,,,,,,,,,,,,,,,,,,,,,,,,,,,,,,,,,,,,,,,,,,,,,,,,,,,,,,,,,,224.684771799999,None,224.684771799999,None,224.684771799999,None,h,1,0.5262606350006536,226.2197534099978,None,226.2197534099978,None,226.2197534099978,None,226.80335811400073,None,226.80335811400073,None,226.80335811400073,None,226.80335811400073,None,,,,,,,,,,,,,,,,,,,,,,,,,,,,,,,,,,,,,,,,,,,,001,47,2020_Jan_30_1446,spring_faces,3.1.5,60.193158520551854,
condition files/Stage0b_1.xlsx,0b,none,beta,g,"['h', 'g']","['Chess', 'Go']","[-0.15, 0.5]","[0.15, 0.5]",0,1,0,10,10,10,0,0,0,1,,,,,,,,,,,,,,,,,,,,,,,,,,,,,,,,,,,,,,,,,,,,,,,,,,,,,,,,,,,,,,,228.78543077699942,None,228.78543077699942,None,228.78543077699942,None,g,1,0.41104885899767396,230.3189884229978,None,230.3189884229978,None,230.3189884229978,None,230.78466140599994,None,230.78466140599994,None,230.78466140599994,None,230.78466140599994,None,,,,,,,,,,,,,,,,,,,,,,,,,,,,,,,,,,,,,,,,,,,,001,47,2020_Jan_30_1446,spring_faces,3.1.5,60.193158520551854,
condition files/Stage0b_1.xlsx,0b,alpha,none,h,"['h', 'g']","['Chess', 'Go']","[-0.15, 0.5]","[0.15, 0.5]",1,0,0,10,10,10,0,1,1,0,,,,,,,,,,,,,,,,,,,,,,,,,,,,,,,,,,,,,,,,,,,,,,,,,,,,,,,,,,,,,,,232.7514432349999,None,232.7514432349999,None,232.7514432349999,None,h,1,0.8075893560016993,234.29041346599843,None,234.29041346599843,None,234.29041346599843,None,235.15632154099876,None,235.15632154099876,None,235.15632154099876,None,235.15632154099876,None,,,,,,,,,,,,,,,,,,,,,,,,,,,,,,,,,,,,,,,,,,,,001,47,2020_Jan_30_1446,spring_faces,3.1.5,60.193158520551854,
condition files/Stage0b_2.xlsx,0b,none,alpha,h,"['h', 'g']","['Chess', 'Go']","[-0.15, 0.5]","[0.15, 0.5]",0,1,0,11,11,11,0,0,0,0,,,,,,,,,,,,,,,,,,,,,,,,,,,,,,,,,,,,,,,,,,,,,,,,,,,,,,,,,,,,,,,237.13474816799862,None,237.13474816799862,None,237.13474816799862,None,h,1,1.0345206870006223,238.6715279559976,None,238.6715279559976,None,238.6715279559976,None,239.76809186299943,None,239.76809186299943,None,239.76809186299943,None,239.76809186299943,None,,,,,,,,,,,,,,,,,,,,,,,,,,,,,,,,,,,,,,,,,,,,001,47,2020_Jan_30_1446,spring_faces,3.1.5,60.193158520551854,
condition files/Stage0b_2.xlsx,0b,beta,none,g,"['h', 'g']","['Chess', 'Go']","[-0.15, 0.5]","[0.15, 0.5]",1,0,0,11,11,11,0,1,1,1,,,,,,,,,,,,,,,,,,,,,,,,,,,,,,,,,,,,,,,,,,,,,,,,,,,,,,,,,,,,,,,241.73468911599775,None,241.73468911599775,None,241.73468911599775,None,g,1,0.5650017709995154,243.26902048299962,None,243.26902048299962,None,243.26902048299962,None,243.88678648399946,None,243.88678648399946,None,243.88678648399946,None,243.88678648399946,None,,,,,,,,,,,,,,,,,,,,,,,,,,,,,,,,,,,,,,,,,,,,001,47,2020_Jan_30_1446,spring_faces,3.1.5,60.193158520551854,
condition files/Stage0c_1.xlsx,0c,beta,theta,g,"['h', 'g']","['Chess', 'Go']","[-0.15, 0.5]","[0.15, 0.5]",1,1,0,12,12,12,0,0,0,2,,,,,,,,,,,,,,,,,,,,,,,,,,,,,,,,,,,,,,,,,,,,,,,,,,,,,,,,,,,,,,,245.86856192900086,None,245.86856192900086,None,245.86856192900086,None,g,1,2.7050588659985806,247.4009589640009,None,247.4009589640009,None,247.4009589640009,None,250.16806740299944,None,250.16806740299944,None,250.16806740299944,None,250.16806740299944,None,,,,,,,,,,,,,,,,,,,,,,,,,,,,,,,,,,,,,,,,,,,,001,47,2020_Jan_30_1446,spring_faces,3.1.5,60.193158520551854,
condition files/Stage0c_1.xlsx,0c,phi,beta,g,"['h', 'g']","['Chess', 'Go']","[-0.15, 0.5]","[0.15, 0.5]",1,1,0,12,12,12,0,1,1,3,,,,,,,,,,,,,,,,,,,,,,,,,,,,,,,,,,,,,,,,,,,,,,,,,,,,,,,,,,,,,,,252.1347448569977,None,252.1347448569977,None,252.1347448569977,None,g,1,1.125944100000197,253.6681338060007,None,253.6681338060007,None,253.6681338060007,None,254.85138823799934,None,254.85138823799934,None,254.85138823799934,None,254.85138823799934,None,,,,,,,,,,,,,,,,,,,,,,,,,,,,,,,,,,,,,,,,,,,,001,47,2020_Jan_30_1446,spring_faces,3.1.5,60.193158520551854,
condition files/Stage0c_1.xlsx,0c,theta,alpha,h,"['h', 'g']","['Chess', 'Go']","[-0.15, 0.5]","[0.15, 0.5]",1,1,0,12,12,12,0,2,2,0,,,,,,,,,,,,,,,,,,,,,,,,,,,,,,,,,,,,,,,,,,,,,,,,,,,,,,,,,,,,,,,256.81813740899815,None,256.81813740899815,None,256.81813740899815,None,h,1,0.714120319000358,258.3518644649994,None,258.3518644649994,None,258.3518644649994,None,259.1179929389982,None,259.1179929389982,None,259.1179929389982,None,259.1179929389982,None,,,,,,,,,,,,,,,,,,,,,,,,,,,,,,,,,,,,,,,,,,,,001,47,2020_Jan_30_1446,spring_faces,3.1.5,60.193158520551854,
condition files/Stage0c_1.xlsx,0c,alpha,phi,h,"['h', 'g']","['Chess', 'Go']","[-0.15, 0.5]","[0.15, 0.5]",1,1,0,12,12,12,0,3,3,1,,,,,,,,,,,,,,,,,,,,,,,,,,,,,,,,,,,,,,,,,,,,,,,,,,,,,,,,,,,,,,,261.08489582199763,None,261.08489582199763,None,261.08489582199763,None,h,1,1.503698306001752,262.61833194599967,None,262.61833194599967,None,262.61833194599967,None,264.1849819179988,None,264.1849819179988,None,264.1849819179988,None,264.1849819179988,None,,,,,,,,,,,,,,,,,,,,,,,,,,,,,,,,,,,,,,,,,,,,001,47,2020_Jan_30_1446,spring_faces,3.1.5,60.193158520551854,
condition files/Stage0c_2.xlsx,0c,phi,alpha,h,"['h', 'g']","['Chess', 'Go']","[-0.15, 0.5]","[0.15, 0.5]",1,1,0,13,13,13,0,0,0,1,,,,,,,,,,,,,,,,,,,,,,,,,,,,,,,,,,,,,,,,,,,,,,,,,,,,,,,,,,,,,,,266.1684426409993,None,266.1684426409993,None,266.1684426409993,None,h,1,0.8210585099986929,267.68494946400097,None,267.68494946400097,None,267.68494946400097,None,268.55416479199994,None,268.55416479199994,None,268.55416479199994,None,268.55416479199994,None,,,,,,,,,,,,,,,,,,,,,,,,,,,,,,,,,,,,,,,,,,,,001,47,2020_Jan_30_1446,spring_faces,3.1.5,60.193158520551854,
condition files/Stage0c_2.xlsx,0c,beta,phi,g,"['h', 'g']","['Chess', 'Go']","[-0.15, 0.5]","[0.15, 0.5]",1,1,0,13,13,13,0,1,1,3,,,,,,,,,,,,,,,,,,,,,,,,,,,,,,,,,,,,,,,,,,,,,,,,,,,,,,,,,,,,,,,270.5347507490005,None,270.5347507490005,None,270.5347507490005,None,g,1,0.9816190010024002,272.0683872640002,None,272.0683872640002,None,272.0683872640002,None,273.1015449129991,None,273.1015449129991,None,273.1015449129991,None,273.1015449129991,None,,,,,,,,,,,,,,,,,,,,,,,,,,,,,,,,,,,,,,,,,,,,001,47,2020_Jan_30_1446,spring_faces,3.1.5,60.193158520551854,
condition files/Stage0c_2.xlsx,0c,theta,beta,g,"['h', 'g']","['Chess', 'Go']","[-0.15, 0.5]","[0.15, 0.5]",1,1,0,13,13,13,0,2,2,2,,,,,,,,,,,,,,,,,,,,,,,,,,,,,,,,,,,,,,,,,,,,,,,,,,,,,,,,,,,,,,,275.06808054999783,None,275.06808054999783,None,275.06808054999783,None,g,1,0.7368479139986448,276.60115389600105,None,276.60115389600105,None,276.60115389600105,None,277.38569362899943,None,277.38569362899943,None,277.38569362899943,None,277.38569362899943,None,,,,,,,,,,,,,,,,,,,,,,,,,,,,,,,,,,,,,,,,,,,,001,47,2020_Jan_30_1446,spring_faces,3.1.5,60.193158520551854,
condition files/Stage0c_2.xlsx,0c,alpha,theta,h,"['h', 'g']","['Chess', 'Go']","[-0.15, 0.5]","[0.15, 0.5]",1,1,0,13,13,13,0,3,3,0,,,,,,,,,,,,,,,,,,,,,,,,,,,,,,,,,,,,,,,,,,,,,,,,,,,,,,,,,,,,,,,279.3680975850002,None,279.3680975850002,None,279.3680975850002,None,h,1,0.9649591839988716,280.90104155899826,None,280.90104155899826,None,280.90104155899826,None,281.91830768900036,None,281.91830768900036,None,281.91830768900036,None,281.91830768900036,None,,,,,,,,,,,,,,,,,,,,,,,,,,,,,,,,,,,,,,,,,,,,001,47,2020_Jan_30_1446,spring_faces,3.1.5,60.193158520551854,
condition files/Stage0c_1.xlsx,0c,alpha,phi,h,"['h', 'g']","['Chess', 'Go']","[-0.15, 0.5]","[0.15, 0.5]",1,1,0,14,14,14,0,0,0,1,,,,,,,,,,,,,,,,,,,,,,,,,,,,,,,,,,,,,,,,,,,,,,,,,,,,,,,,,,,,,,,283.90140002299813,None,283.90140002299813,None,283.90140002299813,None,h,1,1.0396947799999907,285.43433301500045,None,285.43433301500045,None,285.43433301500045,None,286.52135136799916,None,286.52135136799916,None,286.52135136799916,None,286.52135136799916,None,,,,,,,,,,,,,,,,,,,,,,,,,,,,,,,,,,,,,,,,,,,,001,47,2020_Jan_30_1446,spring_faces,3.1.5,60.193158520551854,
condition files/Stage0c_1.xlsx,0c,phi,beta,g,"['h', 'g']","['Chess', 'Go']","[-0.15, 0.5]","[0.15, 0.5]",1,1,0,14,14,14,0,1,1,3,,,,,,,,,,,,,,,,,,,,,,,,,,,,,,,,,,,,,,,,,,,,,,,,,,,,,,,,,,,,,,,288.50142546499774,None,288.50142546499774,None,288.50142546499774,None,g,1,0.7109710719996656,290.0350384080011,None,290.0350384080011,None,290.0350384080011,None,290.8013943750011,None,290.8013943750011,None,290.8013943750011,None,290.8013943750011,None,,,,,,,,,,,,,,,,,,,,,,,,,,,,,,,,,,,,,,,,,,,,001,47,2020_Jan_30_1446,spring_faces,3.1.5,60.193158520551854,
condition files/Stage0c_1.xlsx,0c,theta,alpha,h,"['h', 'g']","['Chess', 'Go']","[-0.15, 0.5]","[0.15, 0.5]",1,1,0,14,14,14,0,2,2,0,,,,,,,,,,,,,,,,,,,,,,,,,,,,,,,,,,,,,,,,,,,,,,,,,,,,,,,,,,,,,,,292.7676706659986,None,292.7676706659986,None,292.7676706659986,None,h,1,0.7005314659982105,294.3014368740005,None,294.3014368740005,None,294.3014368740005,None,295.06780491099926,None,295.06780491099926,None,295.06780491099926,None,295.06780491099926,None,,,,,,,,,,,,,,,,,,,,,,,,,,,,,,,,,,,,,,,,,,,,001,47,2020_Jan_30_1446,spring_faces,3.1.5,60.193158520551854,
condition files/Stage0c_1.xlsx,0c,beta,theta,g,"['h', 'g']","['Chess', 'Go']","[-0.15, 0.5]","[0.15, 0.5]",1,1,0,14,14,14,0,3,3,2,,,,,,,,,,,,,,,,,,,,,,,,,,,,,,,,,,,,,,,,,,,,,,,,,,,,,,,,,,,,,,,297.0342125790012,None,297.0342125790012,None,297.0342125790012,None,g,1,0.5142025900022418,298.56780061099926,None,298.56780061099926,None,298.56780061099926,None,299.1349947409981,None,299.1349947409981,None,299.1349947409981,None,299.1349947409981,None,,,,,,,,,,,,,,,,,,,,,,,,,,,,,,,,,,,,,,,,,,,,001,47,2020_Jan_30_1446,spring_faces,3.1.5,60.193158520551854,
condition files/Stage0c_2.xlsx,0c,beta,phi,g,"['h', 'g']","['Chess', 'Go']","[-0.15, 0.5]","[0.15, 0.5]",1,1,0,15,15,15,0,0,0,3,,,,,,,,,,,,,,,,,,,,,,,,,,,,,,,,,,,,,,,,,,,,,,,,,,,,,,,,,,,,,,,301.1184507959988,None,301.1184507959988,None,301.1184507959988,None,g,1,0.9270089409983484,302.65098866300104,None,302.65098866300104,None,302.65098866300104,None,303.63517239700013,None,303.63517239700013,None,303.63517239700013,None,303.63517239700013,None,,,,,,,,,,,,,,,,,,,,,,,,,,,,,,,,,,,,,,,,,,,,001,47,2020_Jan_30_1446,spring_faces,3.1.5,60.193158520551854,
condition files/Stage0c_2.xlsx,0c,phi,alpha,h,"['h', 'g']","['Chess', 'Go']","[-0.15, 0.5]","[0.15, 0.5]",1,1,0,15,15,15,0,1,1,1,,,,,,,,,,,,,,,,,,,,,,,,,,,,,,,,,,,,,,,,,,,,,,,,,,,,,,,,,,,,,,,305.6008544670003,None,305.6008544670003,None,305.6008544670003,None,h,1,1.1630385300013586,307.1349785479979,None,307.1349785479979,None,307.1349785479979,None,308.3511889879992,None,308.3511889879992,None,308.3511889879992,None,308.3511889879992,None,,,,,,,,,,,,,,,,,,,,,,,,,,,,,,,,,,,,,,,,,,,,001,47,2020_Jan_30_1446,spring_faces,3.1.5,60.193158520551854,
condition files/Stage0c_2.xlsx,0c,alpha,theta,h,"['h', 'g']","['Chess', 'Go']","[-0.15, 0.5]","[0.15, 0.5]",1,1,0,15,15,15,0,2,2,0,,,,,,,,,,,,,,,,,,,,,,,,,,,,,,,,,,,,,,,,,,,,,,,,,,,,,,,,,,,,,,,310.31787469700066,None,310.31787469700066,None,310.31787469700066,None,h,1,1.4228060450004705,311.85120518799886,None,311.85120518799886,None,311.85120518799886,None,313.31822340299914,None,313.31822340299914,None,313.31822340299914,None,313.31822340299914,None,,,,,,,,,,,,,,,,,,,,,,,,,,,,,,,,,,,,,,,,,,,,001,47,2020_Jan_30_1446,spring_faces,3.1.5,60.193158520551854,
condition files/Stage0c_2.xlsx,0c,theta,beta,g,"['h', 'g']","['Chess', 'Go']","[-0.15, 0.5]","[0.15, 0.5]",1,1,0,15,15,15,0,3,3,2,,,,,,,,,,,,,,,,,,,,,,,,,,,,,,,,,,,,,,,,,,,,,,,,,,,,,,,,,,,,,,,315.30139668599804,None,315.30139668599804,None,315.30139668599804,None,g,1,1.366948055998364,316.83503181799824,None,316.83503181799824,None,316.83503181799824,None,318.2682975099997,None,318.2682975099997,None,318.2682975099997,None,318.2682975099997,None,,,,,,,,,,,,,,,,,,,,,,,,,,,,,,,,,,,,,,,,,,,,001,47,2020_Jan_30_1446,spring_faces,3.1.5,60.193158520551854,
condition files/Stage0c_1.xlsx,0c,theta,alpha,h,"['h', 'g']","['Chess', 'Go']","[-0.15, 0.5]","[0.15, 0.5]",1,1,0,16,16,16,0,0,0,0,,,,,,,,,,,,,,,,,,,,,,,,,,,,,,,,,,,,,,,,,,,,,,,,,,,,,,,,,,,,,,,320.25162752300093,None,320.25162752300093,None,320.25162752300093,None,h,1,0.8650740859993675,321.7849340699977,None,321.7849340699977,None,321.7849340699977,None,322.70137936899846,None,322.70137936899846,None,322.70137936899846,None,322.70137936899846,None,,,,,,,,,,,,,,,,,,,,,,,,,,,,,,,,,,,,,,,,,,,,001,47,2020_Jan_30_1446,spring_faces,3.1.5,60.193158520551854,
condition files/Stage0c_1.xlsx,0c,alpha,phi,h,"['h', 'g']","['Chess', 'Go']","[-0.15, 0.5]","[0.15, 0.5]",1,1,0,16,16,16,0,1,1,1,,,,,,,,,,,,,,,,,,,,,,,,,,,,,,,,,,,,,,,,,,,,,,,,,,,,,,,,,,,,,,,324.66807400000107,None,324.66807400000107,None,324.66807400000107,None,h,1,0.928276103000826,326.201669940001,None,326.201669940001,None,326.201669940001,None,327.16898078300073,None,327.16898078300073,None,327.16898078300073,None,327.16898078300073,None,,,,,,,,,,,,,,,,,,,,,,,,,,,,,,,,,,,,,,,,,,,,001,47,2020_Jan_30_1446,spring_faces,3.1.5,60.193158520551854,
condition files/Stage0c_1.xlsx,0c,phi,beta,g,"['h', 'g']","['Chess', 'Go']","[-0.15, 0.5]","[0.15, 0.5]",1,1,0,16,16,16,0,2,2,3,,,,,,,,,,,,,,,,,,,,,,,,,,,,,,,,,,,,,,,,,,,,,,,,,,,,,,,,,,,,,,,329.1514977000006,None,329.1514977000006,None,329.1514977000006,None,g,1,0.9091955249969033,330.6848834320008,None,330.6848834320008,None,330.6848834320008,None,331.65140763399904,None,331.65140763399904,None,331.65140763399904,None,331.65140763399904,None,,,,,,,,,,,,,,,,,,,,,,,,,,,,,,,,,,,,,,,,,,,,001,47,2020_Jan_30_1446,spring_faces,3.1.5,60.193158520551854,
condition files/Stage0c_1.xlsx,0c,beta,theta,g,"['h', 'g']","['Chess', 'Go']","[-0.15, 0.5]","[0.15, 0.5]",1,1,0,16,16,16,0,3,3,2,,,,,,,,,,,,,,,,,,,,,,,,,,,,,,,,,,,,,,,,,,,,,,,,,,,,,,,,,,,,,,,333.6175900540002,None,333.6175900540002,None,333.6175900540002,None,g,1,1.0184476539980096,335.1515586530004,None,335.1515586530004,None,335.1515586530004,None,336.21930343200074,None,336.21930343200074,None,336.21930343200074,None,336.21930343200074,None,,,,,,,,,,,,,,,,,,,,,,,,,,,,,,,,,,,,,,,,,,,,001,47,2020_Jan_30_1446,spring_faces,3.1.5,60.193158520551854,
condition files/Stage0c_2.xlsx,0c,theta,beta,g,"['h', 'g']","['Chess', 'Go']","[-0.15, 0.5]","[0.15, 0.5]",1,1,0,17,17,17,0,0,0,2,,,,,,,,,,,,,,,,,,,,,,,,,,,,,,,,,,,,,,,,,,,,,,,,,,,,,,,,,,,,,,,338.21831730800113,None,338.21831730800113,None,338.21831730800113,None,g,1,0.9468744059995515,339.7511318319994,None,339.7511318319994,None,339.7511318319994,None,340.7373788719997,None,340.7373788719997,None,340.7373788719997,None,340.7373788719997,None,,,,,,,,,,,,,,,,,,,,,,,,,,,,,,,,,,,,,,,,,,,,001,47,2020_Jan_30_1446,spring_faces,3.1.5,60.193158520551854,
condition files/Stage0c_2.xlsx,0c,alpha,theta,h,"['h', 'g']","['Chess', 'Go']","[-0.15, 0.5]","[0.15, 0.5]",1,1,0,17,17,17,0,1,1,0,,,,,,,,,,,,,,,,,,,,,,,,,,,,,,,,,,,,,,,,,,,,,,,,,,,,,,,,,,,,,,,342.71811365100075,None,342.71811365100075,None,342.71811365100075,None,h,1,0.6222929079995083,344.2516677679996,None,344.2516677679996,None,344.2516677679996,None,344.9344436290012,None,344.9344436290012,None,344.9344436290012,None,344.9344436290012,None,,,,,,,,,,,,,,,,,,,,,,,,,,,,,,,,,,,,,,,,,,,,001,47,2020_Jan_30_1446,spring_faces,3.1.5,60.193158520551854,
condition files/Stage0c_2.xlsx,0c,phi,alpha,h,"['h', 'g']","['Chess', 'Go']","[-0.15, 0.5]","[0.15, 0.5]",1,1,0,17,17,17,0,2,2,1,,,,,,,,,,,,,,,,,,,,,,,,,,,,,,,,,,,,,,,,,,,,,,,,,,,,,,,,,,,,,,,346.9010286880002,None,346.9010286880002,None,346.9010286880002,None,h,1,0.8395426040005987,348.434473461999,None,348.434473461999,None,348.434473461999,None,349.31992409599843,None,349.31992409599843,None,349.31992409599843,None,349.31992409599843,None,,,,,,,,,,,,,,,,,,,,,,,,,,,,,,,,,,,,,,,,,,,,001,47,2020_Jan_30_1446,spring_faces,3.1.5,60.193158520551854,
condition files/Stage0c_2.xlsx,0c,beta,phi,g,"['h', 'g']","['Chess', 'Go']","[-0.15, 0.5]","[0.15, 0.5]",1,1,0,17,17,17,0,3,3,3,,,,,,,,,,,,,,,,,,,,,,,,,,,,,,,,,,,,,,,,,,,,,,,,,,,,,,,,,,,,,,,351.30135760899793,None,351.30135760899793,None,351.30135760899793,None,g,1,0.8556133870006306,352.83440710599825,None,352.83440710599825,None,352.83440710599825,None,353.7516298900009,None,353.7516298900009,None,353.7516298900009,None,353.7516298900009,None,,,,,,,,,,,,,,,,,,,,,,,,,,,,,,,,,,,,,,,,,,,,001,47,2020_Jan_30_1446,spring_faces,3.1.5,60.193158520551854,
,,,,,,,,,,,,,,,,,,,,,,,,,,,,,,,,,,,,,,,,,,,,,,,,,,,,,,,,,,,,,,,,,,,,,,,,,,,,,,,,,,,,,,,,,,,,,,,,,,,,,,,,355.7350330650006,None,space,8.77914290300032,360.7348766549985,None,,,,,,,,,,,,,,,,,,,,,,,,,,,,,,,,,,,,,,001,47,2020_Jan_30_1446,spring_faces,3.1.5,60.193158520551854,
condition files/Stage1_1.xlsx,,B1,T2,c,"['c', 'm']","['Clue', 'Monopoly']","[-0.15, 0.5]","[0.15, 0.5]",1,1,,,,,,,,,0,0,0,0,0,0,0,1,,,,,,,,,,,,,,,,,,,,,,,,,,,,,,,,,,,,,,,,,,,,,,,,,,,,,,,369.61829167799806,None,369.61829167799806,None,369.61829167799806,None,c,1,1.2129769599996507,371.10103145799803,None,371.10103145799803,None,371.10103145799803,None,372.38484330699794,None,372.38484330699794,None,372.38484330699794,None,372.38484330699794,None,,,,,,,360.7348766549985,None,,,,,,,,,,,,,,,,,,,,,,,,,,,,,,,,,,,,001,47,2020_Jan_30_1446,spring_faces,3.1.5,60.193158520551854,
condition files/Stage1_1.xlsx,,T1,B1,c,"['c', 'm']","['Clue', 'Monopoly']","[-0.15, 0.5]","[0.15, 0.5]",1,1,,,,,,,,,0,0,0,0,0,1,1,0,,,,,,,,,,,,,,,,,,,,,,,,,,,,,,,,,,,,,,,,,,,,,,,,,,,,,,,374.3347827389989,None,374.3347827389989,None,374.3347827389989,None,c,1,1.1336915560023044,375.86828595100087,None,375.86828595100087,None,375.86828595100087,None,377.0681712759979,None,377.0681712759979,None,377.0681712759979,None,377.0681712759979,None,,,,,,,,,,,,,,,,,,,,,,,,,,,,,,,,,,,,,,,,,,,,001,47,2020_Jan_30_1446,spring_faces,3.1.5,60.193158520551854,
condition files/Stage1_1.xlsx,,T3,B4,c,"['c', 'm']","['Clue', 'Monopoly']","[-0.15, 0.5]","[0.15, 0.5]",1,1,,,,,,,,,0,0,0,0,0,2,2,5,,,,,,,,,,,,,,,,,,,,,,,,,,,,,,,,,,,,,,,,,,,,,,,,,,,,,,,379.0346619000011,None,379.0346619000011,None,379.0346619000011,None,m,0,0.7498066109983483,380.62021694899886,None,380.62021694899886,None,380.62021694899886,None,381.43418874299823,None,381.43418874299823,None,381.43418874299823,None,381.43418874299823,None,,,,,,,,,,,,,,,,,,,,,,,,,,,,,,,,,,,,,,,,,,,,001,47,2020_Jan_30_1446,spring_faces,3.1.5,60.193158520551854,
condition files/Stage1_1.xlsx,,T2,B2,m,"['c', 'm']","['Clue', 'Monopoly']","[-0.15, 0.5]","[0.15, 0.5]",1,1,,,,,,,,,0,0,0,0,0,3,3,3,,,,,,,,,,,,,,,,,,,,,,,,,,,,,,,,,,,,,,,,,,,,,,,,,,,,,,,383.40137688699906,None,383.40137688699906,None,383.40137688699906,None,m,1,1.3135238670001854,384.9684805190009,None,384.9684805190009,None,384.9684805190009,None,386.33694818799995,None,386.33694818799995,None,386.33694818799995,None,386.33694818799995,None,,,,,,,,,,,,,,,,,,,,,,,,,,,,,,,,,,,,,,,,,,,,001,47,2020_Jan_30_1446,spring_faces,3.1.5,60.193158520551854,
condition files/Stage1_1.xlsx,,B4,T4,m,"['c', 'm']","['Clue', 'Monopoly']","[-0.15, 0.5]","[0.15, 0.5]",1,1,,,,,,,,,0,0,0,0,0,4,4,7,,,,,,,,,,,,,,,,,,,,,,,,,,,,,,,,,,,,,,,,,,,,,,,,,,,,,,,388.30147186199974,None,388.30147186199974,None,388.30147186199974,None,c,0,1.1024450579971017,389.85156845500023,None,389.85156845500023,None,389.85156845500023,None,391.01792504900004,None,391.01792504900004,None,391.01792504900004,None,391.01792504900004,None,,,,,,,,,,,,,,,,,,,,,,,,,,,,,,,,,,,,,,,,,,,,001,47,2020_Jan_30_1446,spring_faces,3.1.5,60.193158520551854,
condition files/Stage1_1.xlsx,,B2,T1,m,"['c', 'm']","['Clue', 'Monopoly']","[-0.15, 0.5]","[0.15, 0.5]",1,1,,,,,,,,,0,0,0,0,0,5,5,2,,,,,,,,,,,,,,,,,,,,,,,,,,,,,,,,,,,,,,,,,,,,,,,,,,,,,,,392.98420844299835,None,392.98420844299835,None,392.98420844299835,None,m,1,1.9709165829990525,394.5350942650002,None,394.5350942650002,None,394.5350942650002,None,396.5682181009979,None,396.5682181009979,None,396.5682181009979,None,396.5682181009979,None,,,,,,,,,,,,,,,,,,,,,,,,,,,,,,,,,,,,,,,,,,,,001,47,2020_Jan_30_1446,spring_faces,3.1.5,60.193158520551854,
condition files/Stage1_1.xlsx,,B3,T3,c,"['c', 'm']","['Clue', 'Monopoly']","[-0.15, 0.5]","[0.15, 0.5]",1,1,,,,,,,,,0,0,0,0,0,6,6,4,,,,,,,,,,,,,,,,,,,,,,,,,,,,,,,,,,,,,,,,,,,,,,,,,,,,,,,398.5344585460007,None,398.5344585460007,None,398.5344585460007,None,m,0,1.0131068330010748,400.08502024799964,None,400.08502024799964,None,400.08502024799964,None,401.15133581600094,None,401.15133581600094,None,401.15133581600094,None,401.15133581600094,None,,,,,,,,,,,,,,,,,,,,,,,,,,,,,,,,,,,,,,,,,,,,001,47,2020_Jan_30_1446,spring_faces,3.1.5,60.193158520551854,
condition files/Stage1_1.xlsx,,T4,B3,m,"['c', 'm']","['Clue', 'Monopoly']","[-0.15, 0.5]","[0.15, 0.5]",1,1,,,,,,,,,0,0,0,0,0,7,7,6,,,,,,,,,,,,,,,,,,,,,,,,,,,,,,,,,,,,,,,,,,,,,,,,,,,,,,,403.11824987399814,None,403.11824987399814,None,403.11824987399814,None,c,0,5.405922469999496,404.66807786199934,None,404.66807786199934,None,404.66807786199934,None,410.1349937679988,None,410.1349937679988,None,410.1349937679988,None,410.1349937679988,None,,,,,,,,,,,,,,,,,,,,,,,,,,,,,,,,,,,,,,,,,,,,001,47,2020_Jan_30_1446,spring_faces,3.1.5,60.193158520551854,
condition files/Stage1_2.xlsx,,T4,B4,m,"['c', 'm']","['Clue', 'Monopoly']","[-0.15, 0.5]","[0.15, 0.5]",1,1,,,,,,,,,0,1,1,1,0,0,0,7,,,,,,,,,,,,,,,,,,,,,,,,,,,,,,,,,,,,,,,,,,,,,,,,,,,,,,,412.1184264449985,None,412.1184264449985,None,412.1184264449985,None,m,1,1.2690512869994564,413.6529870630002,None,413.6529870630002,None,413.6529870630002,None,414.98429722199944,None,414.98429722199944,None,414.98429722199944,None,414.98429722199944,None,,,,,,,,,,,,,,,,,,,,,,,,,,,,,,,,,,,,,,,,,,,,001,47,2020_Jan_30_1446,spring_faces,3.1.5,60.193158520551854,
condition files/Stage1_2.xlsx,,T3,B3,c,"['c', 'm']","['Clue', 'Monopoly']","[-0.15, 0.5]","[0.15, 0.5]",1,1,,,,,,,,,0,1,1,1,0,1,1,4,,,,,,,,,,,,,,,,,,,,,,,,,,,,,,,,,,,,,,,,,,,,,,,,,,,,,,,416.9515059250007,None,416.9515059250007,None,416.9515059250007,None,m,0,1.1564164250012254,418.48568012100077,None,418.48568012100077,None,418.48568012100077,None,419.70190070399985,None,419.70190070399985,None,419.70190070399985,None,419.70190070399985,None,,,,,,,,,,,,,,,,,,,,,,,,,,,,,,,,,,,,,,,,,,,,001,47,2020_Jan_30_1446,spring_faces,3.1.5,60.193158520551854,
condition files/Stage1_2.xlsx,,B3,T4,m,"['c', 'm']","['Clue', 'Monopoly']","[-0.15, 0.5]","[0.15, 0.5]",1,1,,,,,,,,,0,1,1,1,0,2,2,6,,,,,,,,,,,,,,,,,,,,,,,,,,,,,,,,,,,,,,,,,,,,,,,,,,,,,,,421.6675526809995,None,421.6675526809995,None,421.6675526809995,None,m,1,1.5441413350017683,423.2179441420012,None,423.2179441420012,None,423.2179441420012,None,424.8349971139978,None,424.8349971139978,None,424.8349971139978,None,424.8349971139978,None,,,,,,,,,,,,,,,,,,,,,,,,,,,,,,,,,,,,,,,,,,,,001,47,2020_Jan_30_1446,spring_faces,3.1.5,60.193158520551854,
condition files/Stage1_2.xlsx,,T2,B1,c,"['c', 'm']","['Clue', 'Monopoly']","[-0.15, 0.5]","[0.15, 0.5]",1,1,,,,,,,,,0,1,1,1,0,3,3,1,,,,,,,,,,,,,,,,,,,,,,,,,,,,,,,,,,,,,,,,,,,,,,,,,,,,,,,426.7847562879979,None,426.7847562879979,None,426.7847562879979,None,c,1,1.4202343270007987,428.3177991119992,None,428.3177991119992,None,428.3177991119992,None,429.8040133079994,None,429.8040133079994,None,429.8040133079994,None,429.8040133079994,None,,,,,,,,,,,,,,,,,,,,,,,,,,,,,,,,,,,,,,,,,,,,001,47,2020_Jan_30_1446,spring_faces,3.1.5,60.193158520551854,
condition files/Stage1_2.xlsx,,B1,T1,c,"['c', 'm']","['Clue', 'Monopoly']","[-0.15, 0.5]","[0.15, 0.5]",1,1,,,,,,,,,0,1,1,1,0,4,4,0,,,,,,,,,,,,,,,,,,,,,,,,,,,,,,,,,,,,,,,,,,,,,,,,,,,,,,,431.7681961019989,None,431.7681961019989,None,431.7681961019989,None,c,1,1.092590198997641,433.30150489399966,None,433.30150489399966,None,433.30150489399966,None,434.4514033310006,None,434.4514033310006,None,434.4514033310006,None,434.4514033310006,None,,,,,,,,,,,,,,,,,,,,,,,,,,,,,,,,,,,,,,,,,,,,001,47,2020_Jan_30_1446,spring_faces,3.1.5,60.193158520551854,
condition files/Stage1_2.xlsx,,B4,T3,c,"['c', 'm']","['Clue', 'Monopoly']","[-0.15, 0.5]","[0.15, 0.5]",1,1,,,,,,,,,0,1,1,1,0,5,5,5,,,,,,,,,,,,,,,,,,,,,,,,,,,,,,,,,,,,,,,,,,,,,,,,,,,,,,,436.4181909600011,None,436.4181909600011,None,436.4181909600011,None,m,0,1.273917666003399,437.9521730569977,None,437.9521730569977,None,437.9521730569977,None,439.2847505089994,None,439.2847505089994,None,439.2847505089994,None,439.2847505089994,None,,,,,,,,,,,,,,,,,,,,,,,,,,,,,,,,,,,,,,,,,,,,001,47,2020_Jan_30_1446,spring_faces,3.1.5,60.193158520551854,
condition files/Stage1_2.xlsx,,B2,T2,m,"['c', 'm']","['Clue', 'Monopoly']","[-0.15, 0.5]","[0.15, 0.5]",1,1,,,,,,,,,0,1,1,1,0,6,6,3,,,,,,,,,,,,,,,,,,,,,,,,,,,,,,,,,,,,,,,,,,,,,,,,,,,,,,,441.25120768600027,None,441.25120768600027,None,441.25120768600027,None,c,0,1.4812363300006837,442.78476564099765,None,442.78476564099765,None,442.78476564099765,None,444.3207400379979,None,444.3207400379979,None,444.3207400379979,None,444.3207400379979,None,,,,,,,,,,,,,,,,,,,,,,,,,,,,,,,,,,,,,,,,,,,,001,47,2020_Jan_30_1446,spring_faces,3.1.5,60.193158520551854,
condition files/Stage1_2.xlsx,,T1,B2,m,"['c', 'm']","['Clue', 'Monopoly']","[-0.15, 0.5]","[0.15, 0.5]",1,1,,,,,,,,,0,1,1,1,0,7,7,2,,,,,,,,,,,,,,,,,,,,,,,,,,,,,,,,,,,,,,,,,,,,,,,,,,,,,,,446.28484021500117,None,446.28484021500117,None,446.28484021500117,None,m,1,1.5035244570026407,447.81847609399847,None,447.81847609399847,None,447.81847609399847,None,449.3853437459984,None,449.3853437459984,None,449.3853437459984,None,449.3853437459984,None,,,,,,,,,,,,,,,,,,,,,,,,,,,,,,,,,,,,,,,,,,,,001,47,2020_Jan_30_1446,spring_faces,3.1.5,60.193158520551854,
condition files/Stage1_1.xlsx,,B4,T4,m,"['c', 'm']","['Clue', 'Monopoly']","[-0.15, 0.5]","[0.15, 0.5]",1,1,,,,,,,,,0,2,2,2,0,0,0,7,,,,,,,,,,,,,,,,,,,,,,,,,,,,,,,,,,,,,,,,,,,,,,,,,,,,,,,451.3682508419988,None,451.3682508419988,None,451.3682508419988,None,m,1,1.4766051169972343,452.901401324998,None,452.901401324998,None,452.901401324998,None,454.43488988399986,None,454.43488988399986,None,454.43488988399986,None,454.43488988399986,None,,,,,,,,,,,,,,,,,,,,,,,,,,,,,,,,,,,,,,,,,,,,001,47,2020_Jan_30_1446,spring_faces,3.1.5,60.193158520551854,
condition files/Stage1_1.xlsx,,B1,T2,c,"['c', 'm']","['Clue', 'Monopoly']","[-0.15, 0.5]","[0.15, 0.5]",1,1,,,,,,,,,0,2,2,2,0,1,1,1,,,,,,,,,,,,,,,,,,,,,,,,,,,,,,,,,,,,,,,,,,,,,,,,,,,,,,,456.40074765199824,None,456.40074765199824,None,456.40074765199824,None,c,1,0.8430043890002707,457.93496662399775,None,457.93496662399775,None,457.93496662399775,None,458.83707826599857,None,458.83707826599857,None,458.83707826599857,None,458.83707826599857,None,,,,,,,,,,,,,,,,,,,,,,,,,,,,,,,,,,,,,,,,,,,,001,47,2020_Jan_30_1446,spring_faces,3.1.5,60.193158520551854,
condition files/Stage1_1.xlsx,,T4,B3,m,"['c', 'm']","['Clue', 'Monopoly']","[-0.15, 0.5]","[0.15, 0.5]",1,1,,,,,,,,,0,2,2,2,0,2,2,6,,,,,,,,,,,,,,,,,,,,,,,,,,,,,,,,,,,,,,,,,,,,,,,,,,,,,,,460.8015714889989,None,460.8015714889989,None,460.8015714889989,None,m,1,1.3222234300010314,462.3517896980011,None,462.3517896980011,None,462.3517896980011,None,463.73657027399895,None,463.73657027399895,None,463.73657027399895,None,463.73657027399895,None,,,,,,,,,,,,,,,,,,,,,,,,,,,,,,,,,,,,,,,,,,,,001,47,2020_Jan_30_1446,spring_faces,3.1.5,60.193158520551854,
condition files/Stage1_1.xlsx,,B3,T3,c,"['c', 'm']","['Clue', 'Monopoly']","[-0.15, 0.5]","[0.15, 0.5]",1,1,,,,,,,,,0,2,2,2,0,3,3,4,,,,,,,,,,,,,,,,,,,,,,,,,,,,,,,,,,,,,,,,,,,,,,,,,,,,,,,465.70141000500007,None,465.70141000500007,None,465.70141000500007,None,c,1,1.5100517200007744,467.2359383570001,None,467.2359383570001,None,467.2359383570001,None,468.8017101609985,None,468.8017101609985,None,468.8017101609985,None,468.8017101609985,None,,,,,,,,,,,,,,,,,,,,,,,,,,,,,,,,,,,,,,,,,,,,001,47,2020_Jan_30_1446,spring_faces,3.1.5,60.193158520551854,
condition files/Stage1_1.xlsx,,T3,B4,c,"['c', 'm']","['Clue', 'Monopoly']","[-0.15, 0.5]","[0.15, 0.5]",1,1,,,,,,,,,0,2,2,2,0,4,4,5,,,,,,,,,,,,,,,,,,,,,,,,,,,,,,,,,,,,,,,,,,,,,,,,,,,,,,,470.7682000889981,None,470.7682000889981,None,470.7682000889981,None,c,1,0.7313832489999186,472.3026410800012,None,472.3026410800012,None,472.3026410800012,None,473.084269545001,None,473.084269545001,None,473.084269545001,None,473.084269545001,None,,,,,,,,,,,,,,,,,,,,,,,,,,,,,,,,,,,,,,,,,,,,001,47,2020_Jan_30_1446,spring_faces,3.1.5,60.193158520551854,
condition files/Stage1_1.xlsx,,T1,B1,c,"['c', 'm']","['Clue', 'Monopoly']","[-0.15, 0.5]","[0.15, 0.5]",1,1,,,,,,,,,0,2,2,2,0,5,5,0,,,,,,,,,,,,,,,,,,,,,,,,,,,,,,,,,,,,,,,,,,,,,,,,,,,,,,,475.0511277990008,None,475.0511277990008,None,475.0511277990008,None,c,1,1.088992128999962,476.58498285300084,None,476.58498285300084,None,476.58498285300084,None,477.73493274499924,None,477.73493274499924,None,477.73493274499924,None,477.73493274499924,None,,,,,,,,,,,,,,,,,,,,,,,,,,,,,,,,,,,,,,,,,,,,001,47,2020_Jan_30_1446,spring_faces,3.1.5,60.193158520551854,
condition files/Stage1_1.xlsx,,B2,T1,m,"['c', 'm']","['Clue', 'Monopoly']","[-0.15, 0.5]","[0.15, 0.5]",1,1,,,,,,,,,0,2,2,2,0,6,6,2,,,,,,,,,,,,,,,,,,,,,,,,,,,,,,,,,,,,,,,,,,,,,,,,,,,,,,,479.70157672999994,None,479.70157672999994,None,479.70157672999994,None,m,1,2.870390813000995,481.251621110001,None,481.251621110001,None,481.251621110001,None,484.20157886200104,None,484.20157886200104,None,484.20157886200104,None,484.20157886200104,None,,,,,,,,,,,,,,,,,,,,,,,,,,,,,,,,,,,,,,,,,,,,001,47,2020_Jan_30_1446,spring_faces,3.1.5,60.193158520551854,
condition files/Stage1_1.xlsx,,T2,B2,m,"['c', 'm']","['Clue', 'Monopoly']","[-0.15, 0.5]","[0.15, 0.5]",1,1,,,,,,,,,0,2,2,2,0,7,7,3,,,,,,,,,,,,,,,,,,,,,,,,,,,,,,,,,,,,,,,,,,,,,,,,,,,,,,,486.1512863559983,None,486.1512863559983,None,486.1512863559983,None,m,1,1.829326688999572,487.68470498199895,None,487.68470498199895,None,487.68470498199895,None,489.5676603419997,None,489.5676603419997,None,489.5676603419997,None,489.5676603419997,None,,,,,,,,,,,,,,,,,,,,,,,,,,,,,,,,,,,,,,,,,,,,001,47,2020_Jan_30_1446,spring_faces,3.1.5,60.193158520551854,
condition files/Stage1_2.xlsx,,B1,T1,c,"['c', 'm']","['Clue', 'Monopoly']","[-0.15, 0.5]","[0.15, 0.5]",1,1,,,,,,,,,0,3,3,3,0,0,0,0,,,,,,,,,,,,,,,,,,,,,,,,,,,,,,,,,,,,,,,,,,,,,,,,,,,,,,,491.5510862400006,None,491.5510862400006,None,491.5510862400006,None,c,1,0.860888409002655,493.1011112220003,None,493.1011112220003,None,493.1011112220003,None,494.0190056200008,None,494.0190056200008,None,494.0190056200008,None,494.0190056200008,None,,,,,,,,,,,,,,,,,,,,,,,,,,,,,,,,,,,,,,,,,,,,001,47,2020_Jan_30_1446,spring_faces,3.1.5,60.193158520551854,
condition files/Stage1_2.xlsx,,T2,B1,c,"['c', 'm']","['Clue', 'Monopoly']","[-0.15, 0.5]","[0.15, 0.5]",1,1,,,,,,,,,0,3,3,3,0,1,1,1,,,,,,,,,,,,,,,,,,,,,,,,,,,,,,,,,,,,,,,,,,,,,,,,,,,,,,,495.98472185799983,None,495.98472185799983,None,495.98472185799983,None,c,1,1.0360862340021413,497.5179368780009,None,497.5179368780009,None,497.5179368780009,None,498.61780133199863,None,498.61780133199863,None,498.61780133199863,None,498.61780133199863,None,,,,,,,,,,,,,,,,,,,,,,,,,,,,,,,,,,,,,,,,,,,,001,47,2020_Jan_30_1446,spring_faces,3.1.5,60.193158520551854,
condition files/Stage1_2.xlsx,,T3,B3,c,"['c', 'm']","['Clue', 'Monopoly']","[-0.15, 0.5]","[0.15, 0.5]",1,1,,,,,,,,,0,3,3,3,0,2,2,4,,,,,,,,,,,,,,,,,,,,,,,,,,,,,,,,,,,,,,,,,,,,,,,,,,,,,,,500.5848290319991,None,500.5848290319991,None,500.5848290319991,None,c,1,1.13917552500061,502.13490253800046,None,502.13490253800046,None,502.13490253800046,None,503.3347180269993,None,503.3347180269993,None,503.3347180269993,None,503.3347180269993,None,,,,,,,,,,,,,,,,,,,,,,,,,,,,,,,,,,,,,,,,,,,,001,47,2020_Jan_30_1446,spring_faces,3.1.5,60.193158520551854,
condition files/Stage1_2.xlsx,,B2,T2,m,"['c', 'm']","['Clue', 'Monopoly']","[-0.15, 0.5]","[0.15, 0.5]",1,1,,,,,,,,,0,3,3,3,0,3,3,3,,,,,,,,,,,,,,,,,,,,,,,,,,,,,,,,,,,,,,,,,,,,,,,,,,,,,,,505.3013498469991,None,505.3013498469991,None,505.3013498469991,None,m,1,0.7275617380000767,506.83452030899934,None,506.83452030899934,None,506.83452030899934,None,507.6351036619999,None,507.6351036619999,None,507.6351036619999,None,507.6351036619999,None,,,,,,,,,,,,,,,,,,,,,,,,,,,,,,,,,,,,,,,,,,,,001,47,2020_Jan_30_1446,spring_faces,3.1.5,60.193158520551854,
condition files/Stage1_2.xlsx,,B3,T4,m,"['c', 'm']","['Clue', 'Monopoly']","[-0.15, 0.5]","[0.15, 0.5]",1,1,,,,,,,,,0,3,3,3,0,4,4,6,,,,,,,,,,,,,,,,,,,,,,,,,,,,,,,,,,,,,,,,,,,,,,,,,,,,,,,509.585096038998,None,509.585096038998,None,509.585096038998,None,m,1,0.6820993239998643,511.1199191679989,None,511.1199191679989,None,511.1199191679989,None,511.8511796220009,None,511.8511796220009,None,511.8511796220009,None,511.8511796220009,None,,,,,,,,,,,,,,,,,,,,,,,,,,,,,,,,,,,,,,,,,,,,001,47,2020_Jan_30_1446,spring_faces,3.1.5,60.193158520551854,
condition files/Stage1_2.xlsx,,T4,B4,m,"['c', 'm']","['Clue', 'Monopoly']","[-0.15, 0.5]","[0.15, 0.5]",1,1,,,,,,,,,0,3,3,3,0,5,5,7,,,,,,,,,,,,,,,,,,,,,,,,,,,,,,,,,,,,,,,,,,,,,,,,,,,,,,,513.8174971730004,None,513.8174971730004,None,513.8174971730004,None,m,1,0.7050305820012,515.3530599019978,None,515.3530599019978,None,515.3530599019978,None,516.118259349998,None,516.118259349998,None,516.118259349998,None,516.118259349998,None,,,,,,,,,,,,,,,,,,,,,,,,,,,,,,,,,,,,,,,,,,,,001,47,2020_Jan_30_1446,spring_faces,3.1.5,60.193158520551854,
condition files/Stage1_2.xlsx,,T1,B2,m,"['c', 'm']","['Clue', 'Monopoly']","[-0.15, 0.5]","[0.15, 0.5]",1,1,,,,,,,,,0,3,3,3,0,6,6,2,,,,,,,,,,,,,,,,,,,,,,,,,,,,,,,,,,,,,,,,,,,,,,,,,,,,,,,518.0841602279979,None,518.0841602279979,None,518.0841602279979,None,c,0,1.5109380050016625,519.6350365020007,None,519.6350365020007,None,519.6350365020007,None,521.2018534609997,None,521.2018534609997,None,521.2018534609997,None,521.2018534609997,None,,,,,,,,,,,,,,,,,,,,,,,,,,,,,,,,,,,,,,,,,,,,001,47,2020_Jan_30_1446,spring_faces,3.1.5,60.193158520551854,
condition files/Stage1_2.xlsx,,B4,T3,c,"['c', 'm']","['Clue', 'Monopoly']","[-0.15, 0.5]","[0.15, 0.5]",1,1,,,,,,,,,0,3,3,3,0,7,7,5,,,,,,,,,,,,,,,,,,,,,,,,,,,,,,,,,,,,,,,,,,,,,,,,,,,,,,,523.167632714998,None,523.167632714998,None,523.167632714998,None,c,1,1.1793305139981385,524.7026871470007,None,524.7026871470007,None,524.7026871470007,None,525.9517838430002,None,525.9517838430002,None,525.9517838430002,None,525.9517838430002,None,,,,,,,,,,,,,,,,,,,,,,,,,,,,,,,,,,,,,,,,,,,,001,47,2020_Jan_30_1446,spring_faces,3.1.5,60.193158520551854,
condition files/Stage1_1.xlsx,,B4,T4,m,"['c', 'm']","['Clue', 'Monopoly']","[-0.15, 0.5]","[0.15, 0.5]",1,1,,,,,,,,,0,4,4,4,0,0,0,7,,,,,,,,,,,,,,,,,,,,,,,,,,,,,,,,,,,,,,,,,,,,,,,,,,,,,,,527.9182479009978,None,527.9182479009978,None,527.9182479009978,None,m,1,1.4382618679992447,529.4517270649994,None,529.4517270649994,None,529.4517270649994,None,530.954216795999,None,530.954216795999,None,530.954216795999,None,530.954216795999,None,,,,,,,,,,,,,,,,,,,,,,,,,,,,,,,,,,,,,,,,,,,,001,47,2020_Jan_30_1446,spring_faces,3.1.5,60.193158520551854,
condition files/Stage1_1.xlsx,,B1,T2,c,"['c', 'm']","['Clue', 'Monopoly']","[-0.15, 0.5]","[0.15, 0.5]",1,1,,,,,,,,,0,4,4,4,0,1,1,1,,,,,,,,,,,,,,,,,,,,,,,,,,,,,,,,,,,,,,,,,,,,,,,,,,,,,,,532.9182148430009,None,532.9182148430009,None,532.9182148430009,None,c,1,0.7587548709998373,534.4513331710004,None,534.4513331710004,None,534.4513331710004,None,535.2675565270001,None,535.2675565270001,None,535.2675565270001,None,535.2675565270001,None,,,,,,,,,,,,,,,,,,,,,,,,,,,,,,,,,,,,,,,,,,,,001,47,2020_Jan_30_1446,spring_faces,3.1.5,60.193158520551854,
condition files/Stage1_1.xlsx,,T1,B1,c,"['c', 'm']","['Clue', 'Monopoly']","[-0.15, 0.5]","[0.15, 0.5]",1,1,,,,,,,,,0,4,4,4,0,2,2,0,,,,,,,,,,,,,,,,,,,,,,,,,,,,,,,,,,,,,,,,,,,,,,,,,,,,,,,537.2345829959995,None,537.2345829959995,None,537.2345829959995,None,c,1,1.0490817800018704,538.768931781,None,538.768931781,None,538.768931781,None,539.8682699210003,None,539.8682699210003,None,539.8682699210003,None,539.8682699210003,None,,,,,,,,,,,,,,,,,,,,,,,,,,,,,,,,,,,,,,,,,,,,001,47,2020_Jan_30_1446,spring_faces,3.1.5,60.193158520551854,
condition files/Stage1_1.xlsx,,B2,T1,m,"['c', 'm']","['Clue', 'Monopoly']","[-0.15, 0.5]","[0.15, 0.5]",1,1,,,,,,,,,0,4,4,4,0,3,3,2,,,,,,,,,,,,,,,,,,,,,,,,,,,,,,,,,,,,,,,,,,,,,,,,,,,,,,,541.8345191900007,None,541.8345191900007,None,541.8345191900007,None,m,1,2.5767886100002215,543.3692116849998,None,543.3692116849998,None,543.3692116849998,None,546.0018520249978,None,546.0018520249978,None,546.0018520249978,None,546.0018520249978,None,,,,,,,,,,,,,,,,,,,,,,,,,,,,,,,,,,,,,,,,,,,,001,47,2020_Jan_30_1446,spring_faces,3.1.5,60.193158520551854,
condition files/Stage1_1.xlsx,,T3,B4,c,"['c', 'm']","['Clue', 'Monopoly']","[-0.15, 0.5]","[0.15, 0.5]",1,1,,,,,,,,,0,4,4,4,0,4,4,5,,,,,,,,,,,,,,,,,,,,,,,,,,,,,,,,,,,,,,,,,,,,,,,,,,,,,,,547.9675173989999,None,547.9675173989999,None,547.9675173989999,None,c,1,0.7789325360026851,549.5030840209984,None,549.5030840209984,None,549.5030840209984,None,550.3345326249982,None,550.3345326249982,None,550.3345326249982,None,550.3345326249982,None,,,,,,,,,,,,,,,,,,,,,,,,,,,,,,,,,,,,,,,,,,,,001,47,2020_Jan_30_1446,spring_faces,3.1.5,60.193158520551854,
condition files/Stage1_1.xlsx,,B3,T3,c,"['c', 'm']","['Clue', 'Monopoly']","[-0.15, 0.5]","[0.15, 0.5]",1,1,,,,,,,,,0,4,4,4,0,5,5,4,,,,,,,,,,,,,,,,,,,,,,,,,,,,,,,,,,,,,,,,,,,,,,,,,,,,,,,552.3015790569989,None,552.3015790569989,None,552.3015790569989,None,c,1,0.9591958549972333,553.8349100419982,None,553.8349100419982,None,553.8349100419982,None,554.8517414470007,None,554.8517414470007,None,554.8517414470007,None,554.8517414470007,None,,,,,,,,,,,,,,,,,,,,,,,,,,,,,,,,,,,,,,,,,,,,001,47,2020_Jan_30_1446,spring_faces,3.1.5,60.193158520551854,
condition files/Stage1_1.xlsx,,T2,B2,m,"['c', 'm']","['Clue', 'Monopoly']","[-0.15, 0.5]","[0.15, 0.5]",1,1,,,,,,,,,0,4,4,4,0,6,6,3,,,,,,,,,,,,,,,,,,,,,,,,,,,,,,,,,,,,,,,,,,,,,,,,,,,,,,,556.8180582069981,None,556.8180582069981,None,556.8180582069981,None,m,1,1.2413451819993497,558.3527505739985,None,558.3527505739985,None,558.3527505739985,None,559.6529975060002,None,559.6529975060002,None,559.6529975060002,None,559.6529975060002,None,,,,,,,,,,,,,,,,,,,,,,,,,,,,,,,,,,,,,,,,,,,,001,47,2020_Jan_30_1446,spring_faces,3.1.5,60.193158520551854,
condition files/Stage1_1.xlsx,,T4,B3,m,"['c', 'm']","['Clue', 'Monopoly']","[-0.15, 0.5]","[0.15, 0.5]",1,1,,,,,,,,,0,4,4,4,0,7,7,6,,,,,,,,,,,,,,,,,,,,,,,,,,,,,,,,,,,,,,,,,,,,,,,,,,,,,,,561.6183369969986,None,561.6183369969986,None,561.6183369969986,None,m,1,0.809687468001357,563.1683025639977,None,563.1683025639977,None,563.1683025639977,None,564.0349361259978,None,564.0349361259978,None,564.0349361259978,None,564.0349361259978,None,,,,,,,,,,,,,,,,,,,,,,,,,,,,,,,,,,,,,,,,,,,,001,47,2020_Jan_30_1446,spring_faces,3.1.5,60.193158520551854,
condition files/Stage1_2.xlsx,,B2,T2,m,"['c', 'm']","['Clue', 'Monopoly']","[-0.15, 0.5]","[0.15, 0.5]",1,1,,,,,,,,,0,5,5,5,0,0,0,3,,,,,,,,,,,,,,,,,,,,,,,,,,,,,,,,,,,,,,,,,,,,,,,,,,,,,,,566.018049186001,None,566.018049186001,None,566.018049186001,None,m,1,1.0964722569988226,567.5535496759985,None,567.5535496759985,None,567.5535496759985,None,568.7014069799989,None,568.7014069799989,None,568.7014069799989,None,568.7014069799989,None,,,,,,,,,,,,,,,,,,,,,,,,,,,,,,,,,,,,,,,,,,,,001,47,2020_Jan_30_1446,spring_faces,3.1.5,60.193158520551854,
condition files/Stage1_2.xlsx,,B1,T1,c,"['c', 'm']","['Clue', 'Monopoly']","[-0.15, 0.5]","[0.15, 0.5]",1,1,,,,,,,,,0,5,5,5,0,1,1,0,,,,,,,,,,,,,,,,,,,,,,,,,,,,,,,,,,,,,,,,,,,,,,,,,,,,,,,570.6672416330002,None,570.6672416330002,None,570.6672416330002,None,c,1,0.7363611430009769,572.2176517890002,None,572.2176517890002,None,572.2176517890002,None,573.0201482089979,None,573.0201482089979,None,573.0201482089979,None,573.0201482089979,None,,,,,,,,,,,,,,,,,,,,,,,,,,,,,,,,,,,,,,,,,,,,001,47,2020_Jan_30_1446,spring_faces,3.1.5,60.193158520551854,
condition files/Stage1_2.xlsx,,T2,B1,c,"['c', 'm']","['Clue', 'Monopoly']","[-0.15, 0.5]","[0.15, 0.5]",1,1,,,,,,,,,0,5,5,5,0,2,2,1,,,,,,,,,,,,,,,,,,,,,,,,,,,,,,,,,,,,,,,,,,,,,,,,,,,,,,,574.9844677319998,None,574.9844677319998,None,574.9844677319998,None,c,1,0.8835549359973811,576.5344499780003,None,576.5344499780003,None,576.5344499780003,None,577.4683609169988,None,577.4683609169988,None,577.4683609169988,None,577.4683609169988,None,,,,,,,,,,,,,,,,,,,,,,,,,,,,,,,,,,,,,,,,,,,,001,47,2020_Jan_30_1446,spring_faces,3.1.5,60.193158520551854,
condition files/Stage1_2.xlsx,,T1,B2,m,"['c', 'm']","['Clue', 'Monopoly']","[-0.15, 0.5]","[0.15, 0.5]",1,1,,,,,,,,,0,5,5,5,0,3,3,2,,,,,,,,,,,,,,,,,,,,,,,,,,,,,,,,,,,,,,,,,,,,,,,,,,,,,,,579.4346695759996,None,579.4346695759996,None,579.4346695759996,None,m,1,1.3618864839991147,580.9681281619996,None,580.9681281619996,None,580.9681281619996,None,582.4014052089988,None,582.4014052089988,None,582.4014052089988,None,582.4014052089988,None,,,,,,,,,,,,,,,,,,,,,,,,,,,,,,,,,,,,,,,,,,,,001,47,2020_Jan_30_1446,spring_faces,3.1.5,60.193158520551854,
condition files/Stage1_2.xlsx,,B3,T4,m,"['c', 'm']","['Clue', 'Monopoly']","[-0.15, 0.5]","[0.15, 0.5]",1,1,,,,,,,,,0,5,5,5,0,4,4,6,,,,,,,,,,,,,,,,,,,,,,,,,,,,,,,,,,,,,,,,,,,,,,,,,,,,,,,584.3508349559997,None,584.3508349559997,None,584.3508349559997,None,m,1,0.8274496300000465,585.8865755849984,None,585.8865755849984,None,585.8865755849984,None,586.7681967540011,None,586.7681967540011,None,586.7681967540011,None,586.7681967540011,None,,,,,,,,,,,,,,,,,,,,,,,,,,,,,,,,,,,,,,,,,,,,001,47,2020_Jan_30_1446,spring_faces,3.1.5,60.193158520551854,
condition files/Stage1_2.xlsx,,B4,T3,c,"['c', 'm']","['Clue', 'Monopoly']","[-0.15, 0.5]","[0.15, 0.5]",1,1,,,,,,,,,0,5,5,5,0,5,5,5,,,,,,,,,,,,,,,,,,,,,,,,,,,,,,,,,,,,,,,,,,,,,,,,,,,,,,,588.734578268999,None,588.734578268999,None,588.734578268999,None,c,1,0.8932559939967177,590.2688475699979,None,590.2688475699979,None,590.2688475699979,None,591.2196628720012,None,591.2196628720012,None,591.2196628720012,None,591.2196628720012,None,,,,,,,,,,,,,,,,,,,,,,,,,,,,,,,,,,,,,,,,,,,,001,47,2020_Jan_30_1446,spring_faces,3.1.5,60.193158520551854,
condition files/Stage1_2.xlsx,,T4,B4,m,"['c', 'm']","['Clue', 'Monopoly']","[-0.15, 0.5]","[0.15, 0.5]",1,1,,,,,,,,,0,5,5,5,0,6,6,7,,,,,,,,,,,,,,,,,,,,,,,,,,,,,,,,,,,,,,,,,,,,,,,,,,,,,,,593.1838155849982,None,593.1838155849982,None,593.1838155849982,None,m,1,0.7312559469974076,594.7347437899989,None,594.7347437899989,None,594.7347437899989,None,595.5209806380008,None,595.5209806380008,None,595.5209806380008,None,595.5209806380008,None,,,,,,,,,,,,,,,,,,,,,,,,,,,,,,,,,,,,,,,,,,,,001,47,2020_Jan_30_1446,spring_faces,3.1.5,60.193158520551854,
condition files/Stage1_2.xlsx,,T3,B3,c,"['c', 'm']","['Clue', 'Monopoly']","[-0.15, 0.5]","[0.15, 0.5]",1,1,,,,,,,,,0,5,5,5,0,7,7,4,,,,,,,,,,,,,,,,,,,,,,,,,,,,,,,,,,,,,,,,,,,,,,,,,,,,,,,597.4849005159995,None,597.4849005159995,None,597.4849005159995,None,c,1,0.8155253209988587,599.0344831609982,None,599.0344831609982,None,599.0344831609982,None,599.9030195539999,None,599.9030195539999,None,599.9030195539999,None,599.9030195539999,None,,,,,,,,,,,,,,,,,,,,,,,,,,,,,,,,,,,,,,,,,,,,001,47,2020_Jan_30_1446,spring_faces,3.1.5,60.193158520551854,
condition files/Stage1_1.xlsx,,B1,T2,c,"['c', 'm']","['Clue', 'Monopoly']","[-0.15, 0.5]","[0.15, 0.5]",1,1,,,,,,,,,0,6,6,6,0,0,0,1,,,,,,,,,,,,,,,,,,,,,,,,,,,,,,,,,,,,,,,,,,,,,,,,,,,,,,,601.8847232459993,None,601.8847232459993,None,601.8847232459993,None,c,1,0.6860031159994833,603.4200359030001,None,603.4200359030001,None,603.4200359030001,None,604.1682973809984,None,604.1682973809984,None,604.1682973809984,None,604.1682973809984,None,,,,,,,,,,,,,,,,,,,,,,,,,,,,,,,,,,,,,,,,,,,,001,47,2020_Jan_30_1446,spring_faces,3.1.5,60.193158520551854,
condition files/Stage1_1.xlsx,,B3,T3,c,"['c', 'm']","['Clue', 'Monopoly']","[-0.15, 0.5]","[0.15, 0.5]",1,1,,,,,,,,,0,6,6,6,0,1,1,4,,,,,,,,,,,,,,,,,,,,,,,,,,,,,,,,,,,,,,,,,,,,,,,,,,,,,,,606.1347382489985,None,606.1347382489985,None,606.1347382489985,None,c,1,1.1254704300008598,607.6846103509997,None,607.6846103509997,None,607.6846103509997,None,608.8678093089984,None,608.8678093089984,None,608.8678093089984,None,608.8678093089984,None,,,,,,,,,,,,,,,,,,,,,,,,,,,,,,,,,,,,,,,,,,,,001,47,2020_Jan_30_1446,spring_faces,3.1.5,60.193158520551854,
condition files/Stage1_1.xlsx,,T4,B3,m,"['c', 'm']","['Clue', 'Monopoly']","[-0.15, 0.5]","[0.15, 0.5]",1,1,,,,,,,,,0,6,6,6,0,2,2,6,,,,,,,,,,,,,,,,,,,,,,,,,,,,,,,,,,,,,,,,,,,,,,,,,,,,,,,610.8346855399977,None,610.8346855399977,None,610.8346855399977,None,m,1,1.0803277519989933,612.369693659999,None,612.369693659999,None,612.369693659999,None,613.518162837001,None,613.518162837001,None,613.518162837001,None,613.518162837001,None,,,,,,,,,,,,,,,,,,,,,,,,,,,,,,,,,,,,,,,,,,,,001,47,2020_Jan_30_1446,spring_faces,3.1.5,60.193158520551854,
condition files/Stage1_1.xlsx,,B4,T4,m,"['c', 'm']","['Clue', 'Monopoly']","[-0.15, 0.5]","[0.15, 0.5]",1,1,,,,,,,,,0,6,6,6,0,3,3,7,,,,,,,,,,,,,,,,,,,,,,,,,,,,,,,,,,,,,,,,,,,,,,,,,,,,,,,615.4680624860011,None,615.4680624860011,None,615.4680624860011,None,m,1,0.8957784539998102,617.018232847,None,617.018232847,None,617.018232847,None,617.9680622449996,None,617.9680622449996,None,617.9680622449996,None,617.9680622449996,None,,,,,,,,,,,,,,,,,,,,,,,,,,,,,,,,,,,,,,,,,,,,001,47,2020_Jan_30_1446,spring_faces,3.1.5,60.193158520551854,
condition files/Stage1_1.xlsx,,T1,B1,c,"['c', 'm']","['Clue', 'Monopoly']","[-0.15, 0.5]","[0.15, 0.5]",1,1,,,,,,,,,0,6,6,6,0,4,4,0,,,,,,,,,,,,,,,,,,,,,,,,,,,,,,,,,,,,,,,,,,,,,,,,,,,,,,,619.9346940840005,None,619.9346940840005,None,619.9346940840005,None,c,1,1.0050374860002194,621.484991112,None,621.484991112,None,621.484991112,None,622.5523403869993,None,622.5523403869993,None,622.5523403869993,None,622.5523403869993,None,,,,,,,,,,,,,,,,,,,,,,,,,,,,,,,,,,,,,,,,,,,,001,47,2020_Jan_30_1446,spring_faces,3.1.5,60.193158520551854,
condition files/Stage1_1.xlsx,,T3,B4,c,"['c', 'm']","['Clue', 'Monopoly']","[-0.15, 0.5]","[0.15, 0.5]",1,1,,,,,,,,,0,6,6,6,0,5,5,5,,,,,,,,,,,,,,,,,,,,,,,,,,,,,,,,,,,,,,,,,,,,,,,,,,,,,,,624.5177637060006,None,624.5177637060006,None,624.5177637060006,None,c,1,1.3642581839994818,626.0537725139984,None,626.0537725139984,None,626.0537725139984,None,627.4685911409979,None,627.4685911409979,None,627.4685911409979,None,627.4685911409979,None,,,,,,,,,,,,,,,,,,,,,,,,,,,,,,,,,,,,,,,,,,,,001,47,2020_Jan_30_1446,spring_faces,3.1.5,60.193158520551854,
condition files/Stage1_1.xlsx,,B2,T1,m,"['c', 'm']","['Clue', 'Monopoly']","[-0.15, 0.5]","[0.15, 0.5]",1,1,,,,,,,,,0,6,6,6,0,6,6,2,,,,,,,,,,,,,,,,,,,,,,,,,,,,,,,,,,,,,,,,,,,,,,,,,,,,,,,629.4344550309979,None,629.4344550309979,None,629.4344550309979,None,m,1,1.8570586480018392,630.9850244419977,None,630.9850244419977,None,630.9850244419977,None,632.901437657998,None,632.901437657998,None,632.901437657998,None,632.901437657998,None,,,,,,,,,,,,,,,,,,,,,,,,,,,,,,,,,,,,,,,,,,,,001,47,2020_Jan_30_1446,spring_faces,3.1.5,60.193158520551854,
condition files/Stage1_1.xlsx,,T2,B2,m,"['c', 'm']","['Clue', 'Monopoly']","[-0.15, 0.5]","[0.15, 0.5]",1,1,,,,,,,,,0,6,6,6,0,7,7,3,,,,,,,,,,,,,,,,,,,,,,,,,,,,,,,,,,,,,,,,,,,,,,,,,,,,,,,634.8681183629997,None,634.8681183629997,None,634.8681183629997,None,m,1,1.400664673998108,636.4013146869984,None,636.4013146869984,None,636.4013146869984,None,637.8684227980011,None,637.8684227980011,None,637.8684227980011,None,637.8684227980011,None,,,,,,,,,,,,,,,,,,,,,,,,,,,,,,,,,,,,,,,,,,,,001,47,2020_Jan_30_1446,spring_faces,3.1.5,60.193158520551854,
condition files/Stage1_2.xlsx,,B4,T3,c,"['c', 'm']","['Clue', 'Monopoly']","[-0.15, 0.5]","[0.15, 0.5]",1,1,,,,,,,,,0,7,7,7,0,0,0,5,,,,,,,,,,,,,,,,,,,,,,,,,,,,,,,,,,,,,,,,,,,,,,,,,,,,,,,639.8519741179989,None,639.8519741179989,None,639.8519741179989,None,m,0,0.7204457109983196,641.3855905009987,None,641.3855905009987,None,641.3855905009987,None,642.1690972789984,None,642.1690972789984,None,642.1690972789984,None,642.1690972789984,None,,,,,,,,,,,,,,,,,,,,,,,,,,,,,,,,,,,,,,,,,,,,001,47,2020_Jan_30_1446,spring_faces,3.1.5,60.193158520551854,
condition files/Stage1_2.xlsx,,B2,T2,m,"['c', 'm']","['Clue', 'Monopoly']","[-0.15, 0.5]","[0.15, 0.5]",1,1,,,,,,,,,0,7,7,7,0,1,1,3,,,,,,,,,,,,,,,,,,,,,,,,,,,,,,,,,,,,,,,,,,,,,,,,,,,,,,,644.1348603000006,None,644.1348603000006,None,644.1348603000006,None,m,1,1.0451753009983804,645.6848189599987,None,645.6848189599987,None,645.6848189599987,None,646.8019414109986,None,646.8019414109986,None,646.8019414109986,None,646.8019414109986,None,,,,,,,,,,,,,,,,,,,,,,,,,,,,,,,,,,,,,,,,,,,,001,47,2020_Jan_30_1446,spring_faces,3.1.5,60.193158520551854,
condition files/Stage1_2.xlsx,,B3,T4,m,"['c', 'm']","['Clue', 'Monopoly']","[-0.15, 0.5]","[0.15, 0.5]",1,1,,,,,,,,,0,7,7,7,0,2,2,6,,,,,,,,,,,,,,,,,,,,,,,,,,,,,,,,,,,,,,,,,,,,,,,,,,,,,,,648.7508853159998,None,648.7508853159998,None,648.7508853159998,None,m,1,0.8444518100004643,650.3015225259987,None,650.3015225259987,None,650.3015225259987,None,651.201362025,None,651.201362025,None,651.201362025,None,651.201362025,None,,,,,,,,,,,,,,,,,,,,,,,,,,,,,,,,,,,,,,,,,,,,001,47,2020_Jan_30_1446,spring_faces,3.1.5,60.193158520551854,
condition files/Stage1_2.xlsx,,T1,B2,m,"['c', 'm']","['Clue', 'Monopoly']","[-0.15, 0.5]","[0.15, 0.5]",1,1,,,,,,,,,0,7,7,7,0,3,3,2,,,,,,,,,,,,,,,,,,,,,,,,,,,,,,,,,,,,,,,,,,,,,,,,,,,,,,,653.1679613269989,None,653.1679613269989,None,653.1679613269989,None,m,1,1.2913274979982816,654.7027867770012,None,654.7027867770012,None,654.7027867770012,None,656.0520497529978,None,656.0520497529978,None,656.0520497529978,None,656.0520497529978,None,,,,,,,,,,,,,,,,,,,,,,,,,,,,,,,,,,,,,,,,,,,,001,47,2020_Jan_30_1446,spring_faces,3.1.5,60.193158520551854,
condition files/Stage1_2.xlsx,,B1,T1,c,"['c', 'm']","['Clue', 'Monopoly']","[-0.15, 0.5]","[0.15, 0.5]",1,1,,,,,,,,,0,7,7,7,0,4,4,0,,,,,,,,,,,,,,,,,,,,,,,,,,,,,,,,,,,,,,,,,,,,,,,,,,,,,,,658.0179807889981,None,658.0179807889981,None,658.0179807889981,None,c,1,0.7623979290001444,659.5516319019989,None,659.5516319019989,None,659.5516319019989,None,660.3693271810007,None,660.3693271810007,None,660.3693271810007,None,660.3693271810007,None,,,,,,,,,,,,,,,,,,,,,,,,,,,,,,,,,,,,,,,,,,,,001,47,2020_Jan_30_1446,spring_faces,3.1.5,60.193158520551854,
condition files/Stage1_2.xlsx,,T2,B1,c,"['c', 'm']","['Clue', 'Monopoly']","[-0.15, 0.5]","[0.15, 0.5]",1,1,,,,,,,,,0,7,7,7,0,5,5,1,,,,,,,,,,,,,,,,,,,,,,,,,,,,,,,,,,,,,,,,,,,,,,,,,,,,,,,662.334822372999,None,662.334822372999,None,662.334822372999,None,c,1,0.6372696639991773,663.8687678979986,None,663.8687678979986,None,663.8687678979986,None,664.5680973909984,None,664.5680973909984,None,664.5680973909984,None,664.5680973909984,None,,,,,,,,,,,,,,,,,,,,,,,,,,,,,,,,,,,,,,,,,,,,001,47,2020_Jan_30_1446,spring_faces,3.1.5,60.193158520551854,
condition files/Stage1_2.xlsx,,T4,B4,m,"['c', 'm']","['Clue', 'Monopoly']","[-0.15, 0.5]","[0.15, 0.5]",1,1,,,,,,,,,0,7,7,7,0,6,6,7,,,,,,,,,,,,,,,,,,,,,,,,,,,,,,,,,,,,,,,,,,,,,,,,,,,,,,,666.5347054429985,None,666.5347054429985,None,666.5347054429985,None,m,1,0.9323238489996584,668.0696745799978,None,668.0696745799978,None,668.0696745799978,None,669.0680271399979,None,669.0680271399979,None,669.0680271399979,None,669.0680271399979,None,,,,,,,,,,,,,,,,,,,,,,,,,,,,,,,,,,,,,,,,,,,,001,47,2020_Jan_30_1446,spring_faces,3.1.5,60.193158520551854,
condition files/Stage1_2.xlsx,,T3,B3,c,"['c', 'm']","['Clue', 'Monopoly']","[-0.15, 0.5]","[0.15, 0.5]",1,1,,,,,,,,,0,7,7,7,0,7,7,4,,,,,,,,,,,,,,,,,,,,,,,,,,,,,,,,,,,,,,,,,,,,,,,,,,,,,,,671.0348890429996,None,671.0348890429996,None,671.0348890429996,None,c,1,0.9940472689995659,672.5680575859988,None,672.5680575859988,None,672.5680575859988,None,673.6203028119999,None,673.6203028119999,None,673.6203028119999,None,673.6203028119999,None,,,,,,,,,,,,,,,,,,,,,,,,,,,,,,,,,,,,,,,,,,,,001,47,2020_Jan_30_1446,spring_faces,3.1.5,60.193158520551854,
condition files/Stage1_1.xlsx,,B2,T1,m,"['c', 'm']","['Clue', 'Monopoly']","[-0.15, 0.5]","[0.15, 0.5]",1,1,,,,,,,,,0,8,8,8,0,0,0,2,,,,,,,,,,,,,,,,,,,,,,,,,,,,,,,,,,,,,,,,,,,,,,,,,,,,,,,675.6015725469988,None,675.6015725469988,None,675.6015725469988,None,m,1,0.8577286069994443,677.1363764880007,None,677.1363764880007,None,677.1363764880007,None,678.0525577419976,None,678.0525577419976,None,678.0525577419976,None,678.0525577419976,None,,,,,,,,,,,,,,,,,,,,,,,,,,,,,,,,,,,,,,,,,,,,001,47,2020_Jan_30_1446,spring_faces,3.1.5,60.193158520551854,
condition files/Stage1_1.xlsx,,B4,T4,m,"['c', 'm']","['Clue', 'Monopoly']","[-0.15, 0.5]","[0.15, 0.5]",1,1,,,,,,,,,0,8,8,8,0,1,1,7,,,,,,,,,,,,,,,,,,,,,,,,,,,,,,,,,,,,,,,,,,,,,,,,,,,,,,,680.0180109879984,None,680.0180109879984,None,680.0180109879984,None,m,1,0.8097255550019327,681.5682680169994,None,681.5682680169994,None,681.5682680169994,None,682.4349285589997,None,682.4349285589997,None,682.4349285589997,None,682.4349285589997,None,,,,,,,,,,,,,,,,,,,,,,,,,,,,,,,,,,,,,,,,,,,,001,47,2020_Jan_30_1446,spring_faces,3.1.5,60.193158520551854,
condition files/Stage1_1.xlsx,,B1,T2,c,"['c', 'm']","['Clue', 'Monopoly']","[-0.15, 0.5]","[0.15, 0.5]",1,1,,,,,,,,,0,8,8,8,0,2,2,1,,,,,,,,,,,,,,,,,,,,,,,,,,,,,,,,,,,,,,,,,,,,,,,,,,,,,,,684.4007942729986,None,684.4007942729986,None,684.4007942729986,None,c,1,0.6989139260003867,685.9351147519992,None,685.9351147519992,None,685.9351147519992,None,686.6860919360006,None,686.6860919360006,None,686.6860919360006,None,686.6860919360006,None,,,,,,,,,,,,,,,,,,,,,,,,,,,,,,,,,,,,,,,,,,,,001,47,2020_Jan_30_1446,spring_faces,3.1.5,60.193158520551854,
condition files/Stage1_1.xlsx,,T2,B2,m,"['c', 'm']","['Clue', 'Monopoly']","[-0.15, 0.5]","[0.15, 0.5]",1,1,,,,,,,,,0,8,8,8,0,3,3,3,,,,,,,,,,,,,,,,,,,,,,,,,,,,,,,,,,,,,,,,,,,,,,,,,,,,,,,688.651359386,None,688.651359386,None,688.651359386,None,m,1,1.1203868640004657,690.2016306849982,None,690.2016306849982,None,690.2016306849982,None,691.386363753998,None,691.386363753998,None,691.386363753998,None,691.386363753998,None,,,,,,,,,,,,,,,,,,,,,,,,,,,,,,,,,,,,,,,,,,,,001,47,2020_Jan_30_1446,spring_faces,3.1.5,60.193158520551854,
condition files/Stage1_1.xlsx,,T1,B1,c,"['c', 'm']","['Clue', 'Monopoly']","[-0.15, 0.5]","[0.15, 0.5]",1,1,,,,,,,,,0,8,8,8,0,4,4,0,,,,,,,,,,,,,,,,,,,,,,,,,,,,,,,,,,,,,,,,,,,,,,,,,,,,,,,693.3514075700004,None,693.3514075700004,None,693.3514075700004,None,c,1,0.8205332930010627,694.8855051999999,None,694.8855051999999,None,694.8855051999999,None,695.7709747740009,None,695.7709747740009,None,695.7709747740009,None,695.7709747740009,None,,,,,,,,,,,,,,,,,,,,,,,,,,,,,,,,,,,,,,,,,,,,001,47,2020_Jan_30_1446,spring_faces,3.1.5,60.193158520551854,
condition files/Stage1_1.xlsx,,T4,B3,m,"['c', 'm']","['Clue', 'Monopoly']","[-0.15, 0.5]","[0.15, 0.5]",1,1,,,,,,,,,0,8,8,8,0,5,5,6,,,,,,,,,,,,,,,,,,,,,,,,,,,,,,,,,,,,,,,,,,,,,,,,,,,,,,,697.7346959639981,None,697.7346959639981,None,697.7346959639981,None,m,1,0.7564504420006415,699.2696410379976,None,699.2696410379976,None,699.2696410379976,None,700.0865157099979,None,700.0865157099979,None,700.0865157099979,None,700.0865157099979,None,,,,,,,,,,,,,,,,,,,,,,,,,,,,,,,,,,,,,,,,,,,,001,47,2020_Jan_30_1446,spring_faces,3.1.5,60.193158520551854,
condition files/Stage1_1.xlsx,,T3,B4,c,"['c', 'm']","['Clue', 'Monopoly']","[-0.15, 0.5]","[0.15, 0.5]",1,1,,,,,,,,,0,8,8,8,0,6,6,5,,,,,,,,,,,,,,,,,,,,,,,,,,,,,,,,,,,,,,,,,,,,,,,,,,,,,,,702.050897434001,None,702.050897434001,None,702.050897434001,None,c,1,0.7124306539990357,703.6015855209989,None,703.6015855209989,None,703.6015855209989,None,704.3685644920006,None,704.3685644920006,None,704.3685644920006,None,704.3685644920006,None,,,,,,,,,,,,,,,,,,,,,,,,,,,,,,,,,,,,,,,,,,,,001,47,2020_Jan_30_1446,spring_faces,3.1.5,60.193158520551854,
condition files/Stage1_1.xlsx,,B3,T3,c,"['c', 'm']","['Clue', 'Monopoly']","[-0.15, 0.5]","[0.15, 0.5]",1,1,,,,,,,,,0,8,8,8,0,7,7,4,,,,,,,,,,,,,,,,,,,,,,,,,,,,,,,,,,,,,,,,,,,,,,,,,,,,,,,706.3348257030011,None,706.3348257030011,None,706.3348257030011,None,c,1,1.0050071590012521,707.8850244919995,None,707.8850244919995,None,707.8850244919995,None,708.9513729869977,None,708.9513729869977,None,708.9513729869977,None,708.9513729869977,None,,,,,,,,,,,,,,,,,,,,,,,,,,,,,,,,,,,,,,,,,,,,001,47,2020_Jan_30_1446,spring_faces,3.1.5,60.193158520551854,
condition files/Stage1_2.xlsx,,B3,T4,m,"['c', 'm']","['Clue', 'Monopoly']","[-0.15, 0.5]","[0.15, 0.5]",1,1,,,,,,,,,0,9,9,9,0,0,0,6,,,,,,,,,,,,,,,,,,,,,,,,,,,,,,,,,,,,,,,,,,,,,,,,,,,,,,,710.9350020269994,None,710.9350020269994,None,710.9350020269994,None,m,1,0.884137400000327,712.4698970729987,None,712.4698970729987,None,712.4698970729987,None,713.4350179899993,None,713.4350179899993,None,713.4350179899993,None,713.4350179899993,None,,,,,,,,,,,,,,,,,,,,,,,,,,,,,,,,,,,,,,,,,,,,001,47,2020_Jan_30_1446,spring_faces,3.1.5,60.193158520551854,
condition files/Stage1_2.xlsx,,T1,B2,m,"['c', 'm']","['Clue', 'Monopoly']","[-0.15, 0.5]","[0.15, 0.5]",1,1,,,,,,,,,0,9,9,9,0,1,1,2,,,,,,,,,,,,,,,,,,,,,,,,,,,,,,,,,,,,,,,,,,,,,,,,,,,,,,,715.384470525998,None,715.384470525998,None,715.384470525998,None,m,1,1.0749289140003384,716.919153982999,None,716.919153982999,None,716.919153982999,None,718.0516234169991,None,718.0516234169991,None,718.0516234169991,None,718.0516234169991,None,,,,,,,,,,,,,,,,,,,,,,,,,,,,,,,,,,,,,,,,,,,,001,47,2020_Jan_30_1446,spring_faces,3.1.5,60.193158520551854,
condition files/Stage1_2.xlsx,,B2,T2,m,"['c', 'm']","['Clue', 'Monopoly']","[-0.15, 0.5]","[0.15, 0.5]",1,1,,,,,,,,,0,9,9,9,0,2,2,3,,,,,,,,,,,,,,,,,,,,,,,,,,,,,,,,,,,,,,,,,,,,,,,,,,,,,,,720.0174614629977,None,720.0174614629977,None,720.0174614629977,None,m,1,0.7453203040022345,721.5686586289994,None,721.5686586289994,None,721.5686586289994,None,722.3682765099984,None,722.3682765099984,None,722.3682765099984,None,722.3682765099984,None,,,,,,,,,,,,,,,,,,,,,,,,,,,,,,,,,,,,,,,,,,,,001,47,2020_Jan_30_1446,spring_faces,3.1.5,60.193158520551854,
condition files/Stage1_2.xlsx,,T4,B4,m,"['c', 'm']","['Clue', 'Monopoly']","[-0.15, 0.5]","[0.15, 0.5]",1,1,,,,,,,,,0,9,9,9,0,3,3,7,,,,,,,,,,,,,,,,,,,,,,,,,,,,,,,,,,,,,,,,,,,,,,,,,,,,,,,724.3347832709987,None,724.3347832709987,None,724.3347832709987,None,m,1,0.7022360910013958,725.8677999899992,None,725.8677999899992,None,725.8677999899992,None,726.6343857690008,None,726.6343857690008,None,726.6343857690008,None,726.6343857690008,None,,,,,,,,,,,,,,,,,,,,,,,,,,,,,,,,,,,,,,,,,,,,001,47,2020_Jan_30_1446,spring_faces,3.1.5,60.193158520551854,
condition files/Stage1_2.xlsx,,B4,T3,c,"['c', 'm']","['Clue', 'Monopoly']","[-0.15, 0.5]","[0.15, 0.5]",1,1,,,,,,,,,0,9,9,9,0,4,4,5,,,,,,,,,,,,,,,,,,,,,,,,,,,,,,,,,,,,,,,,,,,,,,,,,,,,,,,728.6014675830011,None,728.6014675830011,None,728.6014675830011,None,c,1,1.250581020001846,730.1513941029989,None,730.1513941029989,None,730.1513941029989,None,731.4701852369981,None,731.4701852369981,None,731.4701852369981,None,731.4701852369981,None,,,,,,,,,,,,,,,,,,,,,,,,,,,,,,,,,,,,,,,,,,,,001,47,2020_Jan_30_1446,spring_faces,3.1.5,60.193158520551854,
condition files/Stage1_2.xlsx,,B1,T1,c,"['c', 'm']","['Clue', 'Monopoly']","[-0.15, 0.5]","[0.15, 0.5]",1,1,,,,,,,,,0,9,9,9,0,5,5,0,,,,,,,,,,,,,,,,,,,,,,,,,,,,,,,,,,,,,,,,,,,,,,,,,,,,,,,733.4347504409998,None,733.4347504409998,None,733.4347504409998,None,c,1,1.216950313999405,734.9850183359995,None,734.9850183359995,None,734.9850183359995,None,736.2679062299976,None,736.2679062299976,None,736.2679062299976,None,736.2679062299976,None,,,,,,,,,,,,,,,,,,,,,,,,,,,,,,,,,,,,,,,,,,,,001,47,2020_Jan_30_1446,spring_faces,3.1.5,60.193158520551854,
condition files/Stage1_2.xlsx,,T3,B3,c,"['c', 'm']","['Clue', 'Monopoly']","[-0.15, 0.5]","[0.15, 0.5]",1,1,,,,,,,,,0,9,9,9,0,6,6,4,,,,,,,,,,,,,,,,,,,,,,,,,,,,,,,,,,,,,,,,,,,,,,,,,,,,,,,738.234831531001,None,738.234831531001,None,738.234831531001,None,c,1,0.9454978599969763,739.7845309240001,None,739.7845309240001,None,739.7845309240001,None,740.7849556239998,None,740.7849556239998,None,740.7849556239998,None,740.7849556239998,None,,,,,,,,,,,,,,,,,,,,,,,,,,,,,,,,,,,,,,,,,,,,001,47,2020_Jan_30_1446,spring_faces,3.1.5,60.193158520551854,
condition files/Stage1_2.xlsx,,T2,B1,c,"['c', 'm']","['Clue', 'Monopoly']","[-0.15, 0.5]","[0.15, 0.5]",1,1,,,,,,,,,0,9,9,9,0,7,7,1,,,,,,,,,,,,,,,,,,,,,,,,,,,,,,,,,,,,,,,,,,,,,,,,,,,,,,,742.7508387649978,None,742.7508387649978,None,742.7508387649978,None,c,1,1.1649986880001961,744.2850189409983,None,744.2850189409983,None,744.2850189409983,None,745.501407421998,None,745.501407421998,None,745.501407421998,None,745.501407421998,None,,,,,,,,,,,,,,,,,,,,,,,,,,,,,,,,,,,,,,,,,,,,001,47,2020_Jan_30_1446,spring_faces,3.1.5,60.193158520551854,
condition files/Stage1_1.xlsx,,B4,T4,m,"['c', 'm']","['Clue', 'Monopoly']","[-0.15, 0.5]","[0.15, 0.5]",1,1,,,,,,,,,0,10,10,10,0,0,0,7,,,,,,,,,,,,,,,,,,,,,,,,,,,,,,,,,,,,,,,,,,,,,,,,,,,,,,,747.4850104770012,None,747.4850104770012,None,747.4850104770012,None,m,1,1.3118281250026484,749.0181327639984,None,749.0181327639984,None,749.0181327639984,None,750.3852997309987,None,750.3852997309987,None,750.3852997309987,None,750.3852997309987,None,,,,,,,,,,,,,,,,,,,,,,,,,,,,,,,,,,,,,,,,,,,,001,47,2020_Jan_30_1446,spring_faces,3.1.5,60.193158520551854,
condition files/Stage1_1.xlsx,,T2,B2,m,"['c', 'm']","['Clue', 'Monopoly']","[-0.15, 0.5]","[0.15, 0.5]",1,1,,,,,,,,,0,10,10,10,0,1,1,3,,,,,,,,,,,,,,,,,,,,,,,,,,,,,,,,,,,,,,,,,,,,,,,,,,,,,,,752.351387849998,None,752.351387849998,None,752.351387849998,None,m,1,2.267656096999417,753.8863815479999,None,753.8863815479999,None,753.8863815479999,None,756.2180876719976,None,756.2180876719976,None,756.2180876719976,None,756.2180876719976,None,,,,,,,,,,,,,,,,,,,,,,,,,,,,,,,,,,,,,,,,,,,,001,47,2020_Jan_30_1446,spring_faces,3.1.5,60.193158520551854,
condition files/Stage1_1.xlsx,,B2,T1,m,"['c', 'm']","['Clue', 'Monopoly']","[-0.15, 0.5]","[0.15, 0.5]",1,1,,,,,,,,,0,10,10,10,0,2,2,2,,,,,,,,,,,,,,,,,,,,,,,,,,,,,,,,,,,,,,,,,,,,,,,,,,,,,,,758.184870052999,None,758.184870052999,None,758.184870052999,None,m,1,0.8340451960029895,759.7199867560012,None,759.7199867560012,None,759.7199867560012,None,760.618443864998,None,760.618443864998,None,760.618443864998,None,760.618443864998,None,,,,,,,,,,,,,,,,,,,,,,,,,,,,,,,,,,,,,,,,,,,,001,47,2020_Jan_30_1446,spring_faces,3.1.5,60.193158520551854,
condition files/Stage1_1.xlsx,,T4,B3,m,"['c', 'm']","['Clue', 'Monopoly']","[-0.15, 0.5]","[0.15, 0.5]",1,1,,,,,,,,,0,10,10,10,0,3,3,6,,,,,,,,,,,,,,,,,,,,,,,,,,,,,,,,,,,,,,,,,,,,,,,,,,,,,,,762.5842208260001,None,762.5842208260001,None,762.5842208260001,None,m,1,0.8507101780014636,764.1352479259986,None,764.1352479259986,None,764.1352479259986,None,765.0511508230011,None,765.0511508230011,None,765.0511508230011,None,765.0511508230011,None,,,,,,,,,,,,,,,,,,,,,,,,,,,,,,,,,,,,,,,,,,,,001,47,2020_Jan_30_1446,spring_faces,3.1.5,60.193158520551854,
condition files/Stage1_1.xlsx,,B3,T3,c,"['c', 'm']","['Clue', 'Monopoly']","[-0.15, 0.5]","[0.15, 0.5]",1,1,,,,,,,,,0,10,10,10,0,4,4,4,,,,,,,,,,,,,,,,,,,,,,,,,,,,,,,,,,,,,,,,,,,,,,,,,,,,,,,767.0181364119999,None,767.0181364119999,None,767.0181364119999,None,c,1,1.3770084349998797,768.5529838209986,None,768.5529838209986,None,768.5529838209986,None,769.9869436119989,None,769.9869436119989,None,769.9869436119989,None,769.9869436119989,None,,,,,,,,,,,,,,,,,,,,,,,,,,,,,,,,,,,,,,,,,,,,001,47,2020_Jan_30_1446,spring_faces,3.1.5,60.193158520551854,
condition files/Stage1_1.xlsx,,B1,T2,c,"['c', 'm']","['Clue', 'Monopoly']","[-0.15, 0.5]","[0.15, 0.5]",1,1,,,,,,,,,0,10,10,10,0,5,5,1,,,,,,,,,,,,,,,,,,,,,,,,,,,,,,,,,,,,,,,,,,,,,,,,,,,,,,,771.9508297600005,None,771.9508297600005,None,771.9508297600005,None,m,0,1.0679158450002433,773.4861229079979,None,773.4861229079979,None,773.4861229079979,None,774.6182731749977,None,774.6182731749977,None,774.6182731749977,None,774.6182731749977,None,,,,,,,,,,,,,,,,,,,,,,,,,,,,,,,,,,,,,,,,,,,,001,47,2020_Jan_30_1446,spring_faces,3.1.5,60.193158520551854,
condition files/Stage1_1.xlsx,,T1,B1,c,"['c', 'm']","['Clue', 'Monopoly']","[-0.15, 0.5]","[0.15, 0.5]",1,1,,,,,,,,,0,10,10,10,0,6,6,0,,,,,,,,,,,,,,,,,,,,,,,,,,,,,,,,,,,,,,,,,,,,,,,,,,,,,,,776.584670166998,None,776.584670166998,None,776.584670166998,None,c,1,0.8043542470004468,778.1176677639996,None,778.1176677639996,None,778.1176677639996,None,778.9850454359985,None,778.9850454359985,None,778.9850454359985,None,778.9850454359985,None,,,,,,,,,,,,,,,,,,,,,,,,,,,,,,,,,,,,,,,,,,,,001,47,2020_Jan_30_1446,spring_faces,3.1.5,60.193158520551854,
condition files/Stage1_1.xlsx,,T3,B4,c,"['c', 'm']","['Clue', 'Monopoly']","[-0.15, 0.5]","[0.15, 0.5]",1,1,,,,,,,,,0,10,10,10,0,7,7,5,,,,,,,,,,,,,,,,,,,,,,,,,,,,,,,,,,,,,,,,,,,,,,,,,,,,,,,780.9514074129984,None,780.9514074129984,None,780.9514074129984,None,c,1,1.3809991720008838,782.4850326619999,None,782.4850326619999,None,782.4850326619999,None,783.9177036129986,None,783.9177036129986,None,783.9177036129986,None,783.9177036129986,None,,,,,,,,,,,,,,,,,,,,,,,,,,,,,,,,,,,,,,,,,,,,001,47,2020_Jan_30_1446,spring_faces,3.1.5,60.193158520551854,
condition files/Stage1_2.xlsx,,B4,T3,c,"['c', 'm']","['Clue', 'Monopoly']","[-0.15, 0.5]","[0.15, 0.5]",1,1,,,,,,,,,0,11,11,11,0,0,0,5,,,,,,,,,,,,,,,,,,,,,,,,,,,,,,,,,,,,,,,,,,,,,,,,,,,,,,,785.9007284689978,None,785.9007284689978,None,785.9007284689978,None,c,1,0.9113822110011824,787.434646777001,None,787.434646777001,None,787.434646777001,None,788.4012971459997,None,788.4012971459997,None,788.4012971459997,None,788.4012971459997,None,,,,,,,,,,,,,,,,,,,,,,,,,,,,,,,,,,,,,,,,,,,,001,47,2020_Jan_30_1446,spring_faces,3.1.5,60.193158520551854,
condition files/Stage1_2.xlsx,,B2,T2,m,"['c', 'm']","['Clue', 'Monopoly']","[-0.15, 0.5]","[0.15, 0.5]",1,1,,,,,,,,,0,11,11,11,0,1,1,3,,,,,,,,,,,,,,,,,,,,,,,,,,,,,,,,,,,,,,,,,,,,,,,,,,,,,,,790.3679505209984,None,790.3679505209984,None,790.3679505209984,None,m,1,1.276669512000808,791.9013791039979,None,791.9013791039979,None,791.9013791039979,None,793.2349114319986,None,793.2349114319986,None,793.2349114319986,None,793.2349114319986,None,,,,,,,,,,,,,,,,,,,,,,,,,,,,,,,,,,,,,,,,,,,,001,47,2020_Jan_30_1446,spring_faces,3.1.5,60.193158520551854,
condition files/Stage1_2.xlsx,,T1,B2,m,"['c', 'm']","['Clue', 'Monopoly']","[-0.15, 0.5]","[0.15, 0.5]",1,1,,,,,,,,,0,11,11,11,0,2,2,2,,,,,,,,,,,,,,,,,,,,,,,,,,,,,,,,,,,,,,,,,,,,,,,,,,,,,,,795.2009537419981,None,795.2009537419981,None,795.2009537419981,None,m,1,1.0038911010015,796.7341607569979,None,796.7341607569979,None,796.7341607569979,None,797.801495806998,None,797.801495806998,None,797.801495806998,None,797.801495806998,None,,,,,,,,,,,,,,,,,,,,,,,,,,,,,,,,,,,,,,,,,,,,001,47,2020_Jan_30_1446,spring_faces,3.1.5,60.193158520551854,
condition files/Stage1_2.xlsx,,B3,T4,m,"['c', 'm']","['Clue', 'Monopoly']","[-0.15, 0.5]","[0.15, 0.5]",1,1,,,,,,,,,0,11,11,11,0,3,3,6,,,,,,,,,,,,,,,,,,,,,,,,,,,,,,,,,,,,,,,,,,,,,,,,,,,,,,,799.7685811579977,None,799.7685811579977,None,799.7685811579977,None,m,1,0.9633092149997537,801.3027164189989,None,801.3027164189989,None,801.3027164189989,None,802.3180396040007,None,802.3180396040007,None,802.3180396040007,None,802.3180396040007,None,,,,,,,,,,,,,,,,,,,,,,,,,,,,,,,,,,,,,,,,,,,,001,47,2020_Jan_30_1446,spring_faces,3.1.5,60.193158520551854,
condition files/Stage1_2.xlsx,,T3,B3,c,"['c', 'm']","['Clue', 'Monopoly']","[-0.15, 0.5]","[0.15, 0.5]",1,1,,,,,,,,,0,11,11,11,0,4,4,4,,,,,,,,,,,,,,,,,,,,,,,,,,,,,,,,,,,,,,,,,,,,,,,,,,,,,,,804.2847636330007,None,804.2847636330007,None,804.2847636330007,None,c,1,1.102178567001829,805.8198578400006,None,805.8198578400006,None,805.8198578400006,None,807.0015126219987,None,807.0015126219987,None,807.0015126219987,None,807.0015126219987,None,,,,,,,,,,,,,,,,,,,,,,,,,,,,,,,,,,,,,,,,,,,,001,47,2020_Jan_30_1446,spring_faces,3.1.5,60.193158520551854,
condition files/Stage1_2.xlsx,,T4,B4,m,"['c', 'm']","['Clue', 'Monopoly']","[-0.15, 0.5]","[0.15, 0.5]",1,1,,,,,,,,,0,11,11,11,0,5,5,7,,,,,,,,,,,,,,,,,,,,,,,,,,,,,,,,,,,,,,,,,,,,,,,,,,,,,,,808.9513907100009,None,808.9513907100009,None,808.9513907100009,None,m,1,0.7722304420021828,810.5018541499994,None,810.5018541499994,None,810.5018541499994,None,811.3350975559988,None,811.3350975559988,None,811.3350975559988,None,811.3350975559988,None,,,,,,,,,,,,,,,,,,,,,,,,,,,,,,,,,,,,,,,,,,,,001,47,2020_Jan_30_1446,spring_faces,3.1.5,60.193158520551854,
condition files/Stage1_2.xlsx,,T2,B1,c,"['c', 'm']","['Clue', 'Monopoly']","[-0.15, 0.5]","[0.15, 0.5]",1,1,,,,,,,,,0,11,11,11,0,6,6,1,,,,,,,,,,,,,,,,,,,,,,,,,,,,,,,,,,,,,,,,,,,,,,,,,,,,,,,813.3013622979997,None,813.3013622979997,None,813.3013622979997,None,c,1,1.0948698659994989,814.8351737859994,None,814.8351737859994,None,814.8351737859994,None,816.0019989309985,None,816.0019989309985,None,816.0019989309985,None,816.0019989309985,None,,,,,,,,,,,,,,,,,,,,,,,,,,,,,,,,,,,,,,,,,,,,001,47,2020_Jan_30_1446,spring_faces,3.1.5,60.193158520551854,
condition files/Stage1_2.xlsx,,B1,T1,c,"['c', 'm']","['Clue', 'Monopoly']","[-0.15, 0.5]","[0.15, 0.5]",1,1,,,,,,,,,0,11,11,11,0,7,7,0,,,,,,,,,,,,,,,,,,,,,,,,,,,,,,,,,,,,,,,,,,,,,,,,,,,,,,,817.9515428249979,None,817.9515428249979,None,817.9515428249979,None,c,1,0.6831938920004177,819.4868449739988,None,819.4868449739988,None,819.4868449739988,None,820.2349203129997,None,820.2349203129997,None,820.2349203129997,None,820.2349203129997,None,,,,,,,,,,,,,,,,,,,,,,,,,,,,,,,,,,,,,,,,,,,,001,47,2020_Jan_30_1446,spring_faces,3.1.5,60.193158520551854,
,,,,,,,,,,,,,,,,,,,,,,,,,,,,,,,,,,,,,,,,,,,,,,,,,,,,,,,,,,,,,,,,,,,,,,,,,,,,,,,,,,,,,,,,,,,,,,,,,,,,,,,,,,,,,,,,822.2183717959997,None,space,8.519975620998594,827.2180639719991,None,,,,,,,,,,,,,,,,,,,,,,,,,,,,,,001,47,2020_Jan_30_1446,spring_faces,3.1.5,60.193158520551854,
condition files/Stage2_1.xlsx,,B6,T6,r,"['s', 'r']","['Stratego', 'Risk']","[-0.15, 0.5]","[0.15, 0.5]",1,1,,,,,,,,,,,,,,,,,0,0,0,0,0,0,0,1,,,,,,,,,,,,,,,,,,,,,,,,,,,,,,,,,,,,,,,,,,,,,,,835.8014706829999,None,835.8014706829999,None,835.8014706829999,None,s,0,1.3776095870016434,837.3684072119977,None,837.3684072119977,None,837.3684072119977,None,838.817646427,None,838.817646427,None,838.817646427,None,838.817646427,None,,,,,,,,,,,,,,,827.2180639719991,None,,,,,,,,,,,,,,,,,,,,,,,,,,,,001,47,2020_Jan_30_1446,spring_faces,3.1.5,60.193158520551854,
condition files/Stage2_1.xlsx,,B2,T2,r,"['s', 'r']","['Stratego', 'Risk']","[-0.15, 0.5]","[0.15, 0.5]",1,1,,,,,,,,,,,,,,,,,0,0,0,0,0,1,1,3,,,,,,,,,,,,,,,,,,,,,,,,,,,,,,,,,,,,,,,,,,,,,,,840.7679470490002,None,840.7679470490002,None,840.7679470490002,None,r,1,0.956591947000561,842.3014987079987,None,842.3014987079987,None,842.3014987079987,None,843.3182625929985,None,843.3182625929985,None,843.3182625929985,None,843.3182625929985,None,,,,,,,,,,,,,,,,,,,,,,,,,,,,,,,,,,,,,,,,,,,,001,47,2020_Jan_30_1446,spring_faces,3.1.5,60.193158520551854,
condition files/Stage2_1.xlsx,,B4,T4,r,"['s', 'r']","['Stratego', 'Risk']","[-0.15, 0.5]","[0.15, 0.5]",1,1,,,,,,,,,,,,,,,,,0,0,0,0,0,2,2,5,,,,,,,,,,,,,,,,,,,,,,,,,,,,,,,,,,,,,,,,,,,,,,,845.2847059019987,None,845.2847059019987,None,845.2847059019987,None,r,1,0.9509252370007744,846.8350649169988,None,846.8350649169988,None,846.8350649169988,None,847.8511530469987,None,847.8511530469987,None,847.8511530469987,None,847.8511530469987,None,,,,,,,,,,,,,,,,,,,,,,,,,,,,,,,,,,,,,,,,,,,,001,47,2020_Jan_30_1446,spring_faces,3.1.5,60.193158520551854,
condition files/Stage2_1.xlsx,,T3,B3,s,"['s', 'r']","['Stratego', 'Risk']","[-0.15, 0.5]","[0.15, 0.5]",1,1,,,,,,,,,,,,,,,,,0,0,0,0,0,3,3,4,,,,,,,,,,,,,,,,,,,,,,,,,,,,,,,,,,,,,,,,,,,,,,,849.8181115660009,None,849.8181115660009,None,849.8181115660009,None,s,1,0.9298182959973929,851.3683107649995,None,851.3683107649995,None,851.3683107649995,None,852.3526066060003,None,852.3526066060003,None,852.3526066060003,None,852.3526066060003,None,,,,,,,,,,,,,,,,,,,,,,,,,,,,,,,,,,,,,,,,,,,,001,47,2020_Jan_30_1446,spring_faces,3.1.5,60.193158520551854,
condition files/Stage2_1.xlsx,,T5,B5,s,"['s', 'r']","['Stratego', 'Risk']","[-0.15, 0.5]","[0.15, 0.5]",1,1,,,,,,,,,,,,,,,,,0,0,0,0,0,4,4,0,,,,,,,,,,,,,,,,,,,,,,,,,,,,,,,,,,,,,,,,,,,,,,,854.3176558609994,None,854.3176558609994,None,854.3176558609994,None,s,1,1.1151033079986519,855.9029134499979,None,855.9029134499979,None,855.9029134499979,None,857.0681229269976,None,857.0681229269976,None,857.0681229269976,None,857.0681229269976,None,,,,,,,,,,,,,,,,,,,,,,,,,,,,,,,,,,,,,,,,,,,,001,47,2020_Jan_30_1446,spring_faces,3.1.5,60.193158520551854,
condition files/Stage2_1.xlsx,,T1,B1,s,"['s', 'r']","['Stratego', 'Risk']","[-0.15, 0.5]","[0.15, 0.5]",1,1,,,,,,,,,,,,,,,,,0,0,0,0,0,5,5,2,,,,,,,,,,,,,,,,,,,,,,,,,,,,,,,,,,,,,,,,,,,,,,,859.0349922519999,None,859.0349922519999,None,859.0349922519999,None,s,1,1.903573862000485,860.5705248169979,None,860.5705248169979,None,860.5705248169979,None,862.5346810019983,None,862.5346810019983,None,862.5346810019983,None,862.5346810019983,None,,,,,,,,,,,,,,,,,,,,,,,,,,,,,,,,,,,,,,,,,,,,001,47,2020_Jan_30_1446,spring_faces,3.1.5,60.193158520551854,
condition files/Stage2_2.xlsx,,T6,B6,r,"['s', 'r']","['Stratego', 'Risk']","[-0.15, 0.5]","[0.15, 0.5]",1,1,,,,,,,,,,,,,,,,,0,1,1,1,0,0,0,1,,,,,,,,,,,,,,,,,,,,,,,,,,,,,,,,,,,,,,,,,,,,,,,864.5681627509985,None,864.5681627509985,None,864.5681627509985,None,r,1,1.2702686220000032,866.0518012280008,None,866.0518012280008,None,866.0518012280008,None,867.3847045459988,None,867.3847045459988,None,867.3847045459988,None,867.3847045459988,None,,,,,,,,,,,,,,,,,,,,,,,,,,,,,,,,,,,,,,,,,,,,001,47,2020_Jan_30_1446,spring_faces,3.1.5,60.193158520551854,
condition files/Stage2_2.xlsx,,B5,T5,s,"['s', 'r']","['Stratego', 'Risk']","[-0.15, 0.5]","[0.15, 0.5]",1,1,,,,,,,,,,,,,,,,,0,1,1,1,0,1,1,0,,,,,,,,,,,,,,,,,,,,,,,,,,,,,,,,,,,,,,,,,,,,,,,869.3516318490001,None,869.3516318490001,None,869.3516318490001,None,s,1,0.6775360589999764,870.8845629729985,None,870.8845629729985,None,870.8845629729985,None,871.6194189439993,None,871.6194189439993,None,871.6194189439993,None,871.6194189439993,None,,,,,,,,,,,,,,,,,,,,,,,,,,,,,,,,,,,,,,,,,,,,001,47,2020_Jan_30_1446,spring_faces,3.1.5,60.193158520551854,
condition files/Stage2_2.xlsx,,T4,B4,r,"['s', 'r']","['Stratego', 'Risk']","[-0.15, 0.5]","[0.15, 0.5]",1,1,,,,,,,,,,,,,,,,,0,1,1,1,0,2,2,5,,,,,,,,,,,,,,,,,,,,,,,,,,,,,,,,,,,,,,,,,,,,,,,873.5851980139996,None,873.5851980139996,None,873.5851980139996,None,r,1,0.6977945660000842,875.1202404670003,None,875.1202404670003,None,875.1202404670003,None,875.8850762969996,None,875.8850762969996,None,875.8850762969996,None,875.8850762969996,None,,,,,,,,,,,,,,,,,,,,,,,,,,,,,,,,,,,,,,,,,,,,001,47,2020_Jan_30_1446,spring_faces,3.1.5,60.193158520551854,
condition files/Stage2_2.xlsx,,B3,T3,s,"['s', 'r']","['Stratego', 'Risk']","[-0.15, 0.5]","[0.15, 0.5]",1,1,,,,,,,,,,,,,,,,,0,1,1,1,0,3,3,4,,,,,,,,,,,,,,,,,,,,,,,,,,,,,,,,,,,,,,,,,,,,,,,877.8346509920011,None,877.8346509920011,None,877.8346509920011,None,s,1,1.1369404469987785,879.385084010999,None,879.385084010999,None,879.385084010999,None,880.5872180949991,None,880.5872180949991,None,880.5872180949991,None,880.5872180949991,None,,,,,,,,,,,,,,,,,,,,,,,,,,,,,,,,,,,,,,,,,,,,001,47,2020_Jan_30_1446,spring_faces,3.1.5,60.193158520551854,
condition files/Stage2_2.xlsx,,B1,T1,s,"['s', 'r']","['Stratego', 'Risk']","[-0.15, 0.5]","[0.15, 0.5]",1,1,,,,,,,,,,,,,,,,,0,1,1,1,0,4,4,2,,,,,,,,,,,,,,,,,,,,,,,,,,,,,,,,,,,,,,,,,,,,,,,882.5513615659984,None,882.5513615659984,None,882.5513615659984,None,r,0,0.5964626839995617,884.085568429,None,884.085568429,None,884.085568429,None,884.7347822579977,None,884.7347822579977,None,884.7347822579977,None,884.7347822579977,None,,,,,,,,,,,,,,,,,,,,,,,,,,,,,,,,,,,,,,,,,,,,001,47,2020_Jan_30_1446,spring_faces,3.1.5,60.193158520551854,
condition files/Stage2_2.xlsx,,T2,B2,r,"['s', 'r']","['Stratego', 'Risk']","[-0.15, 0.5]","[0.15, 0.5]",1,1,,,,,,,,,,,,,,,,,0,1,1,1,0,5,5,3,,,,,,,,,,,,,,,,,,,,,,,,,,,,,,,,,,,,,,,,,,,,,,,886.7012253100002,None,886.7012253100002,None,886.7012253100002,None,r,1,1.021518275996641,888.2365277780009,None,888.2365277780009,None,888.2365277780009,None,889.3185913569978,None,889.3185913569978,None,889.3185913569978,None,889.3185913569978,None,,,,,,,,,,,,,,,,,,,,,,,,,,,,,,,,,,,,,,,,,,,,001,47,2020_Jan_30_1446,spring_faces,3.1.5,60.193158520551854,
condition files/Stage2_1.xlsx,,T1,B1,s,"['s', 'r']","['Stratego', 'Risk']","[-0.15, 0.5]","[0.15, 0.5]",1,1,,,,,,,,,,,,,,,,,0,2,2,2,0,0,0,2,,,,,,,,,,,,,,,,,,,,,,,,,,,,,,,,,,,,,,,,,,,,,,,891.3008786319988,None,891.3008786319988,None,891.3008786319988,None,s,1,0.9832089109986555,892.8348205959992,None,892.8348205959992,None,892.8348205959992,None,893.8849466860011,None,893.8849466860011,None,893.8849466860011,None,893.8849466860011,None,,,,,,,,,,,,,,,,,,,,,,,,,,,,,,,,,,,,,,,,,,,,001,47,2020_Jan_30_1446,spring_faces,3.1.5,60.193158520551854,
condition files/Stage2_1.xlsx,,B2,T2,r,"['s', 'r']","['Stratego', 'Risk']","[-0.15, 0.5]","[0.15, 0.5]",1,1,,,,,,,,,,,,,,,,,0,2,2,2,0,1,1,3,,,,,,,,,,,,,,,,,,,,,,,,,,,,,,,,,,,,,,,,,,,,,,,895.8347105399989,None,895.8347105399989,None,895.8347105399989,None,r,1,0.9445524759976252,897.369481433001,None,897.369481433001,None,897.369481433001,None,898.3679912629996,None,898.3679912629996,None,898.3679912629996,None,898.3679912629996,None,,,,,,,,,,,,,,,,,,,,,,,,,,,,,,,,,,,,,,,,,,,,001,47,2020_Jan_30_1446,spring_faces,3.1.5,60.193158520551854,
condition files/Stage2_1.xlsx,,T3,B3,s,"['s', 'r']","['Stratego', 'Risk']","[-0.15, 0.5]","[0.15, 0.5]",1,1,,,,,,,,,,,,,,,,,0,2,2,2,0,2,2,4,,,,,,,,,,,,,,,,,,,,,,,,,,,,,,,,,,,,,,,,,,,,,,,900.3348257409998,None,900.3348257409998,None,900.3348257409998,None,s,1,1.5167319050015067,901.8852441060008,None,901.8852441060008,None,901.8852441060008,None,903.471025892999,None,903.471025892999,None,903.471025892999,None,903.471025892999,None,,,,,,,,,,,,,,,,,,,,,,,,,,,,,,,,,,,,,,,,,,,,001,47,2020_Jan_30_1446,spring_faces,3.1.5,60.193158520551854,
condition files/Stage2_1.xlsx,,B6,T6,r,"['s', 'r']","['Stratego', 'Risk']","[-0.15, 0.5]","[0.15, 0.5]",1,1,,,,,,,,,,,,,,,,,0,2,2,2,0,3,3,1,,,,,,,,,,,,,,,,,,,,,,,,,,,,,,,,,,,,,,,,,,,,,,,905.4349583449984,None,905.4349583449984,None,905.4349583449984,None,s,0,1.3291450420001638,906.969123720999,None,906.969123720999,None,906.969123720999,None,908.3681396089996,None,908.3681396089996,None,908.3681396089996,None,908.3681396089996,None,,,,,,,,,,,,,,,,,,,,,,,,,,,,,,,,,,,,,,,,,,,,001,47,2020_Jan_30_1446,spring_faces,3.1.5,60.193158520551854,
condition files/Stage2_1.xlsx,,B4,T4,r,"['s', 'r']","['Stratego', 'Risk']","[-0.15, 0.5]","[0.15, 0.5]",1,1,,,,,,,,,,,,,,,,,0,2,2,2,0,4,4,5,,,,,,,,,,,,,,,,,,,,,,,,,,,,,,,,,,,,,,,,,,,,,,,910.3180838640001,None,910.3180838640001,None,910.3180838640001,None,r,1,0.8136381710028218,911.8683767389994,None,911.8683767389994,None,911.8683767389994,None,912.7350626049993,None,912.7350626049993,None,912.7350626049993,None,912.7350626049993,None,,,,,,,,,,,,,,,,,,,,,,,,,,,,,,,,,,,,,,,,,,,,001,47,2020_Jan_30_1446,spring_faces,3.1.5,60.193158520551854,
condition files/Stage2_1.xlsx,,T5,B5,s,"['s', 'r']","['Stratego', 'Risk']","[-0.15, 0.5]","[0.15, 0.5]",1,1,,,,,,,,,,,,,,,,,0,2,2,2,0,5,5,0,,,,,,,,,,,,,,,,,,,,,,,,,,,,,,,,,,,,,,,,,,,,,,,914.7010117879981,None,914.7010117879981,None,914.7010117879981,None,s,1,1.278137566998339,916.2358970909991,None,916.2358970909991,None,916.2358970909991,None,917.5710116289993,None,917.5710116289993,None,917.5710116289993,None,917.5710116289993,None,,,,,,,,,,,,,,,,,,,,,,,,,,,,,,,,,,,,,,,,,,,,001,47,2020_Jan_30_1446,spring_faces,3.1.5,60.193158520551854,
condition files/Stage2_2.xlsx,,T2,B2,r,"['s', 'r']","['Stratego', 'Risk']","[-0.15, 0.5]","[0.15, 0.5]",1,1,,,,,,,,,,,,,,,,,0,3,3,3,0,0,0,3,,,,,,,,,,,,,,,,,,,,,,,,,,,,,,,,,,,,,,,,,,,,,,,919.5519383360006,None,919.5519383360006,None,919.5519383360006,None,r,1,1.116389684000751,921.1016436179998,None,921.1016436179998,None,921.1016436179998,None,922.285158884999,None,922.285158884999,None,922.285158884999,None,922.285158884999,None,,,,,,,,,,,,,,,,,,,,,,,,,,,,,,,,,,,,,,,,,,,,001,47,2020_Jan_30_1446,spring_faces,3.1.5,60.193158520551854,
condition files/Stage2_2.xlsx,,T6,B6,r,"['s', 'r']","['Stratego', 'Risk']","[-0.15, 0.5]","[0.15, 0.5]",1,1,,,,,,,,,,,,,,,,,0,3,3,3,0,1,1,1,,,,,,,,,,,,,,,,,,,,,,,,,,,,,,,,,,,,,,,,,,,,,,,924.2341113139992,None,924.2341113139992,None,924.2341113139992,None,r,1,2.4329404430027353,925.785074176998,None,925.785074176998,None,925.785074176998,None,928.2682984929997,None,928.2682984929997,None,928.2682984929997,None,928.2682984929997,None,,,,,,,,,,,,,,,,,,,,,,,,,,,,,,,,,,,,,,,,,,,,001,47,2020_Jan_30_1446,spring_faces,3.1.5,60.193158520551854,
condition files/Stage2_2.xlsx,,B5,T5,s,"['s', 'r']","['Stratego', 'Risk']","[-0.15, 0.5]","[0.15, 0.5]",1,1,,,,,,,,,,,,,,,,,0,3,3,3,0,2,2,0,,,,,,,,,,,,,,,,,,,,,,,,,,,,,,,,,,,,,,,,,,,,,,,930.2341638149992,None,930.2341638149992,None,930.2341638149992,None,s,1,1.072811902002286,931.7692986760012,None,931.7692986760012,None,931.7692986760012,None,932.902751843998,None,932.902751843998,None,932.902751843998,None,932.902751843998,None,,,,,,,,,,,,,,,,,,,,,,,,,,,,,,,,,,,,,,,,,,,,001,47,2020_Jan_30_1446,spring_faces,3.1.5,60.193158520551854,
condition files/Stage2_2.xlsx,,B1,T1,s,"['s', 'r']","['Stratego', 'Risk']","[-0.15, 0.5]","[0.15, 0.5]",1,1,,,,,,,,,,,,,,,,,0,3,3,3,0,3,3,2,,,,,,,,,,,,,,,,,,,,,,,,,,,,,,,,,,,,,,,,,,,,,,,934.8675491510003,None,934.8675491510003,None,934.8675491510003,None,s,1,1.0636006080021616,936.402430615999,None,936.402430615999,None,936.402430615999,None,937.5181652959982,None,937.5181652959982,None,937.5181652959982,None,937.5181652959982,None,,,,,,,,,,,,,,,,,,,,,,,,,,,,,,,,,,,,,,,,,,,,001,47,2020_Jan_30_1446,spring_faces,3.1.5,60.193158520551854,
condition files/Stage2_2.xlsx,,B3,T3,s,"['s', 'r']","['Stratego', 'Risk']","[-0.15, 0.5]","[0.15, 0.5]",1,1,,,,,,,,,,,,,,,,,0,3,3,3,0,4,4,4,,,,,,,,,,,,,,,,,,,,,,,,,,,,,,,,,,,,,,,,,,,,,,,939.484883000001,None,939.484883000001,None,939.484883000001,None,s,1,1.6465859880008793,941.019449252999,None,941.019449252999,None,941.019449252999,None,942.717865491999,None,942.717865491999,None,942.717865491999,None,942.717865491999,None,,,,,,,,,,,,,,,,,,,,,,,,,,,,,,,,,,,,,,,,,,,,001,47,2020_Jan_30_1446,spring_faces,3.1.5,60.193158520551854,
condition files/Stage2_2.xlsx,,T4,B4,r,"['s', 'r']","['Stratego', 'Risk']","[-0.15, 0.5]","[0.15, 0.5]",1,1,,,,,,,,,,,,,,,,,0,3,3,3,0,5,5,5,,,,,,,,,,,,,,,,,,,,,,,,,,,,,,,,,,,,,,,,,,,,,,,944.684764925998,None,944.684764925998,None,944.684764925998,None,r,1,0.927280604999396,946.2347897510008,None,946.2347897510008,None,946.2347897510008,None,947.2191220950008,None,947.2191220950008,None,947.2191220950008,None,947.2191220950008,None,,,,,,,,,,,,,,,,,,,,,,,,,,,,,,,,,,,,,,,,,,,,001,47,2020_Jan_30_1446,spring_faces,3.1.5,60.193158520551854,
condition files/Stage2_1.xlsx,,B4,T4,r,"['s', 'r']","['Stratego', 'Risk']","[-0.15, 0.5]","[0.15, 0.5]",1,1,,,,,,,,,,,,,,,,,0,4,4,4,0,0,0,5,,,,,,,,,,,,,,,,,,,,,,,,,,,,,,,,,,,,,,,,,,,,,,,949.2011511829987,None,949.2011511829987,None,949.2011511829987,None,r,1,5.354350760997477,950.7357233809998,None,950.7357233809998,None,950.7357233809998,None,956.1513887779984,None,956.1513887779984,None,956.1513887779984,None,956.1513887779984,None,,,,,,,,,,,,,,,,,,,,,,,,,,,,,,,,,,,,,,,,,,,,001,47,2020_Jan_30_1446,spring_faces,3.1.5,60.193158520551854,
condition files/Stage2_1.xlsx,,T1,B1,s,"['s', 'r']","['Stratego', 'Risk']","[-0.15, 0.5]","[0.15, 0.5]",1,1,,,,,,,,,,,,,,,,,0,4,4,4,0,1,1,2,,,,,,,,,,,,,,,,,,,,,,,,,,,,,,,,,,,,,,,,,,,,,,,958.1182111839989,None,958.1182111839989,None,958.1182111839989,None,s,1,0.9004324359993916,959.6536057949997,None,959.6536057949997,None,959.6536057949997,None,960.6193135089998,None,960.6193135089998,None,960.6193135089998,None,960.6193135089998,None,,,,,,,,,,,,,,,,,,,,,,,,,,,,,,,,,,,,,,,,,,,,001,47,2020_Jan_30_1446,spring_faces,3.1.5,60.193158520551854,
condition files/Stage2_1.xlsx,,B6,T6,r,"['s', 'r']","['Stratego', 'Risk']","[-0.15, 0.5]","[0.15, 0.5]",1,1,,,,,,,,,,,,,,,,,0,4,4,4,0,2,2,1,,,,,,,,,,,,,,,,,,,,,,,,,,,,,,,,,,,,,,,,,,,,,,,962.5847160699996,None,962.5847160699996,None,962.5847160699996,None,r,1,1.9237024459980603,964.1184034279977,None,964.1184034279977,None,964.1184034279977,None,966.1030329809983,None,966.1030329809983,None,966.1030329809983,None,966.1030329809983,None,,,,,,,,,,,,,,,,,,,,,,,,,,,,,,,,,,,,,,,,,,,,001,47,2020_Jan_30_1446,spring_faces,3.1.5,60.193158520551854,
