condsFile,subStage,cue1,cue2,correct,responseKeys,responseNames,cue1Position,cue2Position,cue1Opacity,cue2Opacity,stageLoop0.thisRepN,stageLoop0.thisTrialN,stageLoop0.thisN,stageLoop0.thisIndex,blockLoop0.thisRepN,blockLoop0.thisTrialN,blockLoop0.thisN,blockLoop0.thisIndex,stage1Loop.thisRepN,stage1Loop.thisTrialN,stage1Loop.thisN,stage1Loop.thisIndex,blockLoop1.thisRepN,blockLoop1.thisTrialN,blockLoop1.thisN,blockLoop1.thisIndex,stage2Loop.thisRepN,stage2Loop.thisTrialN,stage2Loop.thisN,stage2Loop.thisIndex,blockLoop2.thisRepN,blockLoop2.thisTrialN,blockLoop2.thisN,blockLoop2.thisIndex,testLoop.thisRepN,testLoop.thisTrialN,testLoop.thisN,testLoop.thisIndex,blockLoopTest.thisRepN,blockLoopTest.thisTrialN,blockLoopTest.thisN,blockLoopTest.thisIndex,cuePics,id_instr_text.started,id_instr_text.stopped,space_to_continue_2.started,space_to_continue_2.stopped,end_instructions_resp_3.keys,end_instructions_resp_3.rt,end_instructions_resp_3.started,end_instructions_resp_3.stopped,id_input_instr.started,id_input_instr.stopped,id_input_rect.started,id_input_rect.stopped,id_input_resp.keys,id_input_resp.rt,id_input_resp.started,id_input_resp.stopped,sonaID,id_input_text.started,id_input_text.stopped,final_text.started,final_text.stopped,instructions.started,instructions.stopped,end_instructions_resp.keys,end_instructions_resp.rt,end_instructions_resp.started,end_instructions_resp.stopped,space_to_continue.started,space_to_continue.stopped,instructions_stage0.started,instructions_stage0.stopped,end_instructions_resp_stage0.keys,end_instructions_resp_stage0.rt,end_instructions_resp_stage0.started,end_instructions_resp_stage0.stopped,space_to_continue_stage0.started,space_to_continue_stage0.stopped,text.started,text.stopped,resp_text1.started,resp_text1.stopped,resp_text2.started,resp_text2.stopped,trial_resp.keys,trial_resp.corr,trial_resp.rt,trial_resp.started,trial_resp.stopped,cue1Image.started,cue1Image.stopped,cue2Image.started,cue2Image.stopped,cue1Image_fb.started,cue1Image_fb.stopped,cue2Image_fb.started,cue2Image_fb.stopped,fb_text_answer.started,fb_text_answer.stopped,feedback_image.started,feedback_image.stopped,instructions_stage1.started,instructions_stage1.stopped,end_instructions_resp_stage1.keys,end_instructions_resp_stage1.rt,end_instructions_resp_stage1.started,end_instructions_resp_stage1.stopped,space_to_continue_stage1.started,space_to_continue_stage1.stopped,instructions_2.started,instructions_2.stopped,end_instructions_resp_2.keys,end_instructions_resp_2.rt,end_instructions_resp_2.started,end_instructions_resp_2.stopped,press_space_to_continue_stage2.started,press_space_to_continue_stage2.stopped,instructions_testStage1.started,instructions_testStage1.stopped,end_instructions_resp_test1.keys,end_instructions_resp_test1.rt,end_instructions_resp_test1.started,end_instructions_resp_test1.stopped,press_space_to_continue_test1.started,press_space_to_continue_test1.stopped,cue1Image_testChoice.started,cue1Image_testChoice.stopped,cue2Image_testChoice.started,cue2Image_testChoice.stopped,test_resp.keys,test_resp.corr,test_resp.rt,test_resp.started,test_resp.stopped,cue1Image_testConf.started,cue1Image_testConf.stopped,cue2Image_testConf.started,cue2Image_testConf.stopped,conf_reminder.started,conf_reminder.stopped,conf_rating.response,conf_rating.rt,conf_rating.started,conf_rating.stopped,session,participant,date,expName,psychopyVersion,frameRate,
,,,,,,,,,,,,,,,,,,,,,,,,,,,,,,,,,,,,,,,,,,,"{'none': 'pictures/20M_AN_C.png', 'alpha': 'pictures/SHINEd_pear.png', 'beta': 'pictures/SHINEd_melon.png', 'theta': 'pictures/SHINEd_apple.png', 'phi': 'pictures/SHINEd_pepper.png', 'T1': 'pictures/23M_AN_C.png', 'T2': 'pictures/22M_AN_C.png', 'T3': 'pictures/32M_AN_C.png', 'T4': 'pictures/36M_AN_C.png', 'T5': 'pictures/33M_AN_C.png', 'T6': 'pictures/37M_AN_C.png', 'B1': 'pictures/26M_NE_C.png', 'B2': 'pictures/38M_NE_C.png', 'B3': 'pictures/31M_NE_C.png', 'B4': 'pictures/20M_NE_C.png', 'B5': 'pictures/25M_NE_C.png', 'B6': 'pictures/34M_NE_C.png'}",30.65247436899881,None,35.635962549000396,None,space,888.1296486050014,35.635962549000396,None,,,,,,,,,,,,,,,,,,,,,,,,,,,,,,,,,,,,,,,,,,,,,,,,,,,,,,,,,,,,,,,,,,,,,,,,,,,,,,,,,,,,,,,,,,,,,,,,001,50,2020_Jan_30_1514,spring_faces,3.1.5,59.996196721594416,
,,,,,,,,,,,,,,,,,,,,,,,,,,,,,,,,,,,,,,,,,,,,,,,,,,,,924.1523817060006,None,924.1523817060006,None,"['backspace', 'backspace', 'backspace', 'backspace', 'backspace', 'backspace', 'backspace', 'p', 'backspace', '0', '1', '1', '0', 'd', 'i', 'a', 'c', 'a', 'j', 'o', 's', 'e', 'backspace', 'e', 'r', 'e', 'c', 'a', 'l', 'd', 'backspace', 'backspace', '0', '1', '1', '0', 'd', 'i', 'c', 'o', 't']","[25.82129800000257, 26.06123957300224, 26.269295661000797, 26.461286478002876, 26.6373085990017, 26.845297593001305, 27.02131217600254, 32.125356439002644, 32.82928927100147, 36.62130217400045, 37.53324582300047, 42.349289974001294, 42.893357648001256, 47.10126025400314, 47.725353101999644, 56.55725394500041, 56.81331734500054, 57.101243158002035, 71.93323848200089, 72.22132015800162, 72.84525577000022, 73.03728666499956, 74.04521876700164, 75.10123881199979, 76.63729821900051, 76.82929611200234, 77.05329423900184, 77.27729229300166, 77.8692976780003, 78.25336758900085, 84.1253637310001, 84.36529116699967, 88.49334821199955, 88.97330465600317, 91.933293348, 92.58932300200104, 95.94927891800035, 96.38129565800045, 101.96529393600213, 102.63730282300094, 103.21349921900037]",924.1523817060006,None,,,,,,,,,,,,,,,,,,,,,,,,,,,,,,,,,,,,,,,,,,,,,,,,,,,,,,,,,,,,,,,,,,,,,,,,,,,,,,,,,,,,,,,,001,50,2020_Jan_30_1514,spring_faces,3.1.5,59.996196721594416,
,,,,,,,,,,,,,,,,,,,,,,,,,,,,,,,,,,,,,,,,,,,,,,,,,,,,,,,,,,,,0110dicot,924.1523817060006,None,924.1523817060006,None,1032.435780806998,None,space,2.4578640689978783,1037.435895374998,None,,,,,,,,,,,,,,,,,,,,,,,,,,,,,,,,,,,,,,,,,,,,,,,,,,,,,,,,,,,,,,,,,,,,,,,,,,,,,001,50,2020_Jan_30_1514,spring_faces,3.1.5,59.996196721594416,
,,,,,,,,,,,,,,,,,,,,,,,,,,,,,,,,,,,,,,,,,,,,,,,,,,,,,,,,,,,,,,,,,,,,,,,1037.435895374998,None,1039.935853895,None,space,7.886623004997091,1044.9190745630003,None,,,,,,,,,,,,,,,,,,,,,,,,,,,,,,,,,,,,,,,,,,,,,,,,,,,,,,,,,,,,,,,,,,,,,001,50,2020_Jan_30_1514,spring_faces,3.1.5,59.996196721594416,
condition files/Stage0a.xlsx,0a,beta,none,g,"['h', 'g']","['Chess', 'Go']","[0, 0.5]","[0, 0]",1,0,0,0,0,0,0,0,0,1,,,,,,,,,,,,,,,,,,,,,,,,,,,,,,,,,,,,,,,,,,,,,,,,,,,,,,,,,,,,,1044.9190745630003,None,1052.8686585709984,None,1052.8686585709984,None,1052.8686585709984,None,h,0,4.4811556989989185,1054.4525234020002,None,1054.4525234020002,None,1054.4525234020002,None,1059.0027119820006,None,1059.0027119820006,None,1059.0027119820006,None,1059.0027119820006,None,,,,,,,,,,,,,,,,,,,,,,,,,,,,,,,,,,,,,,,,,,,,001,50,2020_Jan_30_1514,spring_faces,3.1.5,59.996196721594416,
condition files/Stage0a.xlsx,0a,alpha,none,h,"['h', 'g']","['Chess', 'Go']","[0, 0.5]","[0, 0]",1,0,0,0,0,0,0,1,1,0,,,,,,,,,,,,,,,,,,,,,,,,,,,,,,,,,,,,,,,,,,,,,,,,,,,,,,,,,,,,,,,1060.9522373580003,None,1060.9522373580003,None,1060.9522373580003,None,g,0,7.198027883001487,1062.4876558979995,None,1062.4876558979995,None,1062.4876558979995,None,1069.7348290240006,None,1069.7348290240006,None,1069.7348290240006,None,1069.7348290240006,None,,,,,,,,,,,,,,,,,,,,,,,,,,,,,,,,,,,,,,,,,,,,001,50,2020_Jan_30_1514,spring_faces,3.1.5,59.996196721594416,
condition files/Stage0a.xlsx,0a,alpha,none,h,"['h', 'g']","['Chess', 'Go']","[0, 0.5]","[0, 0]",1,0,0,1,1,1,0,0,0,0,,,,,,,,,,,,,,,,,,,,,,,,,,,,,,,,,,,,,,,,,,,,,,,,,,,,,,,,,,,,,,,1071.719313947,None,1071.719313947,None,1071.719313947,None,h,1,3.728735283999413,1073.2529528230007,None,1073.2529528230007,None,1073.2529528230007,None,1077.035226846001,None,1077.035226846001,None,1077.035226846001,None,1077.035226846001,None,,,,,,,,,,,,,,,,,,,,,,,,,,,,,,,,,,,,,,,,,,,,001,50,2020_Jan_30_1514,spring_faces,3.1.5,59.996196721594416,
condition files/Stage0a.xlsx,0a,beta,none,g,"['h', 'g']","['Chess', 'Go']","[0, 0.5]","[0, 0]",1,0,0,1,1,1,0,1,1,1,,,,,,,,,,,,,,,,,,,,,,,,,,,,,,,,,,,,,,,,,,,,,,,,,,,,,,,,,,,,,,,1079.0022731999998,None,1079.0022731999998,None,1079.0022731999998,None,g,1,2.236663679002959,1080.5370343430004,None,1080.5370343430004,None,1080.5370343430004,None,1082.835985444999,None,1082.835985444999,None,1082.835985444999,None,1082.835985444999,None,,,,,,,,,,,,,,,,,,,,,,,,,,,,,,,,,,,,,,,,,,,,001,50,2020_Jan_30_1514,spring_faces,3.1.5,59.996196721594416,
condition files/Stage0a.xlsx,0a,alpha,none,h,"['h', 'g']","['Chess', 'Go']","[0, 0.5]","[0, 0]",1,0,0,2,2,2,0,0,0,0,,,,,,,,,,,,,,,,,,,,,,,,,,,,,,,,,,,,,,,,,,,,,,,,,,,,,,,,,,,,,,,1084.8191954169997,None,1084.8191954169997,None,1084.8191954169997,None,h,1,1.4602396240006783,1086.3534514290004,None,1086.3534514290004,None,1086.3534514290004,None,1087.8687217059996,None,1087.8687217059996,None,1087.8687217059996,None,1087.8687217059996,None,,,,,,,,,,,,,,,,,,,,,,,,,,,,,,,,,,,,,,,,,,,,001,50,2020_Jan_30_1514,spring_faces,3.1.5,59.996196721594416,
condition files/Stage0a.xlsx,0a,beta,none,g,"['h', 'g']","['Chess', 'Go']","[0, 0.5]","[0, 0]",1,0,0,2,2,2,0,1,1,1,,,,,,,,,,,,,,,,,,,,,,,,,,,,,,,,,,,,,,,,,,,,,,,,,,,,,,,,,,,,,,,1089.8355606389996,None,1089.8355606389996,None,1089.8355606389996,None,g,1,0.4444890339982521,1091.3691752669984,None,1091.3691752669984,None,1091.3691752669984,None,1091.8689284920001,None,1091.8689284920001,None,1091.8689284920001,None,1091.8689284920001,None,,,,,,,,,,,,,,,,,,,,,,,,,,,,,,,,,,,,,,,,,,,,001,50,2020_Jan_30_1514,spring_faces,3.1.5,59.996196721594416,
condition files/Stage0a.xlsx,0a,alpha,none,h,"['h', 'g']","['Chess', 'Go']","[0, 0.5]","[0, 0]",1,0,0,3,3,3,0,0,0,0,,,,,,,,,,,,,,,,,,,,,,,,,,,,,,,,,,,,,,,,,,,,,,,,,,,,,,,,,,,,,,,1093.8520774789977,None,1093.8520774789977,None,1093.8520774789977,None,h,1,0.8437137880027876,1095.3860291359997,None,1095.3860291359997,None,1095.3860291359997,None,1096.285613289001,None,1096.285613289001,None,1096.285613289001,None,1096.285613289001,None,,,,,,,,,,,,,,,,,,,,,,,,,,,,,,,,,,,,,,,,,,,,001,50,2020_Jan_30_1514,spring_faces,3.1.5,59.996196721594416,
condition files/Stage0a.xlsx,0a,beta,none,g,"['h', 'g']","['Chess', 'Go']","[0, 0.5]","[0, 0]",1,0,0,3,3,3,0,1,1,1,,,,,,,,,,,,,,,,,,,,,,,,,,,,,,,,,,,,,,,,,,,,,,,,,,,,,,,,,,,,,,,1098.2521854019978,None,1098.2521854019978,None,1098.2521854019978,None,g,1,0.5557335869998496,1099.7859657900008,None,1099.7859657900008,None,1099.7859657900008,None,1100.4021538039997,None,1100.4021538039997,None,1100.4021538039997,None,1100.4021538039997,None,,,,,,,,,,,,,,,,,,,,,,,,,,,,,,,,,,,,,,,,,,,,001,50,2020_Jan_30_1514,spring_faces,3.1.5,59.996196721594416,
condition files/Stage0a.xlsx,0a,alpha,none,h,"['h', 'g']","['Chess', 'Go']","[0, 0.5]","[0, 0]",1,0,0,4,4,4,0,0,0,0,,,,,,,,,,,,,,,,,,,,,,,,,,,,,,,,,,,,,,,,,,,,,,,,,,,,,,,,,,,,,,,1102.3860211339997,None,1102.3860211339997,None,1102.3860211339997,None,h,1,0.2949692119982501,1103.918722833998,None,1103.918722833998,None,1103.918722833998,None,1104.2685833369978,None,1104.2685833369978,None,1104.2685833369978,None,1104.2685833369978,None,,,,,,,,,,,,,,,,,,,,,,,,,,,,,,,,,,,,,,,,,,,,001,50,2020_Jan_30_1514,spring_faces,3.1.5,59.996196721594416,
condition files/Stage0a.xlsx,0a,beta,none,g,"['h', 'g']","['Chess', 'Go']","[0, 0.5]","[0, 0]",1,0,0,4,4,4,0,1,1,1,,,,,,,,,,,,,,,,,,,,,,,,,,,,,,,,,,,,,,,,,,,,,,,,,,,,,,,,,,,,,,,1106.2355039569993,None,1106.2355039569993,None,1106.2355039569993,None,g,1,0.2531265950019588,1107.7685723379982,None,1107.7685723379982,None,1107.7685723379982,None,1108.0855904599994,None,1108.0855904599994,None,1108.0855904599994,None,1108.0855904599994,None,,,,,,,,,,,,,,,,,,,,,,,,,,,,,,,,,,,,,,,,,,,,001,50,2020_Jan_30_1514,spring_faces,3.1.5,59.996196721594416,
condition files/Stage0a.xlsx,0a,alpha,none,h,"['h', 'g']","['Chess', 'Go']","[0, 0.5]","[0, 0]",1,0,0,5,5,5,0,0,0,0,,,,,,,,,,,,,,,,,,,,,,,,,,,,,,,,,,,,,,,,,,,,,,,,,,,,,,,,,,,,,,,1110.069167138001,None,1110.069167138001,None,1110.069167138001,None,h,1,0.5635803179975483,1111.602287537,None,1111.602287537,None,1111.602287537,None,1112.2186680429986,None,1112.2186680429986,None,1112.2186680429986,None,1112.2186680429986,None,,,,,,,,,,,,,,,,,,,,,,,,,,,,,,,,,,,,,,,,,,,,001,50,2020_Jan_30_1514,spring_faces,3.1.5,59.996196721594416,
condition files/Stage0a.xlsx,0a,beta,none,g,"['h', 'g']","['Chess', 'Go']","[0, 0.5]","[0, 0]",1,0,0,5,5,5,0,1,1,1,,,,,,,,,,,,,,,,,,,,,,,,,,,,,,,,,,,,,,,,,,,,,,,,,,,,,,,,,,,,,,,1114.1855985959992,None,1114.1855985959992,None,1114.1855985959992,None,g,1,0.4783133960008854,1115.7193795979983,None,1115.7193795979983,None,1115.7193795979983,None,1116.2516512729999,None,1116.2516512729999,None,1116.2516512729999,None,1116.2516512729999,None,,,,,,,,,,,,,,,,,,,,,,,,,,,,,,,,,,,,,,,,,,,,001,50,2020_Jan_30_1514,spring_faces,3.1.5,59.996196721594416,
condition files/Stage0b_1.xlsx,0b,alpha,none,h,"['h', 'g']","['Chess', 'Go']","[-0.15, 0.5]","[0.15, 0.5]",1,0,0,6,6,6,0,0,0,0,,,,,,,,,,,,,,,,,,,,,,,,,,,,,,,,,,,,,,,,,,,,,,,,,,,,,,,,,,,,,,,1118.2360014689984,None,1118.2360014689984,None,1118.2360014689984,None,h,1,2.6527352909979527,1119.768971073001,None,1119.768971073001,None,1119.768971073001,None,1122.485807989,None,1122.485807989,None,1122.485807989,None,1122.485807989,None,,,,,,,,,,,,,,,,,,,,,,,,,,,,,,,,,,,,,,,,,,,,001,50,2020_Jan_30_1514,spring_faces,3.1.5,59.996196721594416,
condition files/Stage0b_1.xlsx,0b,none,beta,g,"['h', 'g']","['Chess', 'Go']","[-0.15, 0.5]","[0.15, 0.5]",0,1,0,6,6,6,0,1,1,1,,,,,,,,,,,,,,,,,,,,,,,,,,,,,,,,,,,,,,,,,,,,,,,,,,,,,,,,,,,,,,,1124.4523793519984,None,1124.4523793519984,None,1124.4523793519984,None,g,1,0.6718609340023249,1125.9898913319994,None,1125.9898913319994,None,1125.9898913319994,None,1126.7234295919989,None,1126.7234295919989,None,1126.7234295919989,None,1126.7234295919989,None,,,,,,,,,,,,,,,,,,,,,,,,,,,,,,,,,,,,,,,,,,,,001,50,2020_Jan_30_1514,spring_faces,3.1.5,59.996196721594416,
condition files/Stage0b_2.xlsx,0b,none,alpha,h,"['h', 'g']","['Chess', 'Go']","[-0.15, 0.5]","[0.15, 0.5]",0,1,0,7,7,7,0,0,0,0,,,,,,,,,,,,,,,,,,,,,,,,,,,,,,,,,,,,,,,,,,,,,,,,,,,,,,,,,,,,,,,1128.701708689001,None,1128.701708689001,None,1128.701708689001,None,g,0,1.7062049659980403,1130.2355105530005,None,1130.2355105530005,None,1130.2355105530005,None,1132.0023149529989,None,1132.0023149529989,None,1132.0023149529989,None,1132.0023149529989,None,,,,,,,,,,,,,,,,,,,,,,,,,,,,,,,,,,,,,,,,,,,,001,50,2020_Jan_30_1514,spring_faces,3.1.5,59.996196721594416,
condition files/Stage0b_2.xlsx,0b,beta,none,g,"['h', 'g']","['Chess', 'Go']","[-0.15, 0.5]","[0.15, 0.5]",1,0,0,7,7,7,0,1,1,1,,,,,,,,,,,,,,,,,,,,,,,,,,,,,,,,,,,,,,,,,,,,,,,,,,,,,,,,,,,,,,,1133.9689074119997,None,1133.9689074119997,None,1133.9689074119997,None,g,1,0.9513417909984128,1135.518274195998,None,1135.518274195998,None,1135.518274195998,None,1136.5247240120007,None,1136.5247240120007,None,1136.5247240120007,None,1136.5247240120007,None,,,,,,,,,,,,,,,,,,,,,,,,,,,,,,,,,,,,,,,,,,,,001,50,2020_Jan_30_1514,spring_faces,3.1.5,59.996196721594416,
condition files/Stage0b_1.xlsx,0b,alpha,none,h,"['h', 'g']","['Chess', 'Go']","[-0.15, 0.5]","[0.15, 0.5]",1,0,0,8,8,8,0,0,0,0,,,,,,,,,,,,,,,,,,,,,,,,,,,,,,,,,,,,,,,,,,,,,,,,,,,,,,,,,,,,,,,1138.5024539080005,None,1138.5024539080005,None,1138.5024539080005,None,h,1,0.8498744110002008,1140.0357995899976,None,1140.0357995899976,None,1140.0357995899976,None,1140.9360538119981,None,1140.9360538119981,None,1140.9360538119981,None,1140.9360538119981,None,,,,,,,,,,,,,,,,,,,,,,,,,,,,,,,,,,,,,,,,,,,,001,50,2020_Jan_30_1514,spring_faces,3.1.5,59.996196721594416,
condition files/Stage0b_1.xlsx,0b,none,beta,g,"['h', 'g']","['Chess', 'Go']","[-0.15, 0.5]","[0.15, 0.5]",0,1,0,8,8,8,0,1,1,1,,,,,,,,,,,,,,,,,,,,,,,,,,,,,,,,,,,,,,,,,,,,,,,,,,,,,,,,,,,,,,,1142.902264526998,None,1142.902264526998,None,1142.902264526998,None,g,1,0.5586628069977451,1144.4390314189986,None,1144.4390314189986,None,1144.4390314189986,None,1145.0692901479997,None,1145.0692901479997,None,1145.0692901479997,None,1145.0692901479997,None,,,,,,,,,,,,,,,,,,,,,,,,,,,,,,,,,,,,,,,,,,,,001,50,2020_Jan_30_1514,spring_faces,3.1.5,59.996196721594416,
condition files/Stage0b_2.xlsx,0b,none,alpha,h,"['h', 'g']","['Chess', 'Go']","[-0.15, 0.5]","[0.15, 0.5]",0,1,0,9,9,9,0,0,0,0,,,,,,,,,,,,,,,,,,,,,,,,,,,,,,,,,,,,,,,,,,,,,,,,,,,,,,,,,,,,,,,1147.0358569599994,None,1147.0358569599994,None,1147.0358569599994,None,h,1,0.9568128339997202,1148.5689156129993,None,1148.5689156129993,None,1148.5689156129993,None,1149.585142074,None,1149.585142074,None,1149.585142074,None,1149.585142074,None,,,,,,,,,,,,,,,,,,,,,,,,,,,,,,,,,,,,,,,,,,,,001,50,2020_Jan_30_1514,spring_faces,3.1.5,59.996196721594416,
condition files/Stage0b_2.xlsx,0b,beta,none,g,"['h', 'g']","['Chess', 'Go']","[-0.15, 0.5]","[0.15, 0.5]",1,0,0,9,9,9,0,1,1,1,,,,,,,,,,,,,,,,,,,,,,,,,,,,,,,,,,,,,,,,,,,,,,,,,,,,,,,,,,,,,,,1151.552290536998,None,1151.552290536998,None,1151.552290536998,None,g,1,0.5319543100013107,1153.089752030999,None,1153.089752030999,None,1153.089752030999,None,1153.6876728429997,None,1153.6876728429997,None,1153.6876728429997,None,1153.6876728429997,None,,,,,,,,,,,,,,,,,,,,,,,,,,,,,,,,,,,,,,,,,,,,001,50,2020_Jan_30_1514,spring_faces,3.1.5,59.996196721594416,
condition files/Stage0b_1.xlsx,0b,none,beta,g,"['h', 'g']","['Chess', 'Go']","[-0.15, 0.5]","[0.15, 0.5]",0,1,0,10,10,10,0,0,0,1,,,,,,,,,,,,,,,,,,,,,,,,,,,,,,,,,,,,,,,,,,,,,,,,,,,,,,,,,,,,,,,1155.668619136999,None,1155.668619136999,None,1155.668619136999,None,g,1,1.5828160910023144,1157.2068724300007,None,1157.2068724300007,None,1157.2068724300007,None,1158.8524897149982,None,1158.8524897149982,None,1158.8524897149982,None,1158.8524897149982,None,,,,,,,,,,,,,,,,,,,,,,,,,,,,,,,,,,,,,,,,,,,,001,50,2020_Jan_30_1514,spring_faces,3.1.5,59.996196721594416,
condition files/Stage0b_1.xlsx,0b,alpha,none,h,"['h', 'g']","['Chess', 'Go']","[-0.15, 0.5]","[0.15, 0.5]",1,0,0,10,10,10,0,1,1,0,,,,,,,,,,,,,,,,,,,,,,,,,,,,,,,,,,,,,,,,,,,,,,,,,,,,,,,,,,,,,,,1160.8188723819985,None,1160.8188723819985,None,1160.8188723819985,None,h,1,0.5770259169985366,1162.356662140999,None,1162.356662140999,None,1162.356662140999,None,1162.9913803279997,None,1162.9913803279997,None,1162.9913803279997,None,1162.9913803279997,None,,,,,,,,,,,,,,,,,,,,,,,,,,,,,,,,,,,,,,,,,,,,001,50,2020_Jan_30_1514,spring_faces,3.1.5,59.996196721594416,
condition files/Stage0b_2.xlsx,0b,none,alpha,h,"['h', 'g']","['Chess', 'Go']","[-0.15, 0.5]","[0.15, 0.5]",0,1,0,11,11,11,0,0,0,0,,,,,,,,,,,,,,,,,,,,,,,,,,,,,,,,,,,,,,,,,,,,,,,,,,,,,,,,,,,,,,,1164.9688048940006,None,1164.9688048940006,None,1164.9688048940006,None,h,1,1.5336720199993579,1166.5040384860004,None,1166.5040384860004,None,1166.5040384860004,None,1168.101807993,None,1168.101807993,None,1168.101807993,None,1168.101807993,None,,,,,,,,,,,,,,,,,,,,,,,,,,,,,,,,,,,,,,,,,,,,001,50,2020_Jan_30_1514,spring_faces,3.1.5,59.996196721594416,
condition files/Stage0b_2.xlsx,0b,beta,none,g,"['h', 'g']","['Chess', 'Go']","[-0.15, 0.5]","[0.15, 0.5]",1,0,0,11,11,11,0,1,1,1,,,,,,,,,,,,,,,,,,,,,,,,,,,,,,,,,,,,,,,,,,,,,,,,,,,,,,,,,,,,,,,1170.0690794209986,None,1170.0690794209986,None,1170.0690794209986,None,g,1,0.4800328509991232,1171.6056638869995,None,1171.6056638869995,None,1171.6056638869995,None,1172.1372154839992,None,1172.1372154839992,None,1172.1372154839992,None,1172.1372154839992,None,,,,,,,,,,,,,,,,,,,,,,,,,,,,,,,,,,,,,,,,,,,,001,50,2020_Jan_30_1514,spring_faces,3.1.5,59.996196721594416,
condition files/Stage0c_1.xlsx,0c,beta,theta,g,"['h', 'g']","['Chess', 'Go']","[-0.15, 0.5]","[0.15, 0.5]",1,1,0,12,12,12,0,0,0,2,,,,,,,,,,,,,,,,,,,,,,,,,,,,,,,,,,,,,,,,,,,,,,,,,,,,,,,,,,,,,,,1174.1191308550005,None,1174.1191308550005,None,1174.1191308550005,None,g,1,2.1772800350008765,1175.6524109189995,None,1175.6524109189995,None,1175.6524109189995,None,1177.8851903600007,None,1177.8851903600007,None,1177.8851903600007,None,1177.8851903600007,None,,,,,,,,,,,,,,,,,,,,,,,,,,,,,,,,,,,,,,,,,,,,001,50,2020_Jan_30_1514,spring_faces,3.1.5,59.996196721594416,
condition files/Stage0c_1.xlsx,0c,phi,beta,g,"['h', 'g']","['Chess', 'Go']","[-0.15, 0.5]","[0.15, 0.5]",1,1,0,12,12,12,0,1,1,3,,,,,,,,,,,,,,,,,,,,,,,,,,,,,,,,,,,,,,,,,,,,,,,,,,,,,,,,,,,,,,,1179.8521778930008,None,1179.8521778930008,None,1179.8521778930008,None,g,1,2.076050067000324,1181.3856957099997,None,1181.3856957099997,None,1181.3856957099997,None,1183.5189752139995,None,1183.5189752139995,None,1183.5189752139995,None,1183.5189752139995,None,,,,,,,,,,,,,,,,,,,,,,,,,,,,,,,,,,,,,,,,,,,,001,50,2020_Jan_30_1514,spring_faces,3.1.5,59.996196721594416,
condition files/Stage0c_1.xlsx,0c,alpha,phi,h,"['h', 'g']","['Chess', 'Go']","[-0.15, 0.5]","[0.15, 0.5]",1,1,0,12,12,12,0,2,2,1,,,,,,,,,,,,,,,,,,,,,,,,,,,,,,,,,,,,,,,,,,,,,,,,,,,,,,,,,,,,,,,1185.485186842001,None,1185.485186842001,None,1185.485186842001,None,h,1,1.1145558499993058,1187.0191078959979,None,1187.0191078959979,None,1187.0191078959979,None,1188.1862946939982,None,1188.1862946939982,None,1188.1862946939982,None,1188.1862946939982,None,,,,,,,,,,,,,,,,,,,,,,,,,,,,,,,,,,,,,,,,,,,,001,50,2020_Jan_30_1514,spring_faces,3.1.5,59.996196721594416,
condition files/Stage0c_1.xlsx,0c,theta,alpha,h,"['h', 'g']","['Chess', 'Go']","[-0.15, 0.5]","[0.15, 0.5]",1,1,0,12,12,12,0,3,3,0,,,,,,,,,,,,,,,,,,,,,,,,,,,,,,,,,,,,,,,,,,,,,,,,,,,,,,,,,,,,,,,1190.151707435998,None,1190.151707435998,None,1190.151707435998,None,h,1,2.5921006469980057,1191.6856389489985,None,1191.6856389489985,None,1191.6856389489985,None,1194.3358710249995,None,1194.3358710249995,None,1194.3358710249995,None,1194.3358710249995,None,,,,,,,,,,,,,,,,,,,,,,,,,,,,,,,,,,,,,,,,,,,,001,50,2020_Jan_30_1514,spring_faces,3.1.5,59.996196721594416,
condition files/Stage0c_2.xlsx,0c,alpha,theta,h,"['h', 'g']","['Chess', 'Go']","[-0.15, 0.5]","[0.15, 0.5]",1,1,0,13,13,13,0,0,0,0,,,,,,,,,,,,,,,,,,,,,,,,,,,,,,,,,,,,,,,,,,,,,,,,,,,,,,,,,,,,,,,1196.319243214999,None,1196.319243214999,None,1196.319243214999,None,h,1,2.3937335470000107,1197.8520069629994,None,1197.8520069629994,None,1197.8520069629994,None,1200.287692668,None,1200.287692668,None,1200.287692668,None,1200.287692668,None,,,,,,,,,,,,,,,,,,,,,,,,,,,,,,,,,,,,,,,,,,,,001,50,2020_Jan_30_1514,spring_faces,3.1.5,59.996196721594416,
condition files/Stage0c_2.xlsx,0c,beta,phi,g,"['h', 'g']","['Chess', 'Go']","[-0.15, 0.5]","[0.15, 0.5]",1,1,0,13,13,13,0,1,1,3,,,,,,,,,,,,,,,,,,,,,,,,,,,,,,,,,,,,,,,,,,,,,,,,,,,,,,,,,,,,,,,1202.2683136159976,None,1202.2683136159976,None,1202.2683136159976,None,g,1,1.3711975510013872,1203.8025010269994,None,1203.8025010269994,None,1203.8025010269994,None,1205.2352072169997,None,1205.2352072169997,None,1205.2352072169997,None,1205.2352072169997,None,,,,,,,,,,,,,,,,,,,,,,,,,,,,,,,,,,,,,,,,,,,,001,50,2020_Jan_30_1514,spring_faces,3.1.5,59.996196721594416,
condition files/Stage0c_2.xlsx,0c,phi,alpha,h,"['h', 'g']","['Chess', 'Go']","[-0.15, 0.5]","[0.15, 0.5]",1,1,0,13,13,13,0,2,2,1,,,,,,,,,,,,,,,,,,,,,,,,,,,,,,,,,,,,,,,,,,,,,,,,,,,,,,,,,,,,,,,1207.2022705479976,None,1207.2022705479976,None,1207.2022705479976,None,h,1,1.0138653079993674,1208.735808385998,None,1208.735808385998,None,1208.735808385998,None,1209.8022093750005,None,1209.8022093750005,None,1209.8022093750005,None,1209.8022093750005,None,,,,,,,,,,,,,,,,,,,,,,,,,,,,,,,,,,,,,,,,,,,,001,50,2020_Jan_30_1514,spring_faces,3.1.5,59.996196721594416,
condition files/Stage0c_2.xlsx,0c,theta,beta,g,"['h', 'g']","['Chess', 'Go']","[-0.15, 0.5]","[0.15, 0.5]",1,1,0,13,13,13,0,3,3,2,,,,,,,,,,,,,,,,,,,,,,,,,,,,,,,,,,,,,,,,,,,,,,,,,,,,,,,,,,,,,,,1211.768426835999,None,1211.768426835999,None,1211.768426835999,None,g,1,0.9752185219986131,1213.3025193489993,None,1213.3025193489993,None,1213.3025193489993,None,1214.3355026789977,None,1214.3355026789977,None,1214.3355026789977,None,1214.3355026789977,None,,,,,,,,,,,,,,,,,,,,,,,,,,,,,,,,,,,,,,,,,,,,001,50,2020_Jan_30_1514,spring_faces,3.1.5,59.996196721594416,
condition files/Stage0c_1.xlsx,0c,alpha,phi,h,"['h', 'g']","['Chess', 'Go']","[-0.15, 0.5]","[0.15, 0.5]",1,1,0,14,14,14,0,0,0,1,,,,,,,,,,,,,,,,,,,,,,,,,,,,,,,,,,,,,,,,,,,,,,,,,,,,,,,,,,,,,,,1216.318870832998,None,1216.318870832998,None,1216.318870832998,None,g,0,0.5056069060010486,1217.8520945739983,None,1217.8520945739983,None,1217.8520945739983,None,1218.4184953719996,None,1218.4184953719996,None,1218.4184953719996,None,1218.4184953719996,None,,,,,,,,,,,,,,,,,,,,,,,,,,,,,,,,,,,,,,,,,,,,001,50,2020_Jan_30_1514,spring_faces,3.1.5,59.996196721594416,
condition files/Stage0c_1.xlsx,0c,theta,alpha,h,"['h', 'g']","['Chess', 'Go']","[-0.15, 0.5]","[0.15, 0.5]",1,1,0,14,14,14,0,1,1,0,,,,,,,,,,,,,,,,,,,,,,,,,,,,,,,,,,,,,,,,,,,,,,,,,,,,,,,,,,,,,,,1220.3856557010004,None,1220.3856557010004,None,1220.3856557010004,None,g,0,0.6624522780002735,1221.9192029799997,None,1221.9192029799997,None,1221.9192029799997,None,1222.6208379880009,None,1222.6208379880009,None,1222.6208379880009,None,1222.6208379880009,None,,,,,,,,,,,,,,,,,,,,,,,,,,,,,,,,,,,,,,,,,,,,001,50,2020_Jan_30_1514,spring_faces,3.1.5,59.996196721594416,
condition files/Stage0c_1.xlsx,0c,beta,theta,g,"['h', 'g']","['Chess', 'Go']","[-0.15, 0.5]","[0.15, 0.5]",1,1,0,14,14,14,0,2,2,2,,,,,,,,,,,,,,,,,,,,,,,,,,,,,,,,,,,,,,,,,,,,,,,,,,,,,,,,,,,,,,,1224.6020453380006,None,1224.6020453380006,None,1224.6020453380006,None,g,1,0.6064553150026768,1226.135239209998,None,1226.135239209998,None,1226.135239209998,None,1226.8025770989989,None,1226.8025770989989,None,1226.8025770989989,None,1226.8025770989989,None,,,,,,,,,,,,,,,,,,,,,,,,,,,,,,,,,,,,,,,,,,,,001,50,2020_Jan_30_1514,spring_faces,3.1.5,59.996196721594416,
condition files/Stage0c_1.xlsx,0c,phi,beta,g,"['h', 'g']","['Chess', 'Go']","[-0.15, 0.5]","[0.15, 0.5]",1,1,0,14,14,14,0,3,3,3,,,,,,,,,,,,,,,,,,,,,,,,,,,,,,,,,,,,,,,,,,,,,,,,,,,,,,,,,,,,,,,1228.7858916229998,None,1228.7858916229998,None,1228.7858916229998,None,h,0,0.9511973529988609,1230.302441628999,None,1230.302441628999,None,1230.302441628999,None,1231.3052933840008,None,1231.3052933840008,None,1231.3052933840008,None,1231.3052933840008,None,,,,,,,,,,,,,,,,,,,,,,,,,,,,,,,,,,,,,,,,,,,,001,50,2020_Jan_30_1514,spring_faces,3.1.5,59.996196721594416,
condition files/Stage0c_2.xlsx,0c,phi,alpha,h,"['h', 'g']","['Chess', 'Go']","[-0.15, 0.5]","[0.15, 0.5]",1,1,0,15,15,15,0,0,0,1,,,,,,,,,,,,,,,,,,,,,,,,,,,,,,,,,,,,,,,,,,,,,,,,,,,,,,,,,,,,,,,1233.302573082001,None,1233.302573082001,None,1233.302573082001,None,h,1,1.8738457530016603,1234.8358984160004,None,1234.8358984160004,None,1234.8358984160004,None,1236.769110972,None,1236.769110972,None,1236.769110972,None,1236.769110972,None,,,,,,,,,,,,,,,,,,,,,,,,,,,,,,,,,,,,,,,,,,,,001,50,2020_Jan_30_1514,spring_faces,3.1.5,59.996196721594416,
condition files/Stage0c_2.xlsx,0c,beta,phi,g,"['h', 'g']","['Chess', 'Go']","[-0.15, 0.5]","[0.15, 0.5]",1,1,0,15,15,15,0,1,1,3,,,,,,,,,,,,,,,,,,,,,,,,,,,,,,,,,,,,,,,,,,,,,,,,,,,,,,,,,,,,,,,1238.7360004869988,None,1238.7360004869988,None,1238.7360004869988,None,g,1,0.8565243999983068,1240.269123310998,None,1240.269123310998,None,1240.269123310998,None,1241.1852317449993,None,1241.1852317449993,None,1241.1852317449993,None,1241.1852317449993,None,,,,,,,,,,,,,,,,,,,,,,,,,,,,,,,,,,,,,,,,,,,,001,50,2020_Jan_30_1514,spring_faces,3.1.5,59.996196721594416,
condition files/Stage0c_2.xlsx,0c,theta,beta,g,"['h', 'g']","['Chess', 'Go']","[-0.15, 0.5]","[0.15, 0.5]",1,1,0,15,15,15,0,2,2,2,,,,,,,,,,,,,,,,,,,,,,,,,,,,,,,,,,,,,,,,,,,,,,,,,,,,,,,,,,,,,,,1243.152319113,None,1243.152319113,None,1243.152319113,None,g,1,0.8077397189990734,1244.6860064369976,None,1244.6860064369976,None,1244.6860064369976,None,1245.5366542359989,None,1245.5366542359989,None,1245.5366542359989,None,1245.5366542359989,None,,,,,,,,,,,,,,,,,,,,,,,,,,,,,,,,,,,,,,,,,,,,001,50,2020_Jan_30_1514,spring_faces,3.1.5,59.996196721594416,
condition files/Stage0c_2.xlsx,0c,alpha,theta,h,"['h', 'g']","['Chess', 'Go']","[-0.15, 0.5]","[0.15, 0.5]",1,1,0,15,15,15,0,3,3,0,,,,,,,,,,,,,,,,,,,,,,,,,,,,,,,,,,,,,,,,,,,,,,,,,,,,,,,,,,,,,,,1247.518958869001,None,1247.518958869001,None,1247.518958869001,None,g,0,0.7291394969979592,1249.0525417339995,None,1249.0525417339995,None,1249.0525417339995,None,1249.8358021549975,None,1249.8358021549975,None,1249.8358021549975,None,1249.8358021549975,None,,,,,,,,,,,,,,,,,,,,,,,,,,,,,,,,,,,,,,,,,,,,001,50,2020_Jan_30_1514,spring_faces,3.1.5,59.996196721594416,
condition files/Stage0c_1.xlsx,0c,theta,alpha,h,"['h', 'g']","['Chess', 'Go']","[-0.15, 0.5]","[0.15, 0.5]",1,1,0,16,16,16,0,0,0,0,,,,,,,,,,,,,,,,,,,,,,,,,,,,,,,,,,,,,,,,,,,,,,,,,,,,,,,,,,,,,,,1251.819124403999,None,1251.819124403999,None,1251.819124403999,None,h,1,1.2611826360007399,1253.3524979180002,None,1253.3524979180002,None,1253.3524979180002,None,1254.6550379639993,None,1254.6550379639993,None,1254.6550379639993,None,1254.6550379639993,None,,,,,,,,,,,,,,,,,,,,,,,,,,,,,,,,,,,,,,,,,,,,001,50,2020_Jan_30_1514,spring_faces,3.1.5,59.996196721594416,
condition files/Stage0c_1.xlsx,0c,phi,beta,g,"['h', 'g']","['Chess', 'Go']","[-0.15, 0.5]","[0.15, 0.5]",1,1,0,16,16,16,0,1,1,3,,,,,,,,,,,,,,,,,,,,,,,,,,,,,,,,,,,,,,,,,,,,,,,,,,,,,,,,,,,,,,,1256.6355984670008,None,1256.6355984670008,None,1256.6355984670008,None,g,1,1.308569215998432,1258.1691689,None,1258.1691689,None,1258.1691689,None,1259.5359762799999,None,1259.5359762799999,None,1259.5359762799999,None,1259.5359762799999,None,,,,,,,,,,,,,,,,,,,,,,,,,,,,,,,,,,,,,,,,,,,,001,50,2020_Jan_30_1514,spring_faces,3.1.5,59.996196721594416,
condition files/Stage0c_1.xlsx,0c,alpha,phi,h,"['h', 'g']","['Chess', 'Go']","[-0.15, 0.5]","[0.15, 0.5]",1,1,0,16,16,16,0,2,2,1,,,,,,,,,,,,,,,,,,,,,,,,,,,,,,,,,,,,,,,,,,,,,,,,,,,,,,,,,,,,,,,1261.5027361430002,None,1261.5027361430002,None,1261.5027361430002,None,g,0,0.9218943349987967,1263.0357913970001,None,1263.0357913970001,None,1263.0357913970001,None,1264.0186773489986,None,1264.0186773489986,None,1264.0186773489986,None,1264.0186773489986,None,,,,,,,,,,,,,,,,,,,,,,,,,,,,,,,,,,,,,,,,,,,,001,50,2020_Jan_30_1514,spring_faces,3.1.5,59.996196721594416,
condition files/Stage0c_1.xlsx,0c,beta,theta,g,"['h', 'g']","['Chess', 'Go']","[-0.15, 0.5]","[0.15, 0.5]",1,1,0,16,16,16,0,3,3,2,,,,,,,,,,,,,,,,,,,,,,,,,,,,,,,,,,,,,,,,,,,,,,,,,,,,,,,,,,,,,,,1265.985548206001,None,1265.985548206001,None,1265.985548206001,None,g,1,0.6623527100018691,1267.5193311229996,None,1267.5193311229996,None,1267.5193311229996,None,1268.2354904959975,None,1268.2354904959975,None,1268.2354904959975,None,1268.2354904959975,None,,,,,,,,,,,,,,,,,,,,,,,,,,,,,,,,,,,,,,,,,,,,001,50,2020_Jan_30_1514,spring_faces,3.1.5,59.996196721594416,
condition files/Stage0c_2.xlsx,0c,beta,phi,g,"['h', 'g']","['Chess', 'Go']","[-0.15, 0.5]","[0.15, 0.5]",1,1,0,17,17,17,0,0,0,3,,,,,,,,,,,,,,,,,,,,,,,,,,,,,,,,,,,,,,,,,,,,,,,,,,,,,,,,,,,,,,,1270.2194368109995,None,1270.2194368109995,None,1270.2194368109995,None,g,1,2.029137466000975,1271.7525255449982,None,1271.7525255449982,None,1271.7525255449982,None,1273.8209336799991,None,1273.8209336799991,None,1273.8209336799991,None,1273.8209336799991,None,,,,,,,,,,,,,,,,,,,,,,,,,,,,,,,,,,,,,,,,,,,,001,50,2020_Jan_30_1514,spring_faces,3.1.5,59.996196721594416,
condition files/Stage0c_2.xlsx,0c,phi,alpha,h,"['h', 'g']","['Chess', 'Go']","[-0.15, 0.5]","[0.15, 0.5]",1,1,0,17,17,17,0,1,1,1,,,,,,,,,,,,,,,,,,,,,,,,,,,,,,,,,,,,,,,,,,,,,,,,,,,,,,,,,,,,,,,1275.8021979529985,None,1275.8021979529985,None,1275.8021979529985,None,h,1,2.269834214999719,1277.3359111809987,None,1277.3359111809987,None,1277.3359111809987,None,1279.6691848240007,None,1279.6691848240007,None,1279.6691848240007,None,1279.6691848240007,None,,,,,,,,,,,,,,,,,,,,,,,,,,,,,,,,,,,,,,,,,,,,001,50,2020_Jan_30_1514,spring_faces,3.1.5,59.996196721594416,
condition files/Stage0c_2.xlsx,0c,theta,beta,g,"['h', 'g']","['Chess', 'Go']","[-0.15, 0.5]","[0.15, 0.5]",1,1,0,17,17,17,0,2,2,2,,,,,,,,,,,,,,,,,,,,,,,,,,,,,,,,,,,,,,,,,,,,,,,,,,,,,,,,,,,,,,,1281.6355982979985,None,1281.6355982979985,None,1281.6355982979985,None,g,1,1.8926357300006202,1283.169126263998,None,1283.169126263998,None,1283.169126263998,None,1285.119670944001,None,1285.119670944001,None,1285.119670944001,None,1285.119670944001,None,,,,,,,,,,,,,,,,,,,,,,,,,,,,,,,,,,,,,,,,,,,,001,50,2020_Jan_30_1514,spring_faces,3.1.5,59.996196721594416,
condition files/Stage0c_2.xlsx,0c,alpha,theta,h,"['h', 'g']","['Chess', 'Go']","[-0.15, 0.5]","[0.15, 0.5]",1,1,0,17,17,17,0,3,3,0,,,,,,,,,,,,,,,,,,,,,,,,,,,,,,,,,,,,,,,,,,,,,,,,,,,,,,,,,,,,,,,1287.085302596999,None,1287.085302596999,None,1287.085302596999,None,g,0,0.8752205620003224,1288.6185242749998,None,1288.6185242749998,None,1288.6185242749998,None,1289.5526373030007,None,1289.5526373030007,None,1289.5526373030007,None,1289.5526373030007,None,,,,,,,,,,,,,,,,,,,,,,,,,,,,,,,,,,,,,,,,,,,,001,50,2020_Jan_30_1514,spring_faces,3.1.5,59.996196721594416,
,,,,,,,,,,,,,,,,,,,,,,,,,,,,,,,,,,,,,,,,,,,,,,,,,,,,,,,,,,,,,,,,,,,,,,,,,,,,,,,,,,,,,,,,,,,,,,,,,,,,,,,,1291.5358771009996,None,space,3.2941618119984923,1296.535604351,None,,,,,,,,,,,,,,,,,,,,,,,,,,,,,,,,,,,,,,001,50,2020_Jan_30_1514,spring_faces,3.1.5,59.996196721594416,
condition files/Stage1_1.xlsx,,B4,T4,m,"['c', 'm']","['Clue', 'Monopoly']","[-0.15, 0.5]","[0.15, 0.5]",1,1,,,,,,,,,0,0,0,0,0,0,0,7,,,,,,,,,,,,,,,,,,,,,,,,,,,,,,,,,,,,,,,,,,,,,,,,,,,,,,,1299.8853821459998,None,1299.8853821459998,None,1299.8853821459998,None,c,0,1.5306347020014073,1301.4190526069979,None,1301.4190526069979,None,1301.4190526069979,None,1303.019336139998,None,1303.019336139998,None,1303.019336139998,None,1303.019336139998,None,,,,,,,1296.535604351,None,,,,,,,,,,,,,,,,,,,,,,,,,,,,,,,,,,,,001,50,2020_Jan_30_1514,spring_faces,3.1.5,59.996196721594416,
condition files/Stage1_1.xlsx,,B3,T3,c,"['c', 'm']","['Clue', 'Monopoly']","[-0.15, 0.5]","[0.15, 0.5]",1,1,,,,,,,,,0,0,0,0,0,1,1,4,,,,,,,,,,,,,,,,,,,,,,,,,,,,,,,,,,,,,,,,,,,,,,,,,,,,,,,1304.9689305639986,None,1304.9689305639986,None,1304.9689305639986,None,c,1,0.7027153620001627,1306.5029934979975,None,1306.5029934979975,None,1306.5029934979975,None,1307.2703870709993,None,1307.2703870709993,None,1307.2703870709993,None,1307.2703870709993,None,,,,,,,,,,,,,,,,,,,,,,,,,,,,,,,,,,,,,,,,,,,,001,50,2020_Jan_30_1514,spring_faces,3.1.5,59.996196721594416,
condition files/Stage1_1.xlsx,,B1,T2,c,"['c', 'm']","['Clue', 'Monopoly']","[-0.15, 0.5]","[0.15, 0.5]",1,1,,,,,,,,,0,0,0,0,0,2,2,1,,,,,,,,,,,,,,,,,,,,,,,,,,,,,,,,,,,,,,,,,,,,,,,,,,,,,,,1309.2352811579985,None,1309.2352811579985,None,1309.2352811579985,None,m,0,1.8916490000010526,1310.7701204689984,None,1310.7701204689984,None,1310.7701204689984,None,1312.7193503609997,None,1312.7193503609997,None,1312.7193503609997,None,1312.7193503609997,None,,,,,,,,,,,,,,,,,,,,,,,,,,,,,,,,,,,,,,,,,,,,001,50,2020_Jan_30_1514,spring_faces,3.1.5,59.996196721594416,
condition files/Stage1_1.xlsx,,T4,B3,m,"['c', 'm']","['Clue', 'Monopoly']","[-0.15, 0.5]","[0.15, 0.5]",1,1,,,,,,,,,0,0,0,0,0,3,3,6,,,,,,,,,,,,,,,,,,,,,,,,,,,,,,,,,,,,,,,,,,,,,,,,,,,,,,,1314.685025652001,None,1314.685025652001,None,1314.685025652001,None,c,0,1.0823262659978354,1316.2353504649982,None,1316.2353504649982,None,1316.2353504649982,None,1317.3854285050002,None,1317.3854285050002,None,1317.3854285050002,None,1317.3854285050002,None,,,,,,,,,,,,,,,,,,,,,,,,,,,,,,,,,,,,,,,,,,,,001,50,2020_Jan_30_1514,spring_faces,3.1.5,59.996196721594416,
condition files/Stage1_1.xlsx,,T3,B4,c,"['c', 'm']","['Clue', 'Monopoly']","[-0.15, 0.5]","[0.15, 0.5]",1,1,,,,,,,,,0,0,0,0,0,4,4,5,,,,,,,,,,,,,,,,,,,,,,,,,,,,,,,,,,,,,,,,,,,,,,,,,,,,,,,1319.3355533739996,None,1319.3355533739996,None,1319.3355533739996,None,c,1,0.7032243160028884,1320.8704814509983,None,1320.8704814509983,None,1320.8704814509983,None,1321.6374604759985,None,1321.6374604759985,None,1321.6374604759985,None,1321.6374604759985,None,,,,,,,,,,,,,,,,,,,,,,,,,,,,,,,,,,,,,,,,,,,,001,50,2020_Jan_30_1514,spring_faces,3.1.5,59.996196721594416,
condition files/Stage1_1.xlsx,,T2,B2,m,"['c', 'm']","['Clue', 'Monopoly']","[-0.15, 0.5]","[0.15, 0.5]",1,1,,,,,,,,,0,0,0,0,0,5,5,3,,,,,,,,,,,,,,,,,,,,,,,,,,,,,,,,,,,,,,,,,,,,,,,,,,,,,,,1323.6022277939992,None,1323.6022277939992,None,1323.6022277939992,None,m,1,1.4908531189976202,1325.2029006049997,None,1325.2029006049997,None,1325.2029006049997,None,1326.752817411998,None,1326.752817411998,None,1326.752817411998,None,1326.752817411998,None,,,,,,,,,,,,,,,,,,,,,,,,,,,,,,,,,,,,,,,,,,,,001,50,2020_Jan_30_1514,spring_faces,3.1.5,59.996196721594416,
condition files/Stage1_1.xlsx,,T1,B1,c,"['c', 'm']","['Clue', 'Monopoly']","[-0.15, 0.5]","[0.15, 0.5]",1,1,,,,,,,,,0,0,0,0,0,6,6,0,,,,,,,,,,,,,,,,,,,,,,,,,,,,,,,,,,,,,,,,,,,,,,,,,,,,,,,1328.7183848120003,None,1328.7183848120003,None,1328.7183848120003,None,c,1,0.3289103470015107,1330.268730934,None,1330.268730934,None,1330.268730934,None,1330.653825286001,None,1330.653825286001,None,1330.653825286001,None,1330.653825286001,None,,,,,,,,,,,,,,,,,,,,,,,,,,,,,,,,,,,,,,,,,,,,001,50,2020_Jan_30_1514,spring_faces,3.1.5,59.996196721594416,
condition files/Stage1_1.xlsx,,B2,T1,m,"['c', 'm']","['Clue', 'Monopoly']","[-0.15, 0.5]","[0.15, 0.5]",1,1,,,,,,,,,0,0,0,0,0,7,7,2,,,,,,,,,,,,,,,,,,,,,,,,,,,,,,,,,,,,,,,,,,,,,,,,,,,,,,,1332.6186459620003,None,1332.6186459620003,None,1332.6186459620003,None,m,1,0.6362377969999216,1334.1694461879997,None,1334.1694461879997,None,1334.1694461879997,None,1334.8853644359988,None,1334.8853644359988,None,1334.8853644359988,None,1334.8853644359988,None,,,,,,,,,,,,,,,,,,,,,,,,,,,,,,,,,,,,,,,,,,,,001,50,2020_Jan_30_1514,spring_faces,3.1.5,59.996196721594416,
condition files/Stage1_2.xlsx,,B1,T1,c,"['c', 'm']","['Clue', 'Monopoly']","[-0.15, 0.5]","[0.15, 0.5]",1,1,,,,,,,,,0,1,1,1,0,0,0,0,,,,,,,,,,,,,,,,,,,,,,,,,,,,,,,,,,,,,,,,,,,,,,,,,,,,,,,1336.8524758519998,None,1336.8524758519998,None,1336.8524758519998,None,c,1,0.8190889130019059,1338.4026098180002,None,1338.4026098180002,None,1338.4026098180002,None,1339.3020463959983,None,1339.3020463959983,None,1339.3020463959983,None,1339.3020463959983,None,,,,,,,,,,,,,,,,,,,,,,,,,,,,,,,,,,,,,,,,,,,,001,50,2020_Jan_30_1514,spring_faces,3.1.5,59.996196721594416,
condition files/Stage1_2.xlsx,,T2,B1,c,"['c', 'm']","['Clue', 'Monopoly']","[-0.15, 0.5]","[0.15, 0.5]",1,1,,,,,,,,,0,1,1,1,0,1,1,1,,,,,,,,,,,,,,,,,,,,,,,,,,,,,,,,,,,,,,,,,,,,,,,,,,,,,,,1341.2518458979976,None,1341.2518458979976,None,1341.2518458979976,None,c,1,2.721887957002764,1342.787879176998,None,1342.787879176998,None,1342.787879176998,None,1345.5693634359995,None,1345.5693634359995,None,1345.5693634359995,None,1345.5693634359995,None,,,,,,,,,,,,,,,,,,,,,,,,,,,,,,,,,,,,,,,,,,,,001,50,2020_Jan_30_1514,spring_faces,3.1.5,59.996196721594416,
condition files/Stage1_2.xlsx,,T4,B4,m,"['c', 'm']","['Clue', 'Monopoly']","[-0.15, 0.5]","[0.15, 0.5]",1,1,,,,,,,,,0,1,1,1,0,2,2,7,,,,,,,,,,,,,,,,,,,,,,,,,,,,,,,,,,,,,,,,,,,,,,,,,,,,,,,1347.535823148999,None,1347.535823148999,None,1347.535823148999,None,m,1,1.6544783130011638,1349.0712842829998,None,1349.0712842829998,None,1349.0712842829998,None,1350.7876439879983,None,1350.7876439879983,None,1350.7876439879983,None,1350.7876439879983,None,,,,,,,,,,,,,,,,,,,,,,,,,,,,,,,,,,,,,,,,,,,,001,50,2020_Jan_30_1514,spring_faces,3.1.5,59.996196721594416,
condition files/Stage1_2.xlsx,,T1,B2,m,"['c', 'm']","['Clue', 'Monopoly']","[-0.15, 0.5]","[0.15, 0.5]",1,1,,,,,,,,,0,1,1,1,0,3,3,2,,,,,,,,,,,,,,,,,,,,,,,,,,,,,,,,,,,,,,,,,,,,,,,,,,,,,,,1352.7522589729997,None,1352.7522589729997,None,1352.7522589729997,None,c,0,0.48598790200048825,1354.2877229389997,None,1354.2877229389997,None,1354.2877229389997,None,1354.8354481009992,None,1354.8354481009992,None,1354.8354481009992,None,1354.8354481009992,None,,,,,,,,,,,,,,,,,,,,,,,,,,,,,,,,,,,,,,,,,,,,001,50,2020_Jan_30_1514,spring_faces,3.1.5,59.996196721594416,
condition files/Stage1_2.xlsx,,B3,T4,m,"['c', 'm']","['Clue', 'Monopoly']","[-0.15, 0.5]","[0.15, 0.5]",1,1,,,,,,,,,0,1,1,1,0,4,4,6,,,,,,,,,,,,,,,,,,,,,,,,,,,,,,,,,,,,,,,,,,,,,,,,,,,,,,,1356.802346343,None,1356.802346343,None,1356.802346343,None,m,1,0.326485515000968,1358.3351480979982,None,1358.3351480979982,None,1358.3351480979982,None,1358.719161465,None,1358.719161465,None,1358.719161465,None,1358.719161465,None,,,,,,,,,,,,,,,,,,,,,,,,,,,,,,,,,,,,,,,,,,,,001,50,2020_Jan_30_1514,spring_faces,3.1.5,59.996196721594416,
condition files/Stage1_2.xlsx,,B4,T3,c,"['c', 'm']","['Clue', 'Monopoly']","[-0.15, 0.5]","[0.15, 0.5]",1,1,,,,,,,,,0,1,1,1,0,5,5,5,,,,,,,,,,,,,,,,,,,,,,,,,,,,,,,,,,,,,,,,,,,,,,,,,,,,,,,1360.6856069589994,None,1360.6856069589994,None,1360.6856069589994,None,c,1,1.5303094039991265,1362.219383923999,None,1362.219383923999,None,1362.219383923999,None,1363.8190380349988,None,1363.8190380349988,None,1363.8190380349988,None,1363.8190380349988,None,,,,,,,,,,,,,,,,,,,,,,,,,,,,,,,,,,,,,,,,,,,,001,50,2020_Jan_30_1514,spring_faces,3.1.5,59.996196721594416,
condition files/Stage1_2.xlsx,,T3,B3,c,"['c', 'm']","['Clue', 'Monopoly']","[-0.15, 0.5]","[0.15, 0.5]",1,1,,,,,,,,,0,1,1,1,0,6,6,4,,,,,,,,,,,,,,,,,,,,,,,,,,,,,,,,,,,,,,,,,,,,,,,,,,,,,,,1365.7691210960002,None,1365.7691210960002,None,1365.7691210960002,None,c,1,0.8956241899977613,1367.3020843259983,None,1367.3020843259983,None,1367.3020843259983,None,1368.2525002689981,None,1368.2525002689981,None,1368.2525002689981,None,1368.2525002689981,None,,,,,,,,,,,,,,,,,,,,,,,,,,,,,,,,,,,,,,,,,,,,001,50,2020_Jan_30_1514,spring_faces,3.1.5,59.996196721594416,
condition files/Stage1_2.xlsx,,B2,T2,m,"['c', 'm']","['Clue', 'Monopoly']","[-0.15, 0.5]","[0.15, 0.5]",1,1,,,,,,,,,0,1,1,1,0,7,7,3,,,,,,,,,,,,,,,,,,,,,,,,,,,,,,,,,,,,,,,,,,,,,,,,,,,,,,,1370.2185994610008,None,1370.2185994610008,None,1370.2185994610008,None,c,0,1.7558044430006703,1371.7539678020003,None,1371.7539678020003,None,1371.7539678020003,None,1373.568568751998,None,1373.568568751998,None,1373.568568751998,None,1373.568568751998,None,,,,,,,,,,,,,,,,,,,,,,,,,,,,,,,,,,,,,,,,,,,,001,50,2020_Jan_30_1514,spring_faces,3.1.5,59.996196721594416,
condition files/Stage1_1.xlsx,,B1,T2,c,"['c', 'm']","['Clue', 'Monopoly']","[-0.15, 0.5]","[0.15, 0.5]",1,1,,,,,,,,,0,2,2,2,0,0,0,1,,,,,,,,,,,,,,,,,,,,,,,,,,,,,,,,,,,,,,,,,,,,,,,,,,,,,,,1375.5528332879985,None,1375.5528332879985,None,1375.5528332879985,None,c,1,0.9993805659978534,1377.1023126580003,None,1377.1023126580003,None,1377.1023126580003,None,1378.1692016849993,None,1378.1692016849993,None,1378.1692016849993,None,1378.1692016849993,None,,,,,,,,,,,,,,,,,,,,,,,,,,,,,,,,,,,,,,,,,,,,001,50,2020_Jan_30_1514,spring_faces,3.1.5,59.996196721594416,
condition files/Stage1_1.xlsx,,T3,B4,c,"['c', 'm']","['Clue', 'Monopoly']","[-0.15, 0.5]","[0.15, 0.5]",1,1,,,,,,,,,0,2,2,2,0,1,1,5,,,,,,,,,,,,,,,,,,,,,,,,,,,,,,,,,,,,,,,,,,,,,,,,,,,,,,,1380.119076291001,None,1380.119076291001,None,1380.119076291001,None,m,0,0.9121272580014192,1381.6538080579994,None,1381.6538080579994,None,1381.6538080579994,None,1382.6189390539985,None,1382.6189390539985,None,1382.6189390539985,None,1382.6189390539985,None,,,,,,,,,,,,,,,,,,,,,,,,,,,,,,,,,,,,,,,,,,,,001,50,2020_Jan_30_1514,spring_faces,3.1.5,59.996196721594416,
condition files/Stage1_1.xlsx,,T1,B1,c,"['c', 'm']","['Clue', 'Monopoly']","[-0.15, 0.5]","[0.15, 0.5]",1,1,,,,,,,,,0,2,2,2,0,2,2,0,,,,,,,,,,,,,,,,,,,,,,,,,,,,,,,,,,,,,,,,,,,,,,,,,,,,,,,1384.585634621999,None,1384.585634621999,None,1384.585634621999,None,c,1,0.25416336100170156,1386.1355280809985,None,1386.1355280809985,None,1386.1355280809985,None,1386.452556158998,None,1386.452556158998,None,1386.452556158998,None,1386.452556158998,None,,,,,,,,,,,,,,,,,,,,,,,,,,,,,,,,,,,,,,,,,,,,001,50,2020_Jan_30_1514,spring_faces,3.1.5,59.996196721594416,
condition files/Stage1_1.xlsx,,T4,B3,m,"['c', 'm']","['Clue', 'Monopoly']","[-0.15, 0.5]","[0.15, 0.5]",1,1,,,,,,,,,0,2,2,2,0,3,3,6,,,,,,,,,,,,,,,,,,,,,,,,,,,,,,,,,,,,,,,,,,,,,,,,,,,,,,,1388.418989247999,None,1388.418989247999,None,1388.418989247999,None,m,1,1.0137825149977289,1389.9519510419996,None,1389.9519510419996,None,1389.9519510419996,None,1391.035931806,None,1391.035931806,None,1391.035931806,None,1391.035931806,None,,,,,,,,,,,,,,,,,,,,,,,,,,,,,,,,,,,,,,,,,,,,001,50,2020_Jan_30_1514,spring_faces,3.1.5,59.996196721594416,
condition files/Stage1_1.xlsx,,B3,T3,c,"['c', 'm']","['Clue', 'Monopoly']","[-0.15, 0.5]","[0.15, 0.5]",1,1,,,,,,,,,0,2,2,2,0,4,4,4,,,,,,,,,,,,,,,,,,,,,,,,,,,,,,,,,,,,,,,,,,,,,,,,,,,,,,,1392.9852707200007,None,1392.9852707200007,None,1392.9852707200007,None,m,0,1.2444159280021267,1394.521340725998,None,1394.521340725998,None,1394.521340725998,None,1395.819984163998,None,1395.819984163998,None,1395.819984163998,None,1395.819984163998,None,,,,,,,,,,,,,,,,,,,,,,,,,,,,,,,,,,,,,,,,,,,,001,50,2020_Jan_30_1514,spring_faces,3.1.5,59.996196721594416,
condition files/Stage1_1.xlsx,,B2,T1,m,"['c', 'm']","['Clue', 'Monopoly']","[-0.15, 0.5]","[0.15, 0.5]",1,1,,,,,,,,,0,2,2,2,0,5,5,2,,,,,,,,,,,,,,,,,,,,,,,,,,,,,,,,,,,,,,,,,,,,,,,,,,,,,,,1397.7850397410002,None,1397.7850397410002,None,1397.7850397410002,None,m,1,3.4542147430001933,1399.319495292999,None,1399.319495292999,None,1399.319495292999,None,1402.83604957,None,1402.83604957,None,1402.83604957,None,1402.83604957,None,,,,,,,,,,,,,,,,,,,,,,,,,,,,,,,,,,,,,,,,,,,,001,50,2020_Jan_30_1514,spring_faces,3.1.5,59.996196721594416,
condition files/Stage1_1.xlsx,,B4,T4,m,"['c', 'm']","['Clue', 'Monopoly']","[-0.15, 0.5]","[0.15, 0.5]",1,1,,,,,,,,,0,2,2,2,0,6,6,7,,,,,,,,,,,,,,,,,,,,,,,,,,,,,,,,,,,,,,,,,,,,,,,,,,,,,,,1404.8019212020008,None,1404.8019212020008,None,1404.8019212020008,None,c,0,2.9971714959974634,1406.3365292609997,None,1406.3365292609997,None,1406.3365292609997,None,1409.3856355009993,None,1409.3856355009993,None,1409.3856355009993,None,1409.3856355009993,None,,,,,,,,,,,,,,,,,,,,,,,,,,,,,,,,,,,,,,,,,,,,001,50,2020_Jan_30_1514,spring_faces,3.1.5,59.996196721594416,
condition files/Stage1_1.xlsx,,T2,B2,m,"['c', 'm']","['Clue', 'Monopoly']","[-0.15, 0.5]","[0.15, 0.5]",1,1,,,,,,,,,0,2,2,2,0,7,7,3,,,,,,,,,,,,,,,,,,,,,,,,,,,,,,,,,,,,,,,,,,,,,,,,,,,,,,,1411.3517845499991,None,1411.3517845499991,None,1411.3517845499991,None,m,1,1.9827865440020105,1412.902835255998,None,1412.902835255998,None,1412.902835255998,None,1414.9352490689998,None,1414.9352490689998,None,1414.9352490689998,None,1414.9352490689998,None,,,,,,,,,,,,,,,,,,,,,,,,,,,,,,,,,,,,,,,,,,,,001,50,2020_Jan_30_1514,spring_faces,3.1.5,59.996196721594416,
condition files/Stage1_2.xlsx,,B3,T4,m,"['c', 'm']","['Clue', 'Monopoly']","[-0.15, 0.5]","[0.15, 0.5]",1,1,,,,,,,,,0,3,3,3,0,0,0,6,,,,,,,,,,,,,,,,,,,,,,,,,,,,,,,,,,,,,,,,,,,,,,,,,,,,,,,1416.9189746029988,None,1416.9189746029988,None,1416.9189746029988,None,c,0,4.832223189001525,1418.453429543999,None,1418.453429543999,None,1418.453429543999,None,1423.335454095999,None,1423.335454095999,None,1423.335454095999,None,1423.335454095999,None,,,,,,,,,,,,,,,,,,,,,,,,,,,,,,,,,,,,,,,,,,,,001,50,2020_Jan_30_1514,spring_faces,3.1.5,59.996196721594416,
condition files/Stage1_2.xlsx,,T1,B2,m,"['c', 'm']","['Clue', 'Monopoly']","[-0.15, 0.5]","[0.15, 0.5]",1,1,,,,,,,,,0,3,3,3,0,1,1,2,,,,,,,,,,,,,,,,,,,,,,,,,,,,,,,,,,,,,,,,,,,,,,,,,,,,,,,1425.3023112509982,None,1425.3023112509982,None,1425.3023112509982,None,m,1,0.38586713500262704,1426.8358430389999,None,1426.8358430389999,None,1426.8358430389999,None,1427.2857981519992,None,1427.2857981519992,None,1427.2857981519992,None,1427.2857981519992,None,,,,,,,,,,,,,,,,,,,,,,,,,,,,,,,,,,,,,,,,,,,,001,50,2020_Jan_30_1514,spring_faces,3.1.5,59.996196721594416,
condition files/Stage1_2.xlsx,,T4,B4,m,"['c', 'm']","['Clue', 'Monopoly']","[-0.15, 0.5]","[0.15, 0.5]",1,1,,,,,,,,,0,3,3,3,0,2,2,7,,,,,,,,,,,,,,,,,,,,,,,,,,,,,,,,,,,,,,,,,,,,,,,,,,,,,,,1429.2522415389976,None,1429.2522415389976,None,1429.2522415389976,None,c,0,0.3550434589997167,1430.802656115,None,1430.802656115,None,1430.802656115,None,1431.2187223619985,None,1431.2187223619985,None,1431.2187223619985,None,1431.2187223619985,None,,,,,,,,,,,,,,,,,,,,,,,,,,,,,,,,,,,,,,,,,,,,001,50,2020_Jan_30_1514,spring_faces,3.1.5,59.996196721594416,
condition files/Stage1_2.xlsx,,T3,B3,c,"['c', 'm']","['Clue', 'Monopoly']","[-0.15, 0.5]","[0.15, 0.5]",1,1,,,,,,,,,0,3,3,3,0,3,3,4,,,,,,,,,,,,,,,,,,,,,,,,,,,,,,,,,,,,,,,,,,,,,,,,,,,,,,,1433.1855665080002,None,1433.1855665080002,None,1433.1855665080002,None,c,1,0.2934529800004384,1434.720245253,None,1434.720245253,None,1434.720245253,None,1435.0858546599993,None,1435.0858546599993,None,1435.0858546599993,None,1435.0858546599993,None,,,,,,,,,,,,,,,,,,,,,,,,,,,,,,,,,,,,,,,,,,,,001,50,2020_Jan_30_1514,spring_faces,3.1.5,59.996196721594416,
condition files/Stage1_2.xlsx,,B4,T3,c,"['c', 'm']","['Clue', 'Monopoly']","[-0.15, 0.5]","[0.15, 0.5]",1,1,,,,,,,,,0,3,3,3,0,4,4,5,,,,,,,,,,,,,,,,,,,,,,,,,,,,,,,,,,,,,,,,,,,,,,,,,,,,,,,1437.0350519669992,None,1437.0350519669992,None,1437.0350519669992,None,c,1,2.090927846998966,1438.570849904001,None,1438.570849904001,None,1438.570849904001,None,1440.7192069669982,None,1440.7192069669982,None,1440.7192069669982,None,1440.7192069669982,None,,,,,,,,,,,,,,,,,,,,,,,,,,,,,,,,,,,,,,,,,,,,001,50,2020_Jan_30_1514,spring_faces,3.1.5,59.996196721594416,
condition files/Stage1_2.xlsx,,T2,B1,c,"['c', 'm']","['Clue', 'Monopoly']","[-0.15, 0.5]","[0.15, 0.5]",1,1,,,,,,,,,0,3,3,3,0,5,5,1,,,,,,,,,,,,,,,,,,,,,,,,,,,,,,,,,,,,,,,,,,,,,,,,,,,,,,,1442.685385132998,None,1442.685385132998,None,1442.685385132998,None,m,0,1.4348445920004451,1444.2188623719994,None,1444.2188623719994,None,1444.2188623719994,None,1445.718820211001,None,1445.718820211001,None,1445.718820211001,None,1445.718820211001,None,,,,,,,,,,,,,,,,,,,,,,,,,,,,,,,,,,,,,,,,,,,,001,50,2020_Jan_30_1514,spring_faces,3.1.5,59.996196721594416,
condition files/Stage1_2.xlsx,,B1,T1,c,"['c', 'm']","['Clue', 'Monopoly']","[-0.15, 0.5]","[0.15, 0.5]",1,1,,,,,,,,,0,3,3,3,0,6,6,0,,,,,,,,,,,,,,,,,,,,,,,,,,,,,,,,,,,,,,,,,,,,,,,,,,,,,,,1447.6856007649985,None,1447.6856007649985,None,1447.6856007649985,None,m,0,1.041889842999808,1449.235910512998,None,1449.235910512998,None,1449.235910512998,None,1450.3355378489978,None,1450.3355378489978,None,1450.3355378489978,None,1450.3355378489978,None,,,,,,,,,,,,,,,,,,,,,,,,,,,,,,,,,,,,,,,,,,,,001,50,2020_Jan_30_1514,spring_faces,3.1.5,59.996196721594416,
condition files/Stage1_2.xlsx,,B2,T2,m,"['c', 'm']","['Clue', 'Monopoly']","[-0.15, 0.5]","[0.15, 0.5]",1,1,,,,,,,,,0,3,3,3,0,7,7,3,,,,,,,,,,,,,,,,,,,,,,,,,,,,,,,,,,,,,,,,,,,,,,,,,,,,,,,1452.3028025729982,None,1452.3028025729982,None,1452.3028025729982,None,m,1,1.751918032001413,1453.837794731,None,1453.837794731,None,1453.837794731,None,1455.6532017589998,None,1455.6532017589998,None,1455.6532017589998,None,1455.6532017589998,None,,,,,,,,,,,,,,,,,,,,,,,,,,,,,,,,,,,,,,,,,,,,001,50,2020_Jan_30_1514,spring_faces,3.1.5,59.996196721594416,
condition files/Stage1_1.xlsx,,B4,T4,m,"['c', 'm']","['Clue', 'Monopoly']","[-0.15, 0.5]","[0.15, 0.5]",1,1,,,,,,,,,0,4,4,4,0,0,0,7,,,,,,,,,,,,,,,,,,,,,,,,,,,,,,,,,,,,,,,,,,,,,,,,,,,,,,,1457.6355621340008,None,1457.6355621340008,None,1457.6355621340008,None,c,0,1.3322253959995578,1459.1694793809984,None,1459.1694793809984,None,1459.1694793809984,None,1460.5524828960006,None,1460.5524828960006,None,1460.5524828960006,None,1460.5524828960006,None,,,,,,,,,,,,,,,,,,,,,,,,,,,,,,,,,,,,,,,,,,,,001,50,2020_Jan_30_1514,spring_faces,3.1.5,59.996196721594416,
condition files/Stage1_1.xlsx,,B3,T3,c,"['c', 'm']","['Clue', 'Monopoly']","[-0.15, 0.5]","[0.15, 0.5]",1,1,,,,,,,,,0,4,4,4,0,1,1,4,,,,,,,,,,,,,,,,,,,,,,,,,,,,,,,,,,,,,,,,,,,,,,,,,,,,,,,1462.5190809269989,None,1462.5190809269989,None,1462.5190809269989,None,m,0,1.8734564500009583,1464.0523024979993,None,1464.0523024979993,None,1464.0523024979993,None,1465.9868882310002,None,1465.9868882310002,None,1465.9868882310002,None,1465.9868882310002,None,,,,,,,,,,,,,,,,,,,,,,,,,,,,,,,,,,,,,,,,,,,,001,50,2020_Jan_30_1514,spring_faces,3.1.5,59.996196721594416,
condition files/Stage1_1.xlsx,,T4,B3,m,"['c', 'm']","['Clue', 'Monopoly']","[-0.15, 0.5]","[0.15, 0.5]",1,1,,,,,,,,,0,4,4,4,0,2,2,6,,,,,,,,,,,,,,,,,,,,,,,,,,,,,,,,,,,,,,,,,,,,,,,,,,,,,,,1467.9522935759996,None,1467.9522935759996,None,1467.9522935759996,None,m,1,0.7917596430015692,1469.4860051949981,None,1469.4860051949981,None,1469.4860051949981,None,1470.3371686479986,None,1470.3371686479986,None,1470.3371686479986,None,1470.3371686479986,None,,,,,,,,,,,,,,,,,,,,,,,,,,,,,,,,,,,,,,,,,,,,001,50,2020_Jan_30_1514,spring_faces,3.1.5,59.996196721594416,
condition files/Stage1_1.xlsx,,T1,B1,c,"['c', 'm']","['Clue', 'Monopoly']","[-0.15, 0.5]","[0.15, 0.5]",1,1,,,,,,,,,0,4,4,4,0,3,3,0,,,,,,,,,,,,,,,,,,,,,,,,,,,,,,,,,,,,,,,,,,,,,,,,,,,,,,,1472.301708799001,None,1472.301708799001,None,1472.301708799001,None,m,0,0.5369015940013924,1473.852795846,None,1473.852795846,None,1473.852795846,None,1474.4523210669977,None,1474.4523210669977,None,1474.4523210669977,None,1474.4523210669977,None,,,,,,,,,,,,,,,,,,,,,,,,,,,,,,,,,,,,,,,,,,,,001,50,2020_Jan_30_1514,spring_faces,3.1.5,59.996196721594416,
condition files/Stage1_1.xlsx,,B1,T2,c,"['c', 'm']","['Clue', 'Monopoly']","[-0.15, 0.5]","[0.15, 0.5]",1,1,,,,,,,,,0,4,4,4,0,4,4,1,,,,,,,,,,,,,,,,,,,,,,,,,,,,,,,,,,,,,,,,,,,,,,,,,,,,,,,1476.418950913001,None,1476.418950913001,None,1476.418950913001,None,m,0,1.236752101998718,1477.952955662,None,1477.952955662,None,1477.952955662,None,1479.252904533998,None,1479.252904533998,None,1479.252904533998,None,1479.252904533998,None,,,,,,,,,,,,,,,,,,,,,,,,,,,,,,,,,,,,,,,,,,,,001,50,2020_Jan_30_1514,spring_faces,3.1.5,59.996196721594416,
condition files/Stage1_1.xlsx,,T2,B2,m,"['c', 'm']","['Clue', 'Monopoly']","[-0.15, 0.5]","[0.15, 0.5]",1,1,,,,,,,,,0,4,4,4,0,5,5,3,,,,,,,,,,,,,,,,,,,,,,,,,,,,,,,,,,,,,,,,,,,,,,,,,,,,,,,1481.2191359049975,None,1481.2191359049975,None,1481.2191359049975,None,m,1,0.2930179250033689,1482.7527551860003,None,1482.7527551860003,None,1482.7527551860003,None,1483.1028808619994,None,1483.1028808619994,None,1483.1028808619994,None,1483.1028808619994,None,,,,,,,,,,,,,,,,,,,,,,,,,,,,,,,,,,,,,,,,,,,,001,50,2020_Jan_30_1514,spring_faces,3.1.5,59.996196721594416,
condition files/Stage1_1.xlsx,,T3,B4,c,"['c', 'm']","['Clue', 'Monopoly']","[-0.15, 0.5]","[0.15, 0.5]",1,1,,,,,,,,,0,4,4,4,0,6,6,5,,,,,,,,,,,,,,,,,,,,,,,,,,,,,,,,,,,,,,,,,,,,,,,,,,,,,,,1485.068912319999,None,1485.068912319999,None,1485.068912319999,None,c,1,0.6832021980007994,1486.602452572999,None,1486.602452572999,None,1486.602452572999,None,1487.3526380609983,None,1487.3526380609983,None,1487.3526380609983,None,1487.3526380609983,None,,,,,,,,,,,,,,,,,,,,,,,,,,,,,,,,,,,,,,,,,,,,001,50,2020_Jan_30_1514,spring_faces,3.1.5,59.996196721594416,
condition files/Stage1_1.xlsx,,B2,T1,m,"['c', 'm']","['Clue', 'Monopoly']","[-0.15, 0.5]","[0.15, 0.5]",1,1,,,,,,,,,0,4,4,4,0,7,7,2,,,,,,,,,,,,,,,,,,,,,,,,,,,,,,,,,,,,,,,,,,,,,,,,,,,,,,,1489.3023692040006,None,1489.3023692040006,None,1489.3023692040006,None,c,0,2.2583350429995335,1490.8354395969982,None,1490.8354395969982,None,1490.8354395969982,None,1493.1524205120004,None,1493.1524205120004,None,1493.1524205120004,None,1493.1524205120004,None,,,,,,,,,,,,,,,,,,,,,,,,,,,,,,,,,,,,,,,,,,,,001,50,2020_Jan_30_1514,spring_faces,3.1.5,59.996196721594416,
condition files/Stage1_2.xlsx,,B1,T1,c,"['c', 'm']","['Clue', 'Monopoly']","[-0.15, 0.5]","[0.15, 0.5]",1,1,,,,,,,,,0,5,5,5,0,0,0,0,,,,,,,,,,,,,,,,,,,,,,,,,,,,,,,,,,,,,,,,,,,,,,,,,,,,,,,1495.1353026159995,None,1495.1353026159995,None,1495.1353026159995,None,c,1,1.0627801700029522,1496.670931665998,None,1496.670931665998,None,1496.670931665998,None,1497.8021429809996,None,1497.8021429809996,None,1497.8021429809996,None,1497.8021429809996,None,,,,,,,,,,,,,,,,,,,,,,,,,,,,,,,,,,,,,,,,,,,,001,50,2020_Jan_30_1514,spring_faces,3.1.5,59.996196721594416,
condition files/Stage1_2.xlsx,,T2,B1,c,"['c', 'm']","['Clue', 'Monopoly']","[-0.15, 0.5]","[0.15, 0.5]",1,1,,,,,,,,,0,5,5,5,0,1,1,1,,,,,,,,,,,,,,,,,,,,,,,,,,,,,,,,,,,,,,,,,,,,,,,,,,,,,,,1499.7514625019976,None,1499.7514625019976,None,1499.7514625019976,None,c,1,0.973644591998891,1501.2881406039996,None,1501.2881406039996,None,1501.2881406039996,None,1502.319267906998,None,1502.319267906998,None,1502.319267906998,None,1502.319267906998,None,,,,,,,,,,,,,,,,,,,,,,,,,,,,,,,,,,,,,,,,,,,,001,50,2020_Jan_30_1514,spring_faces,3.1.5,59.996196721594416,
condition files/Stage1_2.xlsx,,B2,T2,m,"['c', 'm']","['Clue', 'Monopoly']","[-0.15, 0.5]","[0.15, 0.5]",1,1,,,,,,,,,0,5,5,5,0,2,2,3,,,,,,,,,,,,,,,,,,,,,,,,,,,,,,,,,,,,,,,,,,,,,,,,,,,,,,,1504.2851305449985,None,1504.2851305449985,None,1504.2851305449985,None,m,1,1.4186148349981522,1505.8190885919976,None,1505.8190885919976,None,1505.8190885919976,None,1507.3030537720006,None,1507.3030537720006,None,1507.3030537720006,None,1507.3030537720006,None,,,,,,,,,,,,,,,,,,,,,,,,,,,,,,,,,,,,,,,,,,,,001,50,2020_Jan_30_1514,spring_faces,3.1.5,59.996196721594416,
condition files/Stage1_2.xlsx,,T3,B3,c,"['c', 'm']","['Clue', 'Monopoly']","[-0.15, 0.5]","[0.15, 0.5]",1,1,,,,,,,,,0,5,5,5,0,3,3,4,,,,,,,,,,,,,,,,,,,,,,,,,,,,,,,,,,,,,,,,,,,,,,,,,,,,,,,1509.269122534999,None,1509.269122534999,None,1509.269122534999,None,m,0,12.177456448000157,1510.804248444998,None,1510.804248444998,None,1510.804248444998,None,1523.0385696890007,None,1523.0385696890007,None,1523.0385696890007,None,1523.0385696890007,None,,,,,,,,,,,,,,,,,,,,,,,,,,,,,,,,,,,,,,,,,,,,001,50,2020_Jan_30_1514,spring_faces,3.1.5,59.996196721594416,
condition files/Stage1_2.xlsx,,B4,T3,c,"['c', 'm']","['Clue', 'Monopoly']","[-0.15, 0.5]","[0.15, 0.5]",1,1,,,,,,,,,0,5,5,5,0,4,4,5,,,,,,,,,,,,,,,,,,,,,,,,,,,,,,,,,,,,,,,,,,,,,,,,,,,,,,,1525.001745215999,None,1525.001745215999,None,1525.001745215999,None,m,0,1.0048400360028609,1526.5368654659978,None,1526.5368654659978,None,1526.5368654659978,None,1527.6025302359994,None,1527.6025302359994,None,1527.6025302359994,None,1527.6025302359994,None,,,,,,,,,,,,,,,,,,,,,,,,,,,,,,,,,,,,,,,,,,,,001,50,2020_Jan_30_1514,spring_faces,3.1.5,59.996196721594416,
condition files/Stage1_2.xlsx,,T4,B4,m,"['c', 'm']","['Clue', 'Monopoly']","[-0.15, 0.5]","[0.15, 0.5]",1,1,,,,,,,,,0,5,5,5,0,5,5,7,,,,,,,,,,,,,,,,,,,,,,,,,,,,,,,,,,,,,,,,,,,,,,,,,,,,,,,1529.5685392339983,None,1529.5685392339983,None,1529.5685392339983,None,c,0,1.2862639199993282,1531.1034479640002,None,1531.1034479640002,None,1531.1034479640002,None,1532.452926490998,None,1532.452926490998,None,1532.452926490998,None,1532.452926490998,None,,,,,,,,,,,,,,,,,,,,,,,,,,,,,,,,,,,,,,,,,,,,001,50,2020_Jan_30_1514,spring_faces,3.1.5,59.996196721594416,
condition files/Stage1_2.xlsx,,T1,B2,m,"['c', 'm']","['Clue', 'Monopoly']","[-0.15, 0.5]","[0.15, 0.5]",1,1,,,,,,,,,0,5,5,5,0,6,6,2,,,,,,,,,,,,,,,,,,,,,,,,,,,,,,,,,,,,,,,,,,,,,,,,,,,,,,,1534.4189399079987,None,1534.4189399079987,None,1534.4189399079987,None,c,0,0.7713989599978959,1535.9543631999986,None,1535.9543631999986,None,1535.9543631999986,None,1536.7857130589982,None,1536.7857130589982,None,1536.7857130589982,None,1536.7857130589982,None,,,,,,,,,,,,,,,,,,,,,,,,,,,,,,,,,,,,,,,,,,,,001,50,2020_Jan_30_1514,spring_faces,3.1.5,59.996196721594416,
condition files/Stage1_2.xlsx,,B3,T4,m,"['c', 'm']","['Clue', 'Monopoly']","[-0.15, 0.5]","[0.15, 0.5]",1,1,,,,,,,,,0,5,5,5,0,7,7,6,,,,,,,,,,,,,,,,,,,,,,,,,,,,,,,,,,,,,,,,,,,,,,,,,,,,,,,1538.7522639329982,None,1538.7522639329982,None,1538.7522639329982,None,c,0,0.7421344720023626,1540.287584015001,None,1540.287584015001,None,1540.287584015001,None,1541.0854433940003,None,1541.0854433940003,None,1541.0854433940003,None,1541.0854433940003,None,,,,,,,,,,,,,,,,,,,,,,,,,,,,,,,,,,,,,,,,,,,,001,50,2020_Jan_30_1514,spring_faces,3.1.5,59.996196721594416,
condition files/Stage1_1.xlsx,,B4,T4,m,"['c', 'm']","['Clue', 'Monopoly']","[-0.15, 0.5]","[0.15, 0.5]",1,1,,,,,,,,,0,6,6,6,0,0,0,7,,,,,,,,,,,,,,,,,,,,,,,,,,,,,,,,,,,,,,,,,,,,,,,,,,,,,,,1543.0691688890001,None,1543.0691688890001,None,1543.0691688890001,None,c,0,0.8433117310014495,1544.6024530469986,None,1544.6024530469986,None,1544.6024530469986,None,1545.5020768329996,None,1545.5020768329996,None,1545.5020768329996,None,1545.5020768329996,None,,,,,,,,,,,,,,,,,,,,,,,,,,,,,,,,,,,,,,,,,,,,001,50,2020_Jan_30_1514,spring_faces,3.1.5,59.996196721594416,
condition files/Stage1_1.xlsx,,T4,B3,m,"['c', 'm']","['Clue', 'Monopoly']","[-0.15, 0.5]","[0.15, 0.5]",1,1,,,,,,,,,0,6,6,6,0,1,1,6,,,,,,,,,,,,,,,,,,,,,,,,,,,,,,,,,,,,,,,,,,,,,,,,,,,,,,,1547.468833619998,None,1547.468833619998,None,1547.468833619998,None,c,0,0.4596612719979021,1549.0021284350005,None,1549.0021284350005,None,1549.0021284350005,None,1549.5194874749977,None,1549.5194874749977,None,1549.5194874749977,None,1549.5194874749977,None,,,,,,,,,,,,,,,,,,,,,,,,,,,,,,,,,,,,,,,,,,,,001,50,2020_Jan_30_1514,spring_faces,3.1.5,59.996196721594416,
condition files/Stage1_1.xlsx,,B2,T1,m,"['c', 'm']","['Clue', 'Monopoly']","[-0.15, 0.5]","[0.15, 0.5]",1,1,,,,,,,,,0,6,6,6,0,2,2,2,,,,,,,,,,,,,,,,,,,,,,,,,,,,,,,,,,,,,,,,,,,,,,,,,,,,,,,1551.4856166829995,None,1551.4856166829995,None,1551.4856166829995,None,c,0,2.4255176779988687,1553.0202569989997,None,1553.0202569989997,None,1553.0202569989997,None,1555.5025772379995,None,1555.5025772379995,None,1555.5025772379995,None,1555.5025772379995,None,,,,,,,,,,,,,,,,,,,,,,,,,,,,,,,,,,,,,,,,,,,,001,50,2020_Jan_30_1514,spring_faces,3.1.5,59.996196721594416,
condition files/Stage1_1.xlsx,,T3,B4,c,"['c', 'm']","['Clue', 'Monopoly']","[-0.15, 0.5]","[0.15, 0.5]",1,1,,,,,,,,,0,6,6,6,0,3,3,5,,,,,,,,,,,,,,,,,,,,,,,,,,,,,,,,,,,,,,,,,,,,,,,,,,,,,,,1557.468938176,None,1557.468938176,None,1557.468938176,None,m,0,0.2505143259986653,1559.0191351619978,None,1559.0191351619978,None,1559.0191351619978,None,1559.3353788749992,None,1559.3353788749992,None,1559.3353788749992,None,1559.3353788749992,None,,,,,,,,,,,,,,,,,,,,,,,,,,,,,,,,,,,,,,,,,,,,001,50,2020_Jan_30_1514,spring_faces,3.1.5,59.996196721594416,
condition files/Stage1_1.xlsx,,T1,B1,c,"['c', 'm']","['Clue', 'Monopoly']","[-0.15, 0.5]","[0.15, 0.5]",1,1,,,,,,,,,0,6,6,6,0,4,4,0,,,,,,,,,,,,,,,,,,,,,,,,,,,,,,,,,,,,,,,,,,,,,,,,,,,,,,,1561.301618305999,None,1561.301618305999,None,1561.301618305999,None,m,0,0.7519615659984993,1562.837753822998,None,1562.837753822998,None,1562.837753822998,None,1563.6521985889995,None,1563.6521985889995,None,1563.6521985889995,None,1563.6521985889995,None,,,,,,,,,,,,,,,,,,,,,,,,,,,,,,,,,,,,,,,,,,,,001,50,2020_Jan_30_1514,spring_faces,3.1.5,59.996196721594416,
condition files/Stage1_1.xlsx,,T2,B2,m,"['c', 'm']","['Clue', 'Monopoly']","[-0.15, 0.5]","[0.15, 0.5]",1,1,,,,,,,,,0,6,6,6,0,5,5,3,,,,,,,,,,,,,,,,,,,,,,,,,,,,,,,,,,,,,,,,,,,,,,,,,,,,,,,1565.6185524289976,None,1565.6185524289976,None,1565.6185524289976,None,c,0,0.16473360500094714,1567.1529728829992,None,1567.1529728829992,None,1567.1529728829992,None,1567.3714258920008,None,1567.3714258920008,None,1567.3714258920008,None,1567.3714258920008,None,,,,,,,,,,,,,,,,,,,,,,,,,,,,,,,,,,,,,,,,,,,,001,50,2020_Jan_30_1514,spring_faces,3.1.5,59.996196721594416,
condition files/Stage1_1.xlsx,,B1,T2,c,"['c', 'm']","['Clue', 'Monopoly']","[-0.15, 0.5]","[0.15, 0.5]",1,1,,,,,,,,,0,6,6,6,0,6,6,1,,,,,,,,,,,,,,,,,,,,,,,,,,,,,,,,,,,,,,,,,,,,,,,,,,,,,,,1569.3360514909982,None,1569.3360514909982,None,1569.3360514909982,None,m,0,0.446605166001973,1570.8710778649984,None,1570.8710778649984,None,1570.8710778649984,None,1571.3697389080007,None,1571.3697389080007,None,1571.3697389080007,None,1571.3697389080007,None,,,,,,,,,,,,,,,,,,,,,,,,,,,,,,,,,,,,,,,,,,,,001,50,2020_Jan_30_1514,spring_faces,3.1.5,59.996196721594416,
condition files/Stage1_1.xlsx,,B3,T3,c,"['c', 'm']","['Clue', 'Monopoly']","[-0.15, 0.5]","[0.15, 0.5]",1,1,,,,,,,,,0,6,6,6,0,7,7,4,,,,,,,,,,,,,,,,,,,,,,,,,,,,,,,,,,,,,,,,,,,,,,,,,,,,,,,1573.3355938729983,None,1573.3355938729983,None,1573.3355938729983,None,c,1,0.25695722499949625,1574.8688142389983,None,1574.8688142389983,None,1574.8688142389983,None,1575.1860958180005,None,1575.1860958180005,None,1575.1860958180005,None,1575.1860958180005,None,,,,,,,,,,,,,,,,,,,,,,,,,,,,,,,,,,,,,,,,,,,,001,50,2020_Jan_30_1514,spring_faces,3.1.5,59.996196721594416,
condition files/Stage1_2.xlsx,,B2,T2,m,"['c', 'm']","['Clue', 'Monopoly']","[-0.15, 0.5]","[0.15, 0.5]",1,1,,,,,,,,,0,7,7,7,0,0,0,3,,,,,,,,,,,,,,,,,,,,,,,,,,,,,,,,,,,,,,,,,,,,,,,,,,,,,,,1577.169192731999,None,1577.169192731999,None,1577.169192731999,None,c,0,0.4065092410019133,1578.7032598999976,None,1578.7032598999976,None,1578.7032598999976,None,1579.1853702179978,None,1579.1853702179978,None,1579.1853702179978,None,1579.1853702179978,None,,,,,,,,,,,,,,,,,,,,,,,,,,,,,,,,,,,,,,,,,,,,001,50,2020_Jan_30_1514,spring_faces,3.1.5,59.996196721594416,
condition files/Stage1_2.xlsx,,B1,T1,c,"['c', 'm']","['Clue', 'Monopoly']","[-0.15, 0.5]","[0.15, 0.5]",1,1,,,,,,,,,0,7,7,7,0,1,1,0,,,,,,,,,,,,,,,,,,,,,,,,,,,,,,,,,,,,,,,,,,,,,,,,,,,,,,,1581.135712790001,None,1581.135712790001,None,1581.135712790001,None,c,1,0.2810683540010359,1582.6686357420003,None,1582.6686357420003,None,1582.6686357420003,None,1583.001816035001,None,1583.001816035001,None,1583.001816035001,None,1583.001816035001,None,,,,,,,,,,,,,,,,,,,,,,,,,,,,,,,,,,,,,,,,,,,,001,50,2020_Jan_30_1514,spring_faces,3.1.5,59.996196721594416,
condition files/Stage1_2.xlsx,,T4,B4,m,"['c', 'm']","['Clue', 'Monopoly']","[-0.15, 0.5]","[0.15, 0.5]",1,1,,,,,,,,,0,7,7,7,0,2,2,7,,,,,,,,,,,,,,,,,,,,,,,,,,,,,,,,,,,,,,,,,,,,,,,,,,,,,,,1584.968660573999,None,1584.968660573999,None,1584.968660573999,None,m,1,0.2397304570004053,1586.5019471649975,None,1586.5019471649975,None,1586.5019471649975,None,1586.802608842001,None,1586.802608842001,None,1586.802608842001,None,1586.802608842001,None,,,,,,,,,,,,,,,,,,,,,,,,,,,,,,,,,,,,,,,,,,,,001,50,2020_Jan_30_1514,spring_faces,3.1.5,59.996196721594416,
condition files/Stage1_2.xlsx,,B4,T3,c,"['c', 'm']","['Clue', 'Monopoly']","[-0.15, 0.5]","[0.15, 0.5]",1,1,,,,,,,,,0,7,7,7,0,3,3,5,,,,,,,,,,,,,,,,,,,,,,,,,,,,,,,,,,,,,,,,,,,,,,,,,,,,,,,1588.7689528929986,None,1588.7689528929986,None,1588.7689528929986,None,c,1,0.23073715599821298,1590.318948772001,None,1590.318948772001,None,1590.318948772001,None,1590.6031559660005,None,1590.6031559660005,None,1590.6031559660005,None,1590.6031559660005,None,,,,,,,,,,,,,,,,,,,,,,,,,,,,,,,,,,,,,,,,,,,,001,50,2020_Jan_30_1514,spring_faces,3.1.5,59.996196721594416,
condition files/Stage1_2.xlsx,,T2,B1,c,"['c', 'm']","['Clue', 'Monopoly']","[-0.15, 0.5]","[0.15, 0.5]",1,1,,,,,,,,,0,7,7,7,0,4,4,1,,,,,,,,,,,,,,,,,,,,,,,,,,,,,,,,,,,,,,,,,,,,,,,,,,,,,,,1592.5691870989976,None,1592.5691870989976,None,1592.5691870989976,None,m,0,0.33429556600094656,1594.1034147690007,None,1594.1034147690007,None,1594.1034147690007,None,1594.502015826998,None,1594.502015826998,None,1594.502015826998,None,1594.502015826998,None,,,,,,,,,,,,,,,,,,,,,,,,,,,,,,,,,,,,,,,,,,,,001,50,2020_Jan_30_1514,spring_faces,3.1.5,59.996196721594416,
condition files/Stage1_2.xlsx,,T1,B2,m,"['c', 'm']","['Clue', 'Monopoly']","[-0.15, 0.5]","[0.15, 0.5]",1,1,,,,,,,,,0,7,7,7,0,5,5,2,,,,,,,,,,,,,,,,,,,,,,,,,,,,,,,,,,,,,,,,,,,,,,,,,,,,,,,1596.4685308320004,None,1596.4685308320004,None,1596.4685308320004,None,m,1,0.01915629300128785,None,None,None,None,None,None,1598.0526659809984,None,1598.0526659809984,None,1598.0526659809984,None,1598.0526659809984,None,,,,,,,,,,,,,,,,,,,,,,,,,,,,,,,,,,,,,,,,,,,,001,50,2020_Jan_30_1514,spring_faces,3.1.5,59.996196721594416,
condition files/Stage1_2.xlsx,,T3,B3,c,"['c', 'm']","['Clue', 'Monopoly']","[-0.15, 0.5]","[0.15, 0.5]",1,1,,,,,,,,,0,7,7,7,0,6,6,4,,,,,,,,,,,,,,,,,,,,,,,,,,,,,,,,,,,,,,,,,,,,,,,,,,,,,,,1600.0024234150005,None,1600.0024234150005,None,1600.0024234150005,None,c,1,0.8851903030008543,1601.5524917000002,None,1601.5524917000002,None,1601.5524917000002,None,1602.503932806001,None,1602.503932806001,None,1602.503932806001,None,1602.503932806001,None,,,,,,,,,,,,,,,,,,,,,,,,,,,,,,,,,,,,,,,,,,,,001,50,2020_Jan_30_1514,spring_faces,3.1.5,59.996196721594416,
condition files/Stage1_2.xlsx,,B3,T4,m,"['c', 'm']","['Clue', 'Monopoly']","[-0.15, 0.5]","[0.15, 0.5]",1,1,,,,,,,,,0,7,7,7,0,7,7,6,,,,,,,,,,,,,,,,,,,,,,,,,,,,,,,,,,,,,,,,,,,,,,,,,,,,,,,1604.4683903849982,None,1604.4683903849982,None,1604.4683903849982,None,m,1,0.019142860001011286,1606.0185491640004,None,1606.0185491640004,None,1606.0185491640004,None,1606.103445722998,None,1606.103445722998,None,1606.103445722998,None,1606.103445722998,None,,,,,,,,,,,,,,,,,,,,,,,,,,,,,,,,,,,,,,,,,,,,001,50,2020_Jan_30_1514,spring_faces,3.1.5,59.996196721594416,
condition files/Stage1_1.xlsx,,B2,T1,m,"['c', 'm']","['Clue', 'Monopoly']","[-0.15, 0.5]","[0.15, 0.5]",1,1,,,,,,,,,0,8,8,8,0,0,0,2,,,,,,,,,,,,,,,,,,,,,,,,,,,,,,,,,,,,,,,,,,,,,,,,,,,,,,,1608.085560956999,None,1608.085560956999,None,1608.085560956999,None,m,1,0.0019456320005701855,None,None,None,None,None,None,1609.6538158629992,None,1609.6538158629992,None,1609.6538158629992,None,1609.6538158629992,None,,,,,,,,,,,,,,,,,,,,,,,,,,,,,,,,,,,,,,,,,,,,001,50,2020_Jan_30_1514,spring_faces,3.1.5,59.996196721594416,
condition files/Stage1_1.xlsx,,B1,T2,c,"['c', 'm']","['Clue', 'Monopoly']","[-0.15, 0.5]","[0.15, 0.5]",1,1,,,,,,,,,0,8,8,8,0,1,1,1,,,,,,,,,,,,,,,,,,,,,,,,,,,,,,,,,,,,,,,,,,,,,,,,,,,,,,,1611.6188998500002,None,1611.6188998500002,None,1611.6188998500002,None,c,1,0.26024219900136814,1613.1694520489982,None,1613.1694520489982,None,1613.1694520489982,None,1613.487598754,None,1613.487598754,None,1613.487598754,None,1613.487598754,None,,,,,,,,,,,,,,,,,,,,,,,,,,,,,,,,,,,,,,,,,,,,001,50,2020_Jan_30_1514,spring_faces,3.1.5,59.996196721594416,
condition files/Stage1_1.xlsx,,T2,B2,m,"['c', 'm']","['Clue', 'Monopoly']","[-0.15, 0.5]","[0.15, 0.5]",1,1,,,,,,,,,0,8,8,8,0,2,2,3,,,,,,,,,,,,,,,,,,,,,,,,,,,,,,,,,,,,,,,,,,,,,,,,,,,,,,,1615.452053344001,None,1615.452053344001,None,1615.452053344001,None,m,1,0.3455873150014668,1616.988121014001,None,1616.988121014001,None,1616.988121014001,None,1617.3863567469998,None,1617.3863567469998,None,1617.3863567469998,None,1617.3863567469998,None,,,,,,,,,,,,,,,,,,,,,,,,,,,,,,,,,,,,,,,,,,,,001,50,2020_Jan_30_1514,spring_faces,3.1.5,59.996196721594416,
condition files/Stage1_1.xlsx,,T1,B1,c,"['c', 'm']","['Clue', 'Monopoly']","[-0.15, 0.5]","[0.15, 0.5]",1,1,,,,,,,,,0,8,8,8,0,3,3,0,,,,,,,,,,,,,,,,,,,,,,,,,,,,,,,,,,,,,,,,,,,,,,,,,,,,,,,1619.3525075609978,None,1619.3525075609978,None,1619.3525075609978,None,m,0,1.7594142709967855,1620.9023558759982,None,1620.9023558759982,None,1620.9023558759982,None,1622.721113484,None,1622.721113484,None,1622.721113484,None,1622.721113484,None,,,,,,,,,,,,,,,,,,,,,,,,,,,,,,,,,,,,,,,,,,,,001,50,2020_Jan_30_1514,spring_faces,3.1.5,59.996196721594416,
condition files/Stage1_1.xlsx,,B4,T4,m,"['c', 'm']","['Clue', 'Monopoly']","[-0.15, 0.5]","[0.15, 0.5]",1,1,,,,,,,,,0,8,8,8,0,4,4,7,,,,,,,,,,,,,,,,,,,,,,,,,,,,,,,,,,,,,,,,,,,,,,,,,,,,,,,1624.6852423630007,None,1624.6852423630007,None,1624.6852423630007,None,m,1,1.2258683790023497,1626.219900267999,None,1626.219900267999,None,1626.219900267999,None,1627.5038163120007,None,1627.5038163120007,None,1627.5038163120007,None,1627.5038163120007,None,,,,,,,,,,,,,,,,,,,,,,,,,,,,,,,,,,,,,,,,,,,,001,50,2020_Jan_30_1514,spring_faces,3.1.5,59.996196721594416,
condition files/Stage1_1.xlsx,,T3,B4,c,"['c', 'm']","['Clue', 'Monopoly']","[-0.15, 0.5]","[0.15, 0.5]",1,1,,,,,,,,,0,8,8,8,0,5,5,5,,,,,,,,,,,,,,,,,,,,,,,,,,,,,,,,,,,,,,,,,,,,,,,,,,,,,,,1629.4689160889975,None,1629.4689160889975,None,1629.4689160889975,None,c,1,1.4024098029985907,1631.0033045710006,None,1631.0033045710006,None,1631.0033045710006,None,1632.4687616909978,None,1632.4687616909978,None,1632.4687616909978,None,1632.4687616909978,None,,,,,,,,,,,,,,,,,,,,,,,,,,,,,,,,,,,,,,,,,,,,001,50,2020_Jan_30_1514,spring_faces,3.1.5,59.996196721594416,
condition files/Stage1_1.xlsx,,B3,T3,c,"['c', 'm']","['Clue', 'Monopoly']","[-0.15, 0.5]","[0.15, 0.5]",1,1,,,,,,,,,0,8,8,8,0,6,6,4,,,,,,,,,,,,,,,,,,,,,,,,,,,,,,,,,,,,,,,,,,,,,,,,,,,,,,,1634.435544183998,None,1634.435544183998,None,1634.435544183998,None,c,1,0.9159528609998233,1635.9857434349979,None,1635.9857434349979,None,1635.9857434349979,None,1636.952116266999,None,1636.952116266999,None,1636.952116266999,None,1636.952116266999,None,,,,,,,,,,,,,,,,,,,,,,,,,,,,,,,,,,,,,,,,,,,,001,50,2020_Jan_30_1514,spring_faces,3.1.5,59.996196721594416,
condition files/Stage1_1.xlsx,,T4,B3,m,"['c', 'm']","['Clue', 'Monopoly']","[-0.15, 0.5]","[0.15, 0.5]",1,1,,,,,,,,,0,8,8,8,0,7,7,6,,,,,,,,,,,,,,,,,,,,,,,,,,,,,,,,,,,,,,,,,,,,,,,,,,,,,,,1638.9190802810008,None,1638.9190802810008,None,1638.9190802810008,None,c,0,2.75254144399878,1640.469153236998,None,1640.469153236998,None,1640.469153236998,None,1643.2870708400005,None,1643.2870708400005,None,1643.2870708400005,None,1643.2870708400005,None,,,,,,,,,,,,,,,,,,,,,,,,,,,,,,,,,,,,,,,,,,,,001,50,2020_Jan_30_1514,spring_faces,3.1.5,59.996196721594416,
condition files/Stage1_2.xlsx,,B4,T3,c,"['c', 'm']","['Clue', 'Monopoly']","[-0.15, 0.5]","[0.15, 0.5]",1,1,,,,,,,,,0,9,9,9,0,0,0,5,,,,,,,,,,,,,,,,,,,,,,,,,,,,,,,,,,,,,,,,,,,,,,,,,,,,,,,1645.2688278239984,None,1645.2688278239984,None,1645.2688278239984,None,c,1,1.0098036099989258,1646.8038724569997,None,1646.8038724569997,None,1646.8038724569997,None,1647.8713686739975,None,1647.8713686739975,None,1647.8713686739975,None,1647.8713686739975,None,,,,,,,,,,,,,,,,,,,,,,,,,,,,,,,,,,,,,,,,,,,,001,50,2020_Jan_30_1514,spring_faces,3.1.5,59.996196721594416,
condition files/Stage1_2.xlsx,,B1,T1,c,"['c', 'm']","['Clue', 'Monopoly']","[-0.15, 0.5]","[0.15, 0.5]",1,1,,,,,,,,,0,9,9,9,0,1,1,0,,,,,,,,,,,,,,,,,,,,,,,,,,,,,,,,,,,,,,,,,,,,,,,,,,,,,,,1649.8356478469977,None,1649.8356478469977,None,1649.8356478469977,None,m,0,1.179457011003251,1651.3702461159992,None,1651.3702461159992,None,1651.3702461159992,None,1652.602709928,None,1652.602709928,None,1652.602709928,None,1652.602709928,None,,,,,,,,,,,,,,,,,,,,,,,,,,,,,,,,,,,,,,,,,,,,001,50,2020_Jan_30_1514,spring_faces,3.1.5,59.996196721594416,
condition files/Stage1_2.xlsx,,B3,T4,m,"['c', 'm']","['Clue', 'Monopoly']","[-0.15, 0.5]","[0.15, 0.5]",1,1,,,,,,,,,0,9,9,9,0,2,2,6,,,,,,,,,,,,,,,,,,,,,,,,,,,,,,,,,,,,,,,,,,,,,,,,,,,,,,,1654.5686074250007,None,1654.5686074250007,None,1654.5686074250007,None,m,1,3.005817938999826,1656.103954457998,None,1656.103954457998,None,1656.103954457998,None,1659.186048869,None,1659.186048869,None,1659.186048869,None,1659.186048869,None,,,,,,,,,,,,,,,,,,,,,,,,,,,,,,,,,,,,,,,,,,,,001,50,2020_Jan_30_1514,spring_faces,3.1.5,59.996196721594416,
condition files/Stage1_2.xlsx,,T1,B2,m,"['c', 'm']","['Clue', 'Monopoly']","[-0.15, 0.5]","[0.15, 0.5]",1,1,,,,,,,,,0,9,9,9,0,3,3,2,,,,,,,,,,,,,,,,,,,,,,,,,,,,,,,,,,,,,,,,,,,,,,,,,,,,,,,1661.1356699479984,None,1661.1356699479984,None,1661.1356699479984,None,c,0,1.4646893659992202,1662.6690130879979,None,1662.6690130879979,None,1662.6690130879979,None,1664.1858337349986,None,1664.1858337349986,None,1664.1858337349986,None,1664.1858337349986,None,,,,,,,,,,,,,,,,,,,,,,,,,,,,,,,,,,,,,,,,,,,,001,50,2020_Jan_30_1514,spring_faces,3.1.5,59.996196721594416,
condition files/Stage1_2.xlsx,,T2,B1,c,"['c', 'm']","['Clue', 'Monopoly']","[-0.15, 0.5]","[0.15, 0.5]",1,1,,,,,,,,,0,9,9,9,0,4,4,1,,,,,,,,,,,,,,,,,,,,,,,,,,,,,,,,,,,,,,,,,,,,,,,,,,,,,,,1666.152328330998,None,1666.152328330998,None,1666.152328330998,None,c,1,1.5189565540022159,1667.6867703239986,None,1667.6867703239986,None,1667.6867703239986,None,1669.2858053050004,None,1669.2858053050004,None,1669.2858053050004,None,1669.2858053050004,None,,,,,,,,,,,,,,,,,,,,,,,,,,,,,,,,,,,,,,,,,,,,001,50,2020_Jan_30_1514,spring_faces,3.1.5,59.996196721594416,
condition files/Stage1_2.xlsx,,T4,B4,m,"['c', 'm']","['Clue', 'Monopoly']","[-0.15, 0.5]","[0.15, 0.5]",1,1,,,,,,,,,0,9,9,9,0,5,5,7,,,,,,,,,,,,,,,,,,,,,,,,,,,,,,,,,,,,,,,,,,,,,,,,,,,,,,,1671.2355163499997,None,1671.2355163499997,None,1671.2355163499997,None,c,0,1.7159672859997954,1672.7857302939992,None,1672.7857302939992,None,1672.7857302939992,None,1674.5518420469998,None,1674.5518420469998,None,1674.5518420469998,None,1674.5518420469998,None,,,,,,,,,,,,,,,,,,,,,,,,,,,,,,,,,,,,,,,,,,,,001,50,2020_Jan_30_1514,spring_faces,3.1.5,59.996196721594416,
condition files/Stage1_2.xlsx,,T3,B3,c,"['c', 'm']","['Clue', 'Monopoly']","[-0.15, 0.5]","[0.15, 0.5]",1,1,,,,,,,,,0,9,9,9,0,6,6,4,,,,,,,,,,,,,,,,,,,,,,,,,,,,,,,,,,,,,,,,,,,,,,,,,,,,,,,1676.5189515630009,None,1676.5189515630009,None,1676.5189515630009,None,m,0,0.27093221899849596,1678.054844151,None,1678.054844151,None,1678.054844151,None,1678.3876940769987,None,1678.3876940769987,None,1678.3876940769987,None,1678.3876940769987,None,,,,,,,,,,,,,,,,,,,,,,,,,,,,,,,,,,,,,,,,,,,,001,50,2020_Jan_30_1514,spring_faces,3.1.5,59.996196721594416,
condition files/Stage1_2.xlsx,,B2,T2,m,"['c', 'm']","['Clue', 'Monopoly']","[-0.15, 0.5]","[0.15, 0.5]",1,1,,,,,,,,,0,9,9,9,0,7,7,3,,,,,,,,,,,,,,,,,,,,,,,,,,,,,,,,,,,,,,,,,,,,,,,,,,,,,,,1680.352105766,None,1680.352105766,None,1680.352105766,None,m,1,1.0784677240008023,1681.8872486260007,None,1681.8872486260007,None,1681.8872486260007,None,1683.0186331429977,None,1683.0186331429977,None,1683.0186331429977,None,1683.0186331429977,None,,,,,,,,,,,,,,,,,,,,,,,,,,,,,,,,,,,,,,,,,,,,001,50,2020_Jan_30_1514,spring_faces,3.1.5,59.996196721594416,
condition files/Stage1_1.xlsx,,B2,T1,m,"['c', 'm']","['Clue', 'Monopoly']","[-0.15, 0.5]","[0.15, 0.5]",1,1,,,,,,,,,0,10,10,10,0,0,0,2,,,,,,,,,,,,,,,,,,,,,,,,,,,,,,,,,,,,,,,,,,,,,,,,,,,,,,,1685.002479120998,None,1685.002479120998,None,1685.002479120998,None,m,1,1.165076372002659,1686.5526217339975,None,1686.5526217339975,None,1686.5526217339975,None,1687.769235754,None,1687.769235754,None,1687.769235754,None,1687.769235754,None,,,,,,,,,,,,,,,,,,,,,,,,,,,,,,,,,,,,,,,,,,,,001,50,2020_Jan_30_1514,spring_faces,3.1.5,59.996196721594416,
condition files/Stage1_1.xlsx,,T2,B2,m,"['c', 'm']","['Clue', 'Monopoly']","[-0.15, 0.5]","[0.15, 0.5]",1,1,,,,,,,,,0,10,10,10,0,1,1,3,,,,,,,,,,,,,,,,,,,,,,,,,,,,,,,,,,,,,,,,,,,,,,,,,,,,,,,1689.7355576560003,None,1689.7355576560003,None,1689.7355576560003,None,m,1,1.0405578640020394,1691.2692151929987,None,1691.2692151929987,None,1691.2692151929987,None,1692.3689756099993,None,1692.3689756099993,None,1692.3689756099993,None,1692.3689756099993,None,,,,,,,,,,,,,,,,,,,,,,,,,,,,,,,,,,,,,,,,,,,,001,50,2020_Jan_30_1514,spring_faces,3.1.5,59.996196721594416,
condition files/Stage1_1.xlsx,,B3,T3,c,"['c', 'm']","['Clue', 'Monopoly']","[-0.15, 0.5]","[0.15, 0.5]",1,1,,,,,,,,,0,10,10,10,0,2,2,4,,,,,,,,,,,,,,,,,,,,,,,,,,,,,,,,,,,,,,,,,,,,,,,,,,,,,,,1694.3355340009985,None,1694.3355340009985,None,1694.3355340009985,None,c,1,1.0965082080001594,1695.8692159999991,None,1695.8692159999991,None,1695.8692159999991,None,1697.0195528069999,None,1697.0195528069999,None,1697.0195528069999,None,1697.0195528069999,None,,,,,,,,,,,,,,,,,,,,,,,,,,,,,,,,,,,,,,,,,,,,001,50,2020_Jan_30_1514,spring_faces,3.1.5,59.996196721594416,
condition files/Stage1_1.xlsx,,T3,B4,c,"['c', 'm']","['Clue', 'Monopoly']","[-0.15, 0.5]","[0.15, 0.5]",1,1,,,,,,,,,0,10,10,10,0,3,3,5,,,,,,,,,,,,,,,,,,,,,,,,,,,,,,,,,,,,,,,,,,,,,,,,,,,,,,,1698.9852510019991,None,1698.9852510019991,None,1698.9852510019991,None,c,1,0.7658741809973435,1700.5198289500004,None,1700.5198289500004,None,1700.5198289500004,None,1701.3359257150005,None,1701.3359257150005,None,1701.3359257150005,None,1701.3359257150005,None,,,,,,,,,,,,,,,,,,,,,,,,,,,,,,,,,,,,,,,,,,,,001,50,2020_Jan_30_1514,spring_faces,3.1.5,59.996196721594416,
condition files/Stage1_1.xlsx,,B4,T4,m,"['c', 'm']","['Clue', 'Monopoly']","[-0.15, 0.5]","[0.15, 0.5]",1,1,,,,,,,,,0,10,10,10,0,4,4,7,,,,,,,,,,,,,,,,,,,,,,,,,,,,,,,,,,,,,,,,,,,,,,,,,,,,,,,1703.3026402959986,None,1703.3026402959986,None,1703.3026402959986,None,m,1,2.4172150470003544,1704.8524215329999,None,1704.8524215329999,None,1704.8524215329999,None,1707.3363406669996,None,1707.3363406669996,None,1707.3363406669996,None,1707.3363406669996,None,,,,,,,,,,,,,,,,,,,,,,,,,,,,,,,,,,,,,,,,,,,,001,50,2020_Jan_30_1514,spring_faces,3.1.5,59.996196721594416,
condition files/Stage1_1.xlsx,,B1,T2,c,"['c', 'm']","['Clue', 'Monopoly']","[-0.15, 0.5]","[0.15, 0.5]",1,1,,,,,,,,,0,10,10,10,0,5,5,1,,,,,,,,,,,,,,,,,,,,,,,,,,,,,,,,,,,,,,,,,,,,,,,,,,,,,,,1709.3017552130004,None,1709.3017552130004,None,1709.3017552130004,None,c,1,2.656676561997301,1710.8371327349996,None,1710.8371327349996,None,1710.8371327349996,None,1713.5520624519995,None,1713.5520624519995,None,1713.5520624519995,None,1713.5520624519995,None,,,,,,,,,,,,,,,,,,,,,,,,,,,,,,,,,,,,,,,,,,,,001,50,2020_Jan_30_1514,spring_faces,3.1.5,59.996196721594416,
condition files/Stage1_1.xlsx,,T1,B1,c,"['c', 'm']","['Clue', 'Monopoly']","[-0.15, 0.5]","[0.15, 0.5]",1,1,,,,,,,,,0,10,10,10,0,6,6,0,,,,,,,,,,,,,,,,,,,,,,,,,,,,,,,,,,,,,,,,,,,,,,,,,,,,,,,1715.519078317,None,1715.519078317,None,1715.519078317,None,c,1,0.8725845810004103,1717.053198106998,None,1717.053198106998,None,1717.053198106998,None,1717.985894008998,None,1717.985894008998,None,1717.985894008998,None,1717.985894008998,None,,,,,,,,,,,,,,,,,,,,,,,,,,,,,,,,,,,,,,,,,,,,001,50,2020_Jan_30_1514,spring_faces,3.1.5,59.996196721594416,
condition files/Stage1_1.xlsx,,T4,B3,m,"['c', 'm']","['Clue', 'Monopoly']","[-0.15, 0.5]","[0.15, 0.5]",1,1,,,,,,,,,0,10,10,10,0,7,7,6,,,,,,,,,,,,,,,,,,,,,,,,,,,,,,,,,,,,,,,,,,,,,,,,,,,,,,,1719.952221448999,None,1719.952221448999,None,1719.952221448999,None,m,1,1.7836770890025946,1721.4860023699985,None,1721.4860023699985,None,1721.4860023699985,None,1723.335586887999,None,1723.335586887999,None,1723.335586887999,None,1723.335586887999,None,,,,,,,,,,,,,,,,,,,,,,,,,,,,,,,,,,,,,,,,,,,,001,50,2020_Jan_30_1514,spring_faces,3.1.5,59.996196721594416,
condition files/Stage1_2.xlsx,,T1,B2,m,"['c', 'm']","['Clue', 'Monopoly']","[-0.15, 0.5]","[0.15, 0.5]",1,1,,,,,,,,,0,11,11,11,0,0,0,2,,,,,,,,,,,,,,,,,,,,,,,,,,,,,,,,,,,,,,,,,,,,,,,,,,,,,,,1725.3186628859985,None,1725.3186628859985,None,1725.3186628859985,None,m,1,1.2972752899986517,1726.8524356999988,None,1726.8524356999988,None,1726.8524356999988,None,1728.2026940739997,None,1728.2026940739997,None,1728.2026940739997,None,1728.2026940739997,None,,,,,,,,,,,,,,,,,,,,,,,,,,,,,,,,,,,,,,,,,,,,001,50,2020_Jan_30_1514,spring_faces,3.1.5,59.996196721594416,
condition files/Stage1_2.xlsx,,B4,T3,c,"['c', 'm']","['Clue', 'Monopoly']","[-0.15, 0.5]","[0.15, 0.5]",1,1,,,,,,,,,0,11,11,11,0,1,1,5,,,,,,,,,,,,,,,,,,,,,,,,,,,,,,,,,,,,,,,,,,,,,,,,,,,,,,,1730.1689450179983,None,1730.1689450179983,None,1730.1689450179983,None,c,1,1.1988191259988525,1731.7028674709982,None,1731.7028674709982,None,1731.7028674709982,None,1732.9689465349984,None,1732.9689465349984,None,1732.9689465349984,None,1732.9689465349984,None,,,,,,,,,,,,,,,,,,,,,,,,,,,,,,,,,,,,,,,,,,,,001,50,2020_Jan_30_1514,spring_faces,3.1.5,59.996196721594416,
condition files/Stage1_2.xlsx,,T4,B4,m,"['c', 'm']","['Clue', 'Monopoly']","[-0.15, 0.5]","[0.15, 0.5]",1,1,,,,,,,,,0,11,11,11,0,2,2,7,,,,,,,,,,,,,,,,,,,,,,,,,,,,,,,,,,,,,,,,,,,,,,,,,,,,,,,1734.9184180800003,None,1734.9184180800003,None,1734.9184180800003,None,m,1,1.1199003309993714,1736.4538001869987,None,1736.4538001869987,None,1736.4538001869987,None,1737.6370035369982,None,1737.6370035369982,None,1737.6370035369982,None,1737.6370035369982,None,,,,,,,,,,,,,,,,,,,,,,,,,,,,,,,,,,,,,,,,,,,,001,50,2020_Jan_30_1514,spring_faces,3.1.5,59.996196721594416,
condition files/Stage1_2.xlsx,,T3,B3,c,"['c', 'm']","['Clue', 'Monopoly']","[-0.15, 0.5]","[0.15, 0.5]",1,1,,,,,,,,,0,11,11,11,0,3,3,4,,,,,,,,,,,,,,,,,,,,,,,,,,,,,,,,,,,,,,,,,,,,,,,,,,,,,,,1739.6016694749997,None,1739.6016694749997,None,1739.6016694749997,None,c,1,1.0601196589996107,1741.1375589269992,None,1741.1375589269992,None,1741.1375589269992,None,1742.2529980020008,None,1742.2529980020008,None,1742.2529980020008,None,1742.2529980020008,None,,,,,,,,,,,,,,,,,,,,,,,,,,,,,,,,,,,,,,,,,,,,001,50,2020_Jan_30_1514,spring_faces,3.1.5,59.996196721594416,
condition files/Stage1_2.xlsx,,B1,T1,c,"['c', 'm']","['Clue', 'Monopoly']","[-0.15, 0.5]","[0.15, 0.5]",1,1,,,,,,,,,0,11,11,11,0,4,4,0,,,,,,,,,,,,,,,,,,,,,,,,,,,,,,,,,,,,,,,,,,,,,,,,,,,,,,,1744.218641364001,None,1744.218641364001,None,1744.218641364001,None,c,1,2.604606627999601,1745.7690849319988,None,1745.7690849319988,None,1745.7690849319988,None,1748.4355251439993,None,1748.4355251439993,None,1748.4355251439993,None,1748.4355251439993,None,,,,,,,,,,,,,,,,,,,,,,,,,,,,,,,,,,,,,,,,,,,,001,50,2020_Jan_30_1514,spring_faces,3.1.5,59.996196721594416,
condition files/Stage1_2.xlsx,,B3,T4,m,"['c', 'm']","['Clue', 'Monopoly']","[-0.15, 0.5]","[0.15, 0.5]",1,1,,,,,,,,,0,11,11,11,0,5,5,6,,,,,,,,,,,,,,,,,,,,,,,,,,,,,,,,,,,,,,,,,,,,,,,,,,,,,,,1750.402024742998,None,1750.402024742998,None,1750.402024742998,None,m,1,2.757245544999023,1751.9525091319992,None,1751.9525091319992,None,1751.9525091319992,None,1754.7856389650005,None,1754.7856389650005,None,1754.7856389650005,None,1754.7856389650005,None,,,,,,,,,,,,,,,,,,,,,,,,,,,,,,,,,,,,,,,,,,,,001,50,2020_Jan_30_1514,spring_faces,3.1.5,59.996196721594416,
condition files/Stage1_2.xlsx,,B2,T2,m,"['c', 'm']","['Clue', 'Monopoly']","[-0.15, 0.5]","[0.15, 0.5]",1,1,,,,,,,,,0,11,11,11,0,6,6,3,,,,,,,,,,,,,,,,,,,,,,,,,,,,,,,,,,,,,,,,,,,,,,,,,,,,,,,1756.7351058519998,None,1756.7351058519998,None,1756.7351058519998,None,m,1,2.328689794998354,1758.2690344369985,None,1758.2690344369985,None,1758.2690344369985,None,1760.6520519990008,None,1760.6520519990008,None,1760.6520519990008,None,1760.6520519990008,None,,,,,,,,,,,,,,,,,,,,,,,,,,,,,,,,,,,,,,,,,,,,001,50,2020_Jan_30_1514,spring_faces,3.1.5,59.996196721594416,
condition files/Stage1_2.xlsx,,T2,B1,c,"['c', 'm']","['Clue', 'Monopoly']","[-0.15, 0.5]","[0.15, 0.5]",1,1,,,,,,,,,0,11,11,11,0,7,7,1,,,,,,,,,,,,,,,,,,,,,,,,,,,,,,,,,,,,,,,,,,,,,,,,,,,,,,,1762.6190607610006,None,1762.6190607610006,None,1762.6190607610006,None,c,1,1.404825821002305,1764.1528897440003,None,1764.1528897440003,None,1764.1528897440003,None,1765.6197911140007,None,1765.6197911140007,None,1765.6197911140007,None,1765.6197911140007,None,,,,,,,,,,,,,,,,,,,,,,,,,,,,,,,,,,,,,,,,,,,,001,50,2020_Jan_30_1514,spring_faces,3.1.5,59.996196721594416,
,,,,,,,,,,,,,,,,,,,,,,,,,,,,,,,,,,,,,,,,,,,,,,,,,,,,,,,,,,,,,,,,,,,,,,,,,,,,,,,,,,,,,,,,,,,,,,,,,,,,,,,,,,,,,,,,1767.6026080739975,None,space,3.275444096998399,1772.6023258019995,None,,,,,,,,,,,,,,,,,,,,,,,,,,,,,,001,50,2020_Jan_30_1514,spring_faces,3.1.5,59.996196721594416,
condition files/Stage2_1.xlsx,,B6,T6,r,"['s', 'r']","['Stratego', 'Risk']","[-0.15, 0.5]","[0.15, 0.5]",1,1,,,,,,,,,,,,,,,,,0,0,0,0,0,0,0,1,,,,,,,,,,,,,,,,,,,,,,,,,,,,,,,,,,,,,,,,,,,,,,,1775.9359356780005,None,1775.9359356780005,None,1775.9359356780005,None,s,0,2.7435679730006086,1777.454066749,None,1777.454066749,None,1777.454066749,None,1780.269106423999,None,1780.269106423999,None,1780.269106423999,None,1780.269106423999,None,,,,,,,,,,,,,,,1772.6023258019995,None,,,,,,,,,,,,,,,,,,,,,,,,,,,,001,50,2020_Jan_30_1514,spring_faces,3.1.5,59.996196721594416,
condition files/Stage2_1.xlsx,,B2,T2,r,"['s', 'r']","['Stratego', 'Risk']","[-0.15, 0.5]","[0.15, 0.5]",1,1,,,,,,,,,,,,,,,,,0,0,0,0,0,1,1,3,,,,,,,,,,,,,,,,,,,,,,,,,,,,,,,,,,,,,,,,,,,,,,,1782.218888604999,None,1782.218888604999,None,1782.218888604999,None,s,0,0.9567188949986303,1783.7530597629993,None,1783.7530597629993,None,1783.7530597629993,None,1784.7694672689977,None,1784.7694672689977,None,1784.7694672689977,None,1784.7694672689977,None,,,,,,,,,,,,,,,,,,,,,,,,,,,,,,,,,,,,,,,,,,,,001,50,2020_Jan_30_1514,spring_faces,3.1.5,59.996196721594416,
condition files/Stage2_1.xlsx,,T1,B1,s,"['s', 'r']","['Stratego', 'Risk']","[-0.15, 0.5]","[0.15, 0.5]",1,1,,,,,,,,,,,,,,,,,0,0,0,0,0,2,2,2,,,,,,,,,,,,,,,,,,,,,,,,,,,,,,,,,,,,,,,,,,,,,,,1786.7350210650002,None,1786.7350210650002,None,1786.7350210650002,None,s,1,0.9195980320000672,1788.2701245839999,None,1788.2701245839999,None,1788.2701245839999,None,1789.269138970998,None,1789.269138970998,None,1789.269138970998,None,1789.269138970998,None,,,,,,,,,,,,,,,,,,,,,,,,,,,,,,,,,,,,,,,,,,,,001,50,2020_Jan_30_1514,spring_faces,3.1.5,59.996196721594416,
condition files/Stage2_1.xlsx,,T3,B3,s,"['s', 'r']","['Stratego', 'Risk']","[-0.15, 0.5]","[0.15, 0.5]",1,1,,,,,,,,,,,,,,,,,0,0,0,0,0,3,3,4,,,,,,,,,,,,,,,,,,,,,,,,,,,,,,,,,,,,,,,,,,,,,,,1791.2190576510002,None,1791.2190576510002,None,1791.2190576510002,None,s,1,1.7170793549994414,1792.7685741889982,None,1792.7685741889982,None,1792.7685741889982,None,1794.5354921049984,None,1794.5354921049984,None,1794.5354921049984,None,1794.5354921049984,None,,,,,,,,,,,,,,,,,,,,,,,,,,,,,,,,,,,,,,,,,,,,001,50,2020_Jan_30_1514,spring_faces,3.1.5,59.996196721594416,
condition files/Stage2_1.xlsx,,T5,B5,s,"['s', 'r']","['Stratego', 'Risk']","[-0.15, 0.5]","[0.15, 0.5]",1,1,,,,,,,,,,,,,,,,,0,0,0,0,0,4,4,0,,,,,,,,,,,,,,,,,,,,,,,,,,,,,,,,,,,,,,,,,,,,,,,1796.5021658240003,None,1796.5021658240003,None,1796.5021658240003,None,r,0,1.5696082889990066,1798.036093546998,None,1798.036093546998,None,1798.036093546998,None,1799.6686251190004,None,1799.6686251190004,None,1799.6686251190004,None,1799.6686251190004,None,,,,,,,,,,,,,,,,,,,,,,,,,,,,,,,,,,,,,,,,,,,,001,50,2020_Jan_30_1514,spring_faces,3.1.5,59.996196721594416,
condition files/Stage2_1.xlsx,,B4,T4,r,"['s', 'r']","['Stratego', 'Risk']","[-0.15, 0.5]","[0.15, 0.5]",1,1,,,,,,,,,,,,,,,,,0,0,0,0,0,5,5,5,,,,,,,,,,,,,,,,,,,,,,,,,,,,,,,,,,,,,,,,,,,,,,,1801.6356649339978,None,1801.6356649339978,None,1801.6356649339978,None,r,1,1.939699288999691,1803.1859197890008,None,1803.1859197890008,None,1803.1859197890008,None,1805.1863356680005,None,1805.1863356680005,None,1805.1863356680005,None,1805.1863356680005,None,,,,,,,,,,,,,,,,,,,,,,,,,,,,,,,,,,,,,,,,,,,,001,50,2020_Jan_30_1514,spring_faces,3.1.5,59.996196721594416,
condition files/Stage2_2.xlsx,,B1,T1,s,"['s', 'r']","['Stratego', 'Risk']","[-0.15, 0.5]","[0.15, 0.5]",1,1,,,,,,,,,,,,,,,,,0,1,1,1,0,0,0,2,,,,,,,,,,,,,,,,,,,,,,,,,,,,,,,,,,,,,,,,,,,,,,,1807.1685927849976,None,1807.1685927849976,None,1807.1685927849976,None,r,0,1.4452684550014965,1808.7044343449998,None,1808.7044343449998,None,1808.7044343449998,None,1810.2031512639987,None,1810.2031512639987,None,1810.2031512639987,None,1810.2031512639987,None,,,,,,,,,,,,,,,,,,,,,,,,,,,,,,,,,,,,,,,,,,,,001,50,2020_Jan_30_1514,spring_faces,3.1.5,59.996196721594416,
condition files/Stage2_2.xlsx,,B3,T3,s,"['s', 'r']","['Stratego', 'Risk']","[-0.15, 0.5]","[0.15, 0.5]",1,1,,,,,,,,,,,,,,,,,0,1,1,1,0,1,1,4,,,,,,,,,,,,,,,,,,,,,,,,,,,,,,,,,,,,,,,,,,,,,,,1812.1688276210007,None,1812.1688276210007,None,1812.1688276210007,None,r,0,1.1832199769996805,1813.7184705319996,None,1813.7184705319996,None,1813.7184705319996,None,1814.9522690759986,None,1814.9522690759986,None,1814.9522690759986,None,1814.9522690759986,None,,,,,,,,,,,,,,,,,,,,,,,,,,,,,,,,,,,,,,,,,,,,001,50,2020_Jan_30_1514,spring_faces,3.1.5,59.996196721594416,
condition files/Stage2_2.xlsx,,T2,B2,r,"['s', 'r']","['Stratego', 'Risk']","[-0.15, 0.5]","[0.15, 0.5]",1,1,,,,,,,,,,,,,,,,,0,1,1,1,0,2,2,3,,,,,,,,,,,,,,,,,,,,,,,,,,,,,,,,,,,,,,,,,,,,,,,1816.9184158139979,None,1816.9184158139979,None,1816.9184158139979,None,r,1,1.1540318330007722,1818.451684839998,None,1818.451684839998,None,1818.451684839998,None,1819.6692348119977,None,1819.6692348119977,None,1819.6692348119977,None,1819.6692348119977,None,,,,,,,,,,,,,,,,,,,,,,,,,,,,,,,,,,,,,,,,,,,,001,50,2020_Jan_30_1514,spring_faces,3.1.5,59.996196721594416,
condition files/Stage2_2.xlsx,,T4,B4,r,"['s', 'r']","['Stratego', 'Risk']","[-0.15, 0.5]","[0.15, 0.5]",1,1,,,,,,,,,,,,,,,,,0,1,1,1,0,3,3,5,,,,,,,,,,,,,,,,,,,,,,,,,,,,,,,,,,,,,,,,,,,,,,,1821.6355494960007,None,1821.6355494960007,None,1821.6355494960007,None,r,1,1.0277905449984246,1823.1698815620002,None,1823.1698815620002,None,1823.1698815620002,None,1824.2520758520004,None,1824.2520758520004,None,1824.2520758520004,None,1824.2520758520004,None,,,,,,,,,,,,,,,,,,,,,,,,,,,,,,,,,,,,,,,,,,,,001,50,2020_Jan_30_1514,spring_faces,3.1.5,59.996196721594416,
condition files/Stage2_2.xlsx,,T6,B6,r,"['s', 'r']","['Stratego', 'Risk']","[-0.15, 0.5]","[0.15, 0.5]",1,1,,,,,,,,,,,,,,,,,0,1,1,1,0,4,4,1,,,,,,,,,,,,,,,,,,,,,,,,,,,,,,,,,,,,,,,,,,,,,,,1826.2184141139987,None,1826.2184141139987,None,1826.2184141139987,None,s,0,2.6852731309991213,1827.7524426519994,None,1827.7524426519994,None,1827.7524426519994,None,1830.5027760459998,None,1830.5027760459998,None,1830.5027760459998,None,1830.5027760459998,None,,,,,,,,,,,,,,,,,,,,,,,,,,,,,,,,,,,,,,,,,,,,001,50,2020_Jan_30_1514,spring_faces,3.1.5,59.996196721594416,
condition files/Stage2_2.xlsx,,B5,T5,s,"['s', 'r']","['Stratego', 'Risk']","[-0.15, 0.5]","[0.15, 0.5]",1,1,,,,,,,,,,,,,,,,,0,1,1,1,0,5,5,0,,,,,,,,,,,,,,,,,,,,,,,,,,,,,,,,,,,,,,,,,,,,,,,1832.468348145001,None,1832.468348145001,None,1832.468348145001,None,r,0,1.4753162009983498,1834.0024631310007,None,1834.0024631310007,None,1834.0024631310007,None,1835.5526991719998,None,1835.5526991719998,None,1835.5526991719998,None,1835.5526991719998,None,,,,,,,,,,,,,,,,,,,,,,,,,,,,,,,,,,,,,,,,,,,,001,50,2020_Jan_30_1514,spring_faces,3.1.5,59.996196721594416,
condition files/Stage2_1.xlsx,,T3,B3,s,"['s', 'r']","['Stratego', 'Risk']","[-0.15, 0.5]","[0.15, 0.5]",1,1,,,,,,,,,,,,,,,,,0,2,2,2,0,0,0,4,,,,,,,,,,,,,,,,,,,,,,,,,,,,,,,,,,,,,,,,,,,,,,,1837.5196432289995,None,1837.5196432289995,None,1837.5196432289995,None,s,1,0.7764090899981966,1839.0533148299983,None,1839.0533148299983,None,1839.0533148299983,None,1839.8858068439986,None,1839.8858068439986,None,1839.8858068439986,None,1839.8858068439986,None,,,,,,,,,,,,,,,,,,,,,,,,,,,,,,,,,,,,,,,,,,,,001,50,2020_Jan_30_1514,spring_faces,3.1.5,59.996196721594416,
condition files/Stage2_1.xlsx,,B4,T4,r,"['s', 'r']","['Stratego', 'Risk']","[-0.15, 0.5]","[0.15, 0.5]",1,1,,,,,,,,,,,,,,,,,0,2,2,2,0,1,1,5,,,,,,,,,,,,,,,,,,,,,,,,,,,,,,,,,,,,,,,,,,,,,,,1841.8515079370009,None,1841.8515079370009,None,1841.8515079370009,None,r,1,0.2521369780006353,1843.3855826969993,None,1843.3855826969993,None,1843.3855826969993,None,1843.703813076998,None,1843.703813076998,None,1843.703813076998,None,1843.703813076998,None,,,,,,,,,,,,,,,,,,,,,,,,,,,,,,,,,,,,,,,,,,,,001,50,2020_Jan_30_1514,spring_faces,3.1.5,59.996196721594416,
condition files/Stage2_1.xlsx,,B6,T6,r,"['s', 'r']","['Stratego', 'Risk']","[-0.15, 0.5]","[0.15, 0.5]",1,1,,,,,,,,,,,,,,,,,0,2,2,2,0,2,2,1,,,,,,,,,,,,,,,,,,,,,,,,,,,,,,,,,,,,,,,,,,,,,,,1845.6687178280008,None,1845.6687178280008,None,1845.6687178280008,None,r,1,1.1551827770017553,1847.202529596001,None,1847.202529596001,None,1847.202529596001,None,1848.4189943929996,None,1848.4189943929996,None,1848.4189943929996,None,1848.4189943929996,None,,,,,,,,,,,,,,,,,,,,,,,,,,,,,,,,,,,,,,,,,,,,001,50,2020_Jan_30_1514,spring_faces,3.1.5,59.996196721594416,
condition files/Stage2_1.xlsx,,B2,T2,r,"['s', 'r']","['Stratego', 'Risk']","[-0.15, 0.5]","[0.15, 0.5]",1,1,,,,,,,,,,,,,,,,,0,2,2,2,0,3,3,3,,,,,,,,,,,,,,,,,,,,,,,,,,,,,,,,,,,,,,,,,,,,,,,1850.3854534069978,None,1850.3854534069978,None,1850.3854534069978,None,r,1,1.0624340210015362,1851.9352787589996,None,1851.9352787589996,None,1851.9352787589996,None,1853.0527617129992,None,1853.0527617129992,None,1853.0527617129992,None,1853.0527617129992,None,,,,,,,,,,,,,,,,,,,,,,,,,,,,,,,,,,,,,,,,,,,,001,50,2020_Jan_30_1514,spring_faces,3.1.5,59.996196721594416,
condition files/Stage2_1.xlsx,,T5,B5,s,"['s', 'r']","['Stratego', 'Risk']","[-0.15, 0.5]","[0.15, 0.5]",1,1,,,,,,,,,,,,,,,,,0,2,2,2,0,4,4,0,,,,,,,,,,,,,,,,,,,,,,,,,,,,,,,,,,,,,,,,,,,,,,,1855.019183204,None,1855.019183204,None,1855.019183204,None,s,1,1.8999938839988317,1856.5536759729985,None,1856.5536759729985,None,1856.5536759729985,None,1858.5355564679994,None,1858.5355564679994,None,1858.5355564679994,None,1858.5355564679994,None,,,,,,,,,,,,,,,,,,,,,,,,,,,,,,,,,,,,,,,,,,,,001,50,2020_Jan_30_1514,spring_faces,3.1.5,59.996196721594416,
condition files/Stage2_1.xlsx,,T1,B1,s,"['s', 'r']","['Stratego', 'Risk']","[-0.15, 0.5]","[0.15, 0.5]",1,1,,,,,,,,,,,,,,,,,0,2,2,2,0,5,5,2,,,,,,,,,,,,,,,,,,,,,,,,,,,,,,,,,,,,,,,,,,,,,,,1860.4856108450003,None,1860.4856108450003,None,1860.4856108450003,None,r,0,1.953877554002247,1862.035817068001,None,1862.035817068001,None,1862.035817068001,None,1864.0527486760002,None,1864.0527486760002,None,1864.0527486760002,None,1864.0527486760002,None,,,,,,,,,,,,,,,,,,,,,,,,,,,,,,,,,,,,,,,,,,,,001,50,2020_Jan_30_1514,spring_faces,3.1.5,59.996196721594416,
condition files/Stage2_2.xlsx,,B5,T5,s,"['s', 'r']","['Stratego', 'Risk']","[-0.15, 0.5]","[0.15, 0.5]",1,1,,,,,,,,,,,,,,,,,0,3,3,3,0,0,0,0,,,,,,,,,,,,,,,,,,,,,,,,,,,,,,,,,,,,,,,,,,,,,,,1866.0363740030007,None,1866.0363740030007,None,1866.0363740030007,None,s,1,1.6528176040010294,1867.5689032400005,None,1867.5689032400005,None,1867.5689032400005,None,1869.2858785639983,None,1869.2858785639983,None,1869.2858785639983,None,1869.2858785639983,None,,,,,,,,,,,,,,,,,,,,,,,,,,,,,,,,,,,,,,,,,,,,001,50,2020_Jan_30_1514,spring_faces,3.1.5,59.996196721594416,
condition files/Stage2_2.xlsx,,T2,B2,r,"['s', 'r']","['Stratego', 'Risk']","[-0.15, 0.5]","[0.15, 0.5]",1,1,,,,,,,,,,,,,,,,,0,3,3,3,0,1,1,3,,,,,,,,,,,,,,,,,,,,,,,,,,,,,,,,,,,,,,,,,,,,,,,1871.2524649109982,None,1871.2524649109982,None,1871.2524649109982,None,r,1,1.875418871997681,1872.8023498799994,None,1872.8023498799994,None,1872.8023498799994,None,1874.7367583909981,None,1874.7367583909981,None,1874.7367583909981,None,1874.7367583909981,None,,,,,,,,,,,,,,,,,,,,,,,,,,,,,,,,,,,,,,,,,,,,001,50,2020_Jan_30_1514,spring_faces,3.1.5,59.996196721594416,
condition files/Stage2_2.xlsx,,B1,T1,s,"['s', 'r']","['Stratego', 'Risk']","[-0.15, 0.5]","[0.15, 0.5]",1,1,,,,,,,,,,,,,,,,,0,3,3,3,0,2,2,2,,,,,,,,,,,,,,,,,,,,,,,,,,,,,,,,,,,,,,,,,,,,,,,1876.701948812999,None,1876.701948812999,None,1876.701948812999,None,r,0,1.289608159000636,1878.2520715249993,None,1878.2520715249993,None,1878.2520715249993,None,1879.6043410169987,None,1879.6043410169987,None,1879.6043410169987,None,1879.6043410169987,None,,,,,,,,,,,,,,,,,,,,,,,,,,,,,,,,,,,,,,,,,,,,001,50,2020_Jan_30_1514,spring_faces,3.1.5,59.996196721594416,
condition files/Stage2_2.xlsx,,T4,B4,r,"['s', 'r']","['Stratego', 'Risk']","[-0.15, 0.5]","[0.15, 0.5]",1,1,,,,,,,,,,,,,,,,,0,3,3,3,0,3,3,5,,,,,,,,,,,,,,,,,,,,,,,,,,,,,,,,,,,,,,,,,,,,,,,1881.568859097999,None,1881.568859097999,None,1881.568859097999,None,r,1,1.5586499490018468,1883.1191263949986,None,1883.1191263949986,None,1883.1191263949986,None,1884.7528135969987,None,1884.7528135969987,None,1884.7528135969987,None,1884.7528135969987,None,,,,,,,,,,,,,,,,,,,,,,,,,,,,,,,,,,,,,,,,,,,,001,50,2020_Jan_30_1514,spring_faces,3.1.5,59.996196721594416,
condition files/Stage2_2.xlsx,,B3,T3,s,"['s', 'r']","['Stratego', 'Risk']","[-0.15, 0.5]","[0.15, 0.5]",1,1,,,,,,,,,,,,,,,,,0,3,3,3,0,4,4,4,,,,,,,,,,,,,,,,,,,,,,,,,,,,,,,,,,,,,,,,,,,,,,,1886.7022337710005,None,1886.7022337710005,None,1886.7022337710005,None,s,1,0.9691266999980144,1888.2525723439976,None,1888.2525723439976,None,1888.2525723439976,None,1889.3026425530006,None,1889.3026425530006,None,1889.3026425530006,None,1889.3026425530006,None,,,,,,,,,,,,,,,,,,,,,,,,,,,,,,,,,,,,,,,,,,,,001,50,2020_Jan_30_1514,spring_faces,3.1.5,59.996196721594416,
condition files/Stage2_2.xlsx,,T6,B6,r,"['s', 'r']","['Stratego', 'Risk']","[-0.15, 0.5]","[0.15, 0.5]",1,1,,,,,,,,,,,,,,,,,0,3,3,3,0,5,5,1,,,,,,,,,,,,,,,,,,,,,,,,,,,,,,,,,,,,,,,,,,,,,,,1891.2522419880006,None,1891.2522419880006,None,1891.2522419880006,None,r,1,1.3954554720003216,1892.802206422999,None,1892.802206422999,None,1892.802206422999,None,1894.2527451540009,None,1894.2527451540009,None,1894.2527451540009,None,1894.2527451540009,None,,,,,,,,,,,,,,,,,,,,,,,,,,,,,,,,,,,,,,,,,,,,001,50,2020_Jan_30_1514,spring_faces,3.1.5,59.996196721594416,
condition files/Stage2_1.xlsx,,T5,B5,s,"['s', 'r']","['Stratego', 'Risk']","[-0.15, 0.5]","[0.15, 0.5]",1,1,,,,,,,,,,,,,,,,,0,4,4,4,0,0,0,0,,,,,,,,,,,,,,,,,,,,,,,,,,,,,,,,,,,,,,,,,,,,,,,1896.2355956539977,None,1896.2355956539977,None,1896.2355956539977,None,s,1,2.2359472429998277,1897.785768362999,None,1897.785768362999,None,1897.785768362999,None,1900.1020690689984,None,1900.1020690689984,None,1900.1020690689984,None,1900.1020690689984,None,,,,,,,,,,,,,,,,,,,,,,,,,,,,,,,,,,,,,,,,,,,,001,50,2020_Jan_30_1514,spring_faces,3.1.5,59.996196721594416,
