condsFile,subStage,cue1,cue2,correct,responseKeys,responseNames,cue1Position,cue2Position,cue1Opacity,cue2Opacity,stageLoop0.thisRepN,stageLoop0.thisTrialN,stageLoop0.thisN,stageLoop0.thisIndex,blockLoop0.thisRepN,blockLoop0.thisTrialN,blockLoop0.thisN,blockLoop0.thisIndex,stage1Loop.thisRepN,stage1Loop.thisTrialN,stage1Loop.thisN,stage1Loop.thisIndex,blockLoop1.thisRepN,blockLoop1.thisTrialN,blockLoop1.thisN,blockLoop1.thisIndex,stage2Loop.thisRepN,stage2Loop.thisTrialN,stage2Loop.thisN,stage2Loop.thisIndex,blockLoop2.thisRepN,blockLoop2.thisTrialN,blockLoop2.thisN,blockLoop2.thisIndex,testLoop.thisRepN,testLoop.thisTrialN,testLoop.thisN,testLoop.thisIndex,blockLoopTest.thisRepN,blockLoopTest.thisTrialN,blockLoopTest.thisN,blockLoopTest.thisIndex,cuePics,id_instr_text.started,id_instr_text.stopped,space_to_continue_2.started,space_to_continue_2.stopped,end_instructions_resp_3.keys,end_instructions_resp_3.rt,end_instructions_resp_3.started,end_instructions_resp_3.stopped,id_input_instr.started,id_input_instr.stopped,id_input_rect.started,id_input_rect.stopped,id_input_resp.keys,id_input_resp.rt,id_input_resp.started,id_input_resp.stopped,sonaID,id_input_text.started,id_input_text.stopped,final_text.started,final_text.stopped,instructions.started,instructions.stopped,end_instructions_resp.keys,end_instructions_resp.rt,end_instructions_resp.started,end_instructions_resp.stopped,space_to_continue.started,space_to_continue.stopped,instructions_stage0.started,instructions_stage0.stopped,end_instructions_resp_stage0.keys,end_instructions_resp_stage0.rt,end_instructions_resp_stage0.started,end_instructions_resp_stage0.stopped,space_to_continue_stage0.started,space_to_continue_stage0.stopped,text.started,text.stopped,resp_text1.started,resp_text1.stopped,resp_text2.started,resp_text2.stopped,trial_resp.keys,trial_resp.corr,trial_resp.rt,trial_resp.started,trial_resp.stopped,cue1Image.started,cue1Image.stopped,cue2Image.started,cue2Image.stopped,cue1Image_fb.started,cue1Image_fb.stopped,cue2Image_fb.started,cue2Image_fb.stopped,fb_text_answer.started,fb_text_answer.stopped,feedback_image.started,feedback_image.stopped,instructions_stage1.started,instructions_stage1.stopped,end_instructions_resp_stage1.keys,end_instructions_resp_stage1.rt,end_instructions_resp_stage1.started,end_instructions_resp_stage1.stopped,space_to_continue_stage1.started,space_to_continue_stage1.stopped,instructions_2.started,instructions_2.stopped,end_instructions_resp_2.keys,end_instructions_resp_2.rt,end_instructions_resp_2.started,end_instructions_resp_2.stopped,press_space_to_continue_stage2.started,press_space_to_continue_stage2.stopped,instructions_testStage1.started,instructions_testStage1.stopped,end_instructions_resp_test1.keys,end_instructions_resp_test1.rt,end_instructions_resp_test1.started,end_instructions_resp_test1.stopped,press_space_to_continue_test1.started,press_space_to_continue_test1.stopped,cue1Image_testChoice.started,cue1Image_testChoice.stopped,cue2Image_testChoice.started,cue2Image_testChoice.stopped,test_resp.keys,test_resp.corr,test_resp.rt,test_resp.started,test_resp.stopped,cue1Image_testConf.started,cue1Image_testConf.stopped,cue2Image_testConf.started,cue2Image_testConf.stopped,conf_reminder.started,conf_reminder.stopped,conf_rating.response,conf_rating.rt,conf_rating.started,conf_rating.stopped,session,participant,date,expName,psychopyVersion,frameRate,
,,,,,,,,,,,,,,,,,,,,,,,,,,,,,,,,,,,,,,,,,,,"{'none': 'pictures/20M_AN_C.png', 'alpha': 'pictures/SHINEd_pepper.png', 'beta': 'pictures/SHINEd_pear.png', 'theta': 'pictures/SHINEd_melon.png', 'phi': 'pictures/SHINEd_apple.png', 'T1': 'pictures/20M_AN_C.png', 'T2': 'pictures/34M_AN_C.png', 'T3': 'pictures/38M_AN_C.png', 'T4': 'pictures/36M_AN_C.png', 'T5': 'pictures/26M_AN_C.png', 'T6': 'pictures/33M_AN_C.png', 'B1': 'pictures/31M_NE_C.png', 'B2': 'pictures/32M_NE_C.png', 'B3': 'pictures/23M_NE_C.png', 'B4': 'pictures/37M_NE_C.png', 'B5': 'pictures/22M_NE_C.png', 'B6': 'pictures/25M_NE_C.png'}",9.178343868999946,None,14.178351950999968,None,space,1001.4294607939996,14.178351950999968,None,,,,,,,,,,,,,,,,,,,,,,,,,,,,,,,,,,,,,,,,,,,,,,,,,,,,,,,,,,,,,,,,,,,,,,,,,,,,,,,,,,,,,,,,,,,,,,,,001,59,2020_Feb_04_1042,spring_faces,3.1.5,60.11358461809857,
,,,,,,,,,,,,,,,,,,,,,,,,,,,,,,,,,,,,,,,,,,,,,,,,,,,,1015.9950909899999,None,1015.9950909899999,None,"['0', '7', '0', '9', 'p', 'e', 'backspace', 'backspace', 'k', 'a', 'b', 'i', 's', 'h', 'backspace', '0', '7', '0', '9', 'k', 'a', 'b', 'i', 's', '0', '7', '0', '9', 'k', 'a', 'b', 'i', 's']","[6.060825348000435, 6.364746858999752, 11.884730722999848, 12.268681915000343, 22.428784718000315, 23.43675680999968, 29.18074284999966, 29.548741558000074, 30.17275710099966, 30.508807571000034, 34.97276031900037, 35.24471318700034, 35.564729921000435, 35.708814456000255, 42.12482131199977, 60.10881439199966, 61.02076345600017, 61.38876851199984, 61.62874436099992, 67.85274995599957, 68.44469243900039, 70.63676119899992, 71.61274994500036, 71.98074125899984, 86.04469806700035, 86.22076897599982, 86.36474801999975, 86.57277522599998, 87.61275467999985, 87.8367551729998, 88.15676409200023, 88.49284465300025, 88.6207661340004]",1015.9950909899999,None,,,,,,,,,,,,,,,,,,,,,,,,,,,,,,,,,,,,,,,,,,,,,,,,,,,,,,,,,,,,,,,,,,,,,,,,,,,,,,,,,,,,,,,,001,59,2020_Feb_04_1042,spring_faces,3.1.5,60.11358461809857,
,,,,,,,,,,,,,,,,,,,,,,,,,,,,,,,,,,,,,,,,,,,,,,,,,,,,,,,,,,,,0709kabis,1015.9950909899999,None,1015.9950909899999,None,1109.6955393199996,None,space,5.792842075999943,1114.6951120149997,None,,,,,,,,,,,,,,,,,,,,,,,,,,,,,,,,,,,,,,,,,,,,,,,,,,,,,,,,,,,,,,,,,,,,,,,,,,,,,001,59,2020_Feb_04_1042,spring_faces,3.1.5,60.11358461809857,
,,,,,,,,,,,,,,,,,,,,,,,,,,,,,,,,,,,,,,,,,,,,,,,,,,,,,,,,,,,,,,,,,,,,,,,1114.6951120149997,None,1120.5287200929997,None,space,9.983973622999656,1125.5118167129995,None,,,,,,,,,,,,,,,,,,,,,,,,,,,,,,,,,,,,,,,,,,,,,,,,,,,,,,,,,,,,,,,,,,,,,001,59,2020_Feb_04_1042,spring_faces,3.1.5,60.11358461809857,
condition files/Stage0a.xlsx,0a,alpha,none,h,"['h', 'g']","['Chess', 'Go']","[0, 0.5]","[0, 0]",1,0,0,0,0,0,0,0,0,0,,,,,,,,,,,,,,,,,,,,,,,,,,,,,,,,,,,,,,,,,,,,,,,,,,,,,,,,,,,,,1125.5118167129995,None,1135.5621315689996,None,1135.5621315689996,None,1135.5621315689996,None,h,1,2.3186994820007385,1137.1451484620002,None,1137.1451484620002,None,1137.1451484620002,None,1139.544597481,None,1139.544597481,None,1139.544597481,None,1139.544597481,None,,,,,,,,,,,,,,,,,,,,,,,,,,,,,,,,,,,,,,,,,,,,001,59,2020_Feb_04_1042,spring_faces,3.1.5,60.11358461809857,
condition files/Stage0a.xlsx,0a,beta,none,g,"['h', 'g']","['Chess', 'Go']","[0, 0.5]","[0, 0]",1,0,0,0,0,0,0,1,1,1,,,,,,,,,,,,,,,,,,,,,,,,,,,,,,,,,,,,,,,,,,,,,,,,,,,,,,,,,,,,,,,1141.4950358099995,None,1141.4950358099995,None,1141.4950358099995,None,g,1,1.617966167999839,1143.0298988169998,None,1143.0298988169998,None,1143.0298988169998,None,1144.7119583439999,None,1144.7119583439999,None,1144.7119583439999,None,1144.7119583439999,None,,,,,,,,,,,,,,,,,,,,,,,,,,,,,,,,,,,,,,,,,,,,001,59,2020_Feb_04_1042,spring_faces,3.1.5,60.11358461809857,
condition files/Stage0a.xlsx,0a,alpha,none,h,"['h', 'g']","['Chess', 'Go']","[0, 0.5]","[0, 0]",1,0,0,1,1,1,0,0,0,0,,,,,,,,,,,,,,,,,,,,,,,,,,,,,,,,,,,,,,,,,,,,,,,,,,,,,,,,,,,,,,,1146.6950036870003,None,1146.6950036870003,None,1146.6950036870003,None,h,1,0.979237853000086,1148.2285958860002,None,1148.2285958860002,None,1148.2285958860002,None,1149.261357728,None,1149.261357728,None,1149.261357728,None,1149.261357728,None,,,,,,,,,,,,,,,,,,,,,,,,,,,,,,,,,,,,,,,,,,,,001,59,2020_Feb_04_1042,spring_faces,3.1.5,60.11358461809857,
condition files/Stage0a.xlsx,0a,beta,none,g,"['h', 'g']","['Chess', 'Go']","[0, 0.5]","[0, 0]",1,0,0,1,1,1,0,1,1,1,,,,,,,,,,,,,,,,,,,,,,,,,,,,,,,,,,,,,,,,,,,,,,,,,,,,,,,,,,,,,,,1151.227996318,None,1151.227996318,None,1151.227996318,None,g,1,0.6544707770008245,1152.7613849299996,None,1152.7613849299996,None,1152.7613849299996,None,1153.4784941059997,None,1153.4784941059997,None,1153.4784941059997,None,1153.4784941059997,None,,,,,,,,,,,,,,,,,,,,,,,,,,,,,,,,,,,,,,,,,,,,001,59,2020_Feb_04_1042,spring_faces,3.1.5,60.11358461809857,
condition files/Stage0a.xlsx,0a,alpha,none,h,"['h', 'g']","['Chess', 'Go']","[0, 0.5]","[0, 0]",1,0,0,2,2,2,0,0,0,0,,,,,,,,,,,,,,,,,,,,,,,,,,,,,,,,,,,,,,,,,,,,,,,,,,,,,,,,,,,,,,,1155.4620486089998,None,1155.4620486089998,None,1155.4620486089998,None,h,1,4.885700494999583,1156.9781551779997,None,1156.9781551779997,None,1156.9781551779997,None,1161.9296829249997,None,1161.9296829249997,None,1161.9296829249997,None,1161.9296829249997,None,,,,,,,,,,,,,,,,,,,,,,,,,,,,,,,,,,,,,,,,,,,,001,59,2020_Feb_04_1042,spring_faces,3.1.5,60.11358461809857,
condition files/Stage0a.xlsx,0a,beta,none,g,"['h', 'g']","['Chess', 'Go']","[0, 0.5]","[0, 0]",1,0,0,2,2,2,0,1,1,1,,,,,,,,,,,,,,,,,,,,,,,,,,,,,,,,,,,,,,,,,,,,,,,,,,,,,,,,,,,,,,,1163.8950749340001,None,1163.8950749340001,None,1163.8950749340001,None,g,1,1.651330261000112,1165.4284869399999,None,1165.4284869399999,None,1165.4284869399999,None,1167.144905516,None,1167.144905516,None,1167.144905516,None,1167.144905516,None,,,,,,,,,,,,,,,,,,,,,,,,,,,,,,,,,,,,,,,,,,,,001,59,2020_Feb_04_1042,spring_faces,3.1.5,60.11358461809857,
condition files/Stage0a.xlsx,0a,alpha,none,h,"['h', 'g']","['Chess', 'Go']","[0, 0.5]","[0, 0]",1,0,0,3,3,3,0,0,0,0,,,,,,,,,,,,,,,,,,,,,,,,,,,,,,,,,,,,,,,,,,,,,,,,,,,,,,,,,,,,,,,1169.128172322,None,1169.128172322,None,1169.128172322,None,h,1,0.6900188330000674,1170.661877818,None,1170.661877818,None,1170.661877818,None,1171.411111251,None,1171.411111251,None,1171.411111251,None,1171.411111251,None,,,,,,,,,,,,,,,,,,,,,,,,,,,,,,,,,,,,,,,,,,,,001,59,2020_Feb_04_1042,spring_faces,3.1.5,60.11358461809857,
condition files/Stage0a.xlsx,0a,beta,none,g,"['h', 'g']","['Chess', 'Go']","[0, 0.5]","[0, 0]",1,0,0,3,3,3,0,1,1,1,,,,,,,,,,,,,,,,,,,,,,,,,,,,,,,,,,,,,,,,,,,,,,,,,,,,,,,,,,,,,,,1173.3783890369996,None,1173.3783890369996,None,1173.3783890369996,None,g,1,0.5999257000003126,1174.9119150649994,None,1174.9119150649994,None,1174.9119150649994,None,1175.5622468450001,None,1175.5622468450001,None,1175.5622468450001,None,1175.5622468450001,None,,,,,,,,,,,,,,,,,,,,,,,,,,,,,,,,,,,,,,,,,,,,001,59,2020_Feb_04_1042,spring_faces,3.1.5,60.11358461809857,
condition files/Stage0a.xlsx,0a,beta,none,g,"['h', 'g']","['Chess', 'Go']","[0, 0.5]","[0, 0]",1,0,0,4,4,4,0,0,0,1,,,,,,,,,,,,,,,,,,,,,,,,,,,,,,,,,,,,,,,,,,,,,,,,,,,,,,,,,,,,,,,1177.5452114230002,None,1177.5452114230002,None,1177.5452114230002,None,g,1,1.6819496049993177,1179.077901308,None,1179.077901308,None,1179.077901308,None,1180.8117057749996,None,1180.8117057749996,None,1180.8117057749996,None,1180.8117057749996,None,,,,,,,,,,,,,,,,,,,,,,,,,,,,,,,,,,,,,,,,,,,,001,59,2020_Feb_04_1042,spring_faces,3.1.5,60.11358461809857,
condition files/Stage0a.xlsx,0a,alpha,none,h,"['h', 'g']","['Chess', 'Go']","[0, 0.5]","[0, 0]",1,0,0,4,4,4,0,1,1,0,,,,,,,,,,,,,,,,,,,,,,,,,,,,,,,,,,,,,,,,,,,,,,,,,,,,,,,,,,,,,,,1182.7784219099995,None,1182.7784219099995,None,1182.7784219099995,None,h,1,0.41585358299926156,1184.3119423769995,None,1184.3119423769995,None,1184.3119423769995,None,1184.7808122199995,None,1184.7808122199995,None,1184.7808122199995,None,1184.7808122199995,None,,,,,,,,,,,,,,,,,,,,,,,,,,,,,,,,,,,,,,,,,,,,001,59,2020_Feb_04_1042,spring_faces,3.1.5,60.11358461809857,
condition files/Stage0a.xlsx,0a,beta,none,g,"['h', 'g']","['Chess', 'Go']","[0, 0.5]","[0, 0]",1,0,0,5,5,5,0,0,0,1,,,,,,,,,,,,,,,,,,,,,,,,,,,,,,,,,,,,,,,,,,,,,,,,,,,,,,,,,,,,,,,1186.7620670019996,None,1186.7620670019996,None,1186.7620670019996,None,g,1,0.6253407049998714,1188.2945748060001,None,1188.2945748060001,None,1188.2945748060001,None,1188.9790127260003,None,1188.9790127260003,None,1188.9790127260003,None,1188.9790127260003,None,,,,,,,,,,,,,,,,,,,,,,,,,,,,,,,,,,,,,,,,,,,,001,59,2020_Feb_04_1042,spring_faces,3.1.5,60.11358461809857,
condition files/Stage0a.xlsx,0a,alpha,none,h,"['h', 'g']","['Chess', 'Go']","[0, 0.5]","[0, 0]",1,0,0,5,5,5,0,1,1,0,,,,,,,,,,,,,,,,,,,,,,,,,,,,,,,,,,,,,,,,,,,,,,,,,,,,,,,,,,,,,,,1190.944972368,None,1190.944972368,None,1190.944972368,None,h,1,1.241982927999743,1192.4779233640002,None,1192.4779233640002,None,1192.4779233640002,None,1193.778493676,None,1193.778493676,None,1193.778493676,None,1193.778493676,None,,,,,,,,,,,,,,,,,,,,,,,,,,,,,,,,,,,,,,,,,,,,001,59,2020_Feb_04_1042,spring_faces,3.1.5,60.11358461809857,
condition files/Stage0b_1.xlsx,0b,none,beta,g,"['h', 'g']","['Chess', 'Go']","[-0.15, 0.5]","[0.15, 0.5]",0,1,0,6,6,6,0,0,0,1,,,,,,,,,,,,,,,,,,,,,,,,,,,,,,,,,,,,,,,,,,,,,,,,,,,,,,,,,,,,,,,1195.7618370459995,None,1195.7618370459995,None,1195.7618370459995,None,g,1,0.6481493430001137,1197.3116999479998,None,1197.3116999479998,None,1197.3116999479998,None,1198.0286676289998,None,1198.0286676289998,None,1198.0286676289998,None,1198.0286676289998,None,,,,,,,,,,,,,,,,,,,,,,,,,,,,,,,,,,,,,,,,,,,,001,59,2020_Feb_04_1042,spring_faces,3.1.5,60.11358461809857,
condition files/Stage0b_1.xlsx,0b,alpha,none,h,"['h', 'g']","['Chess', 'Go']","[-0.15, 0.5]","[0.15, 0.5]",1,0,0,6,6,6,0,1,1,0,,,,,,,,,,,,,,,,,,,,,,,,,,,,,,,,,,,,,,,,,,,,,,,,,,,,,,,,,,,,,,,1199.9783322450003,None,1199.9783322450003,None,1199.9783322450003,None,h,1,0.7954502579996188,1201.5163835759995,None,1201.5163835759995,None,1201.5163835759995,None,1202.3786688909995,None,1202.3786688909995,None,1202.3786688909995,None,1202.3786688909995,None,,,,,,,,,,,,,,,,,,,,,,,,,,,,,,,,,,,,,,,,,,,,001,59,2020_Feb_04_1042,spring_faces,3.1.5,60.11358461809857,
condition files/Stage0b_2.xlsx,0b,beta,none,g,"['h', 'g']","['Chess', 'Go']","[-0.15, 0.5]","[0.15, 0.5]",1,0,0,7,7,7,0,0,0,1,,,,,,,,,,,,,,,,,,,,,,,,,,,,,,,,,,,,,,,,,,,,,,,,,,,,,,,,,,,,,,,1204.3451466669994,None,1204.3451466669994,None,1204.3451466669994,None,g,1,0.8487786910000068,1205.8790638170003,None,1205.8790638170003,None,1205.8790638170003,None,1206.7785552650003,None,1206.7785552650003,None,1206.7785552650003,None,1206.7785552650003,None,,,,,,,,,,,,,,,,,,,,,,,,,,,,,,,,,,,,,,,,,,,,001,59,2020_Feb_04_1042,spring_faces,3.1.5,60.11358461809857,
condition files/Stage0b_2.xlsx,0b,none,alpha,h,"['h', 'g']","['Chess', 'Go']","[-0.15, 0.5]","[0.15, 0.5]",0,1,0,7,7,7,0,1,1,0,,,,,,,,,,,,,,,,,,,,,,,,,,,,,,,,,,,,,,,,,,,,,,,,,,,,,,,,,,,,,,,1208.7449831429994,None,1208.7449831429994,None,1208.7449831429994,None,h,1,0.8646232930004771,1210.295219277,None,1210.295219277,None,1210.295219277,None,1211.2156914340003,None,1211.2156914340003,None,1211.2156914340003,None,1211.2156914340003,None,,,,,,,,,,,,,,,,,,,,,,,,,,,,,,,,,,,,,,,,,,,,001,59,2020_Feb_04_1042,spring_faces,3.1.5,60.11358461809857,
condition files/Stage0b_1.xlsx,0b,alpha,none,h,"['h', 'g']","['Chess', 'Go']","[-0.15, 0.5]","[0.15, 0.5]",1,0,0,8,8,8,0,0,0,0,,,,,,,,,,,,,,,,,,,,,,,,,,,,,,,,,,,,,,,,,,,,,,,,,,,,,,,,,,,,,,,1213.1946340349996,None,1213.1946340349996,None,1213.1946340349996,None,h,1,1.290865219000807,1214.732991848,None,1214.732991848,None,1214.732991848,None,1216.0786876519996,None,1216.0786876519996,None,1216.0786876519996,None,1216.0786876519996,None,,,,,,,,,,,,,,,,,,,,,,,,,,,,,,,,,,,,,,,,,,,,001,59,2020_Feb_04_1042,spring_faces,3.1.5,60.11358461809857,
condition files/Stage0b_1.xlsx,0b,none,beta,g,"['h', 'g']","['Chess', 'Go']","[-0.15, 0.5]","[0.15, 0.5]",0,1,0,8,8,8,0,1,1,1,,,,,,,,,,,,,,,,,,,,,,,,,,,,,,,,,,,,,,,,,,,,,,,,,,,,,,,,,,,,,,,1218.044440357,None,1218.044440357,None,1218.044440357,None,g,1,0.5079844070005493,1219.5799707730002,None,1219.5799707730002,None,1219.5799707730002,None,1220.146074028,None,1220.146074028,None,1220.146074028,None,1220.146074028,None,,,,,,,,,,,,,,,,,,,,,,,,,,,,,,,,,,,,,,,,,,,,001,59,2020_Feb_04_1042,spring_faces,3.1.5,60.11358461809857,
condition files/Stage0b_2.xlsx,0b,none,alpha,h,"['h', 'g']","['Chess', 'Go']","[-0.15, 0.5]","[0.15, 0.5]",0,1,0,9,9,9,0,0,0,0,,,,,,,,,,,,,,,,,,,,,,,,,,,,,,,,,,,,,,,,,,,,,,,,,,,,,,,,,,,,,,,1222.1285943820003,None,1222.1285943820003,None,1222.1285943820003,None,h,1,0.7625399280004785,1223.6612768670002,None,1223.6612768670002,None,1223.6612768670002,None,1224.4782876159998,None,1224.4782876159998,None,1224.4782876159998,None,1224.4782876159998,None,,,,,,,,,,,,,,,,,,,,,,,,,,,,,,,,,,,,,,,,,,,,001,59,2020_Feb_04_1042,spring_faces,3.1.5,60.11358461809857,
condition files/Stage0b_2.xlsx,0b,beta,none,g,"['h', 'g']","['Chess', 'Go']","[-0.15, 0.5]","[0.15, 0.5]",1,0,0,9,9,9,0,1,1,1,,,,,,,,,,,,,,,,,,,,,,,,,,,,,,,,,,,,,,,,,,,,,,,,,,,,,,,,,,,,,,,1226.4449629310002,None,1226.4449629310002,None,1226.4449629310002,None,g,1,0.6367669550008941,1227.995084272,None,1227.995084272,None,1227.995084272,None,1228.7013359829998,None,1228.7013359829998,None,1228.7013359829998,None,1228.7013359829998,None,,,,,,,,,,,,,,,,,,,,,,,,,,,,,,,,,,,,,,,,,,,,001,59,2020_Feb_04_1042,spring_faces,3.1.5,60.11358461809857,
condition files/Stage0b_1.xlsx,0b,alpha,none,h,"['h', 'g']","['Chess', 'Go']","[-0.15, 0.5]","[0.15, 0.5]",1,0,0,10,10,10,0,0,0,0,,,,,,,,,,,,,,,,,,,,,,,,,,,,,,,,,,,,,,,,,,,,,,,,,,,,,,,,,,,,,,,1230.678339309,None,1230.678339309,None,1230.678339309,None,h,1,0.6119523520001167,1232.2119094089994,None,1232.2119094089994,None,1232.2119094089994,None,1232.878365267,None,1232.878365267,None,1232.878365267,None,1232.878365267,None,,,,,,,,,,,,,,,,,,,,,,,,,,,,,,,,,,,,,,,,,,,,001,59,2020_Feb_04_1042,spring_faces,3.1.5,60.11358461809857,
condition files/Stage0b_1.xlsx,0b,none,beta,g,"['h', 'g']","['Chess', 'Go']","[-0.15, 0.5]","[0.15, 0.5]",0,1,0,10,10,10,0,1,1,1,,,,,,,,,,,,,,,,,,,,,,,,,,,,,,,,,,,,,,,,,,,,,,,,,,,,,,,,,,,,,,,1234.844946061,None,1234.844946061,None,1234.844946061,None,g,1,0.7144325619992742,1236.3813700809997,None,1236.3813700809997,None,1236.3813700809997,None,1237.166690049,None,1237.166690049,None,1237.166690049,None,1237.166690049,None,,,,,,,,,,,,,,,,,,,,,,,,,,,,,,,,,,,,,,,,,,,,001,59,2020_Feb_04_1042,spring_faces,3.1.5,60.11358461809857,
condition files/Stage0b_2.xlsx,0b,none,alpha,h,"['h', 'g']","['Chess', 'Go']","[-0.15, 0.5]","[0.15, 0.5]",0,1,0,11,11,11,0,0,0,0,,,,,,,,,,,,,,,,,,,,,,,,,,,,,,,,,,,,,,,,,,,,,,,,,,,,,,,,,,,,,,,1239.1451633629995,None,1239.1451633629995,None,1239.1451633629995,None,h,1,0.8332590099998924,1240.6785991409997,None,1240.6785991409997,None,1240.6785991409997,None,1241.565168104,None,1241.565168104,None,1241.565168104,None,1241.565168104,None,,,,,,,,,,,,,,,,,,,,,,,,,,,,,,,,,,,,,,,,,,,,001,59,2020_Feb_04_1042,spring_faces,3.1.5,60.11358461809857,
condition files/Stage0b_2.xlsx,0b,beta,none,g,"['h', 'g']","['Chess', 'Go']","[-0.15, 0.5]","[0.15, 0.5]",1,0,0,11,11,11,0,1,1,1,,,,,,,,,,,,,,,,,,,,,,,,,,,,,,,,,,,,,,,,,,,,,,,,,,,,,,,,,,,,,,,1243.5283612619996,None,1243.5283612619996,None,1243.5283612619996,None,g,1,0.9575593359995764,1245.0662988389995,None,1245.0662988389995,None,1245.0662988389995,None,1246.0950346640002,None,1246.0950346640002,None,1246.0950346640002,None,1246.0950346640002,None,,,,,,,,,,,,,,,,,,,,,,,,,,,,,,,,,,,,,,,,,,,,001,59,2020_Feb_04_1042,spring_faces,3.1.5,60.11358461809857,
condition files/Stage0c_1.xlsx,0c,alpha,phi,h,"['h', 'g']","['Chess', 'Go']","[-0.15, 0.5]","[0.15, 0.5]",1,1,0,12,12,12,0,0,0,1,,,,,,,,,,,,,,,,,,,,,,,,,,,,,,,,,,,,,,,,,,,,,,,,,,,,,,,,,,,,,,,1248.0618237070003,None,1248.0618237070003,None,1248.0618237070003,None,h,1,4.09293129300022,1249.5949917139997,None,1249.5949917139997,None,1249.5949917139997,None,1253.7450956309995,None,1253.7450956309995,None,1253.7450956309995,None,1253.7450956309995,None,,,,,,,,,,,,,,,,,,,,,,,,,,,,,,,,,,,,,,,,,,,,001,59,2020_Feb_04_1042,spring_faces,3.1.5,60.11358461809857,
condition files/Stage0c_1.xlsx,0c,theta,alpha,h,"['h', 'g']","['Chess', 'Go']","[-0.15, 0.5]","[0.15, 0.5]",1,1,0,12,12,12,0,1,1,0,,,,,,,,,,,,,,,,,,,,,,,,,,,,,,,,,,,,,,,,,,,,,,,,,,,,,,,,,,,,,,,1255.711520189,None,1255.711520189,None,1255.711520189,None,h,1,1.691023956999743,1257.2448711389998,None,1257.2448711389998,None,1257.2448711389998,None,1258.9948510149998,None,1258.9948510149998,None,1258.9948510149998,None,1258.9948510149998,None,,,,,,,,,,,,,,,,,,,,,,,,,,,,,,,,,,,,,,,,,,,,001,59,2020_Feb_04_1042,spring_faces,3.1.5,60.11358461809857,
condition files/Stage0c_1.xlsx,0c,beta,theta,g,"['h', 'g']","['Chess', 'Go']","[-0.15, 0.5]","[0.15, 0.5]",1,1,0,12,12,12,0,2,2,2,,,,,,,,,,,,,,,,,,,,,,,,,,,,,,,,,,,,,,,,,,,,,,,,,,,,,,,,,,,,,,,1260.9617554609995,None,1260.9617554609995,None,1260.9617554609995,None,g,1,1.1444569060004142,1262.4953763519998,None,1262.4953763519998,None,1262.4953763519998,None,1263.6949546679998,None,1263.6949546679998,None,1263.6949546679998,None,1263.6949546679998,None,,,,,,,,,,,,,,,,,,,,,,,,,,,,,,,,,,,,,,,,,,,,001,59,2020_Feb_04_1042,spring_faces,3.1.5,60.11358461809857,
condition files/Stage0c_1.xlsx,0c,phi,beta,g,"['h', 'g']","['Chess', 'Go']","[-0.15, 0.5]","[0.15, 0.5]",1,1,0,12,12,12,0,3,3,3,,,,,,,,,,,,,,,,,,,,,,,,,,,,,,,,,,,,,,,,,,,,,,,,,,,,,,,,,,,,,,,1265.6617220580001,None,1265.6617220580001,None,1265.6617220580001,None,h,0,1.0367077060000156,1267.1951536400002,None,1267.1951536400002,None,1267.1951536400002,None,1268.278223147,None,1268.278223147,None,1268.278223147,None,1268.278223147,None,,,,,,,,,,,,,,,,,,,,,,,,,,,,,,,,,,,,,,,,,,,,001,59,2020_Feb_04_1042,spring_faces,3.1.5,60.11358461809857,
condition files/Stage0c_2.xlsx,0c,phi,alpha,h,"['h', 'g']","['Chess', 'Go']","[-0.15, 0.5]","[0.15, 0.5]",1,1,0,13,13,13,0,0,0,1,,,,,,,,,,,,,,,,,,,,,,,,,,,,,,,,,,,,,,,,,,,,,,,,,,,,,,,,,,,,,,,1270.277881461,None,1270.277881461,None,1270.277881461,None,h,1,1.0612856500001726,1271.7946388909995,None,1271.7946388909995,None,1271.7946388909995,None,1272.911906194,None,1272.911906194,None,1272.911906194,None,1272.911906194,None,,,,,,,,,,,,,,,,,,,,,,,,,,,,,,,,,,,,,,,,,,,,001,59,2020_Feb_04_1042,spring_faces,3.1.5,60.11358461809857,
condition files/Stage0c_2.xlsx,0c,theta,beta,g,"['h', 'g']","['Chess', 'Go']","[-0.15, 0.5]","[0.15, 0.5]",1,1,0,13,13,13,0,1,1,2,,,,,,,,,,,,,,,,,,,,,,,,,,,,,,,,,,,,,,,,,,,,,,,,,,,,,,,,,,,,,,,1274.8781305940001,None,1274.8781305940001,None,1274.8781305940001,None,g,1,0.8921115770008328,1276.4118003980002,None,1276.4118003980002,None,1276.4118003980002,None,1277.3612827289999,None,1277.3612827289999,None,1277.3612827289999,None,1277.3612827289999,None,,,,,,,,,,,,,,,,,,,,,,,,,,,,,,,,,,,,,,,,,,,,001,59,2020_Feb_04_1042,spring_faces,3.1.5,60.11358461809857,
condition files/Stage0c_2.xlsx,0c,alpha,theta,h,"['h', 'g']","['Chess', 'Go']","[-0.15, 0.5]","[0.15, 0.5]",1,1,0,13,13,13,0,2,2,0,,,,,,,,,,,,,,,,,,,,,,,,,,,,,,,,,,,,,,,,,,,,,,,,,,,,,,,,,,,,,,,1279.327890132,None,1279.327890132,None,1279.327890132,None,h,1,1.6420547460002126,1280.8618547229999,None,1280.8618547229999,None,1280.8618547229999,None,1282.561401328,None,1282.561401328,None,1282.561401328,None,1282.561401328,None,,,,,,,,,,,,,,,,,,,,,,,,,,,,,,,,,,,,,,,,,,,,001,59,2020_Feb_04_1042,spring_faces,3.1.5,60.11358461809857,
condition files/Stage0c_2.xlsx,0c,beta,phi,g,"['h', 'g']","['Chess', 'Go']","[-0.15, 0.5]","[0.15, 0.5]",1,1,0,13,13,13,0,3,3,3,,,,,,,,,,,,,,,,,,,,,,,,,,,,,,,,,,,,,,,,,,,,,,,,,,,,,,,,,,,,,,,1284.5285269409997,None,1284.5285269409997,None,1284.5285269409997,None,g,1,0.7139148810001643,1286.0619263010003,None,1286.0619263010003,None,1286.0619263010003,None,1286.8285315519997,None,1286.8285315519997,None,1286.8285315519997,None,1286.8285315519997,None,,,,,,,,,,,,,,,,,,,,,,,,,,,,,,,,,,,,,,,,,,,,001,59,2020_Feb_04_1042,spring_faces,3.1.5,60.11358461809857,
condition files/Stage0c_1.xlsx,0c,theta,alpha,h,"['h', 'g']","['Chess', 'Go']","[-0.15, 0.5]","[0.15, 0.5]",1,1,0,14,14,14,0,0,0,0,,,,,,,,,,,,,,,,,,,,,,,,,,,,,,,,,,,,,,,,,,,,,,,,,,,,,,,,,,,,,,,1288.8117046979996,None,1288.8117046979996,None,1288.8117046979996,None,h,1,0.6862395669995749,1290.3456193949996,None,1290.3456193949996,None,1290.3456193949996,None,1291.094663377,None,1291.094663377,None,1291.094663377,None,1291.094663377,None,,,,,,,,,,,,,,,,,,,,,,,,,,,,,,,,,,,,,,,,,,,,001,59,2020_Feb_04_1042,spring_faces,3.1.5,60.11358461809857,
condition files/Stage0c_1.xlsx,0c,phi,beta,g,"['h', 'g']","['Chess', 'Go']","[-0.15, 0.5]","[0.15, 0.5]",1,1,0,14,14,14,0,1,1,3,,,,,,,,,,,,,,,,,,,,,,,,,,,,,,,,,,,,,,,,,,,,,,,,,,,,,,,,,,,,,,,1293.061647259,None,1293.061647259,None,1293.061647259,None,g,1,1.5413606769998296,1294.5945382969994,None,1294.5945382969994,None,1294.5945382969994,None,1296.1953881729996,None,1296.1953881729996,None,1296.1953881729996,None,1296.1953881729996,None,,,,,,,,,,,,,,,,,,,,,,,,,,,,,,,,,,,,,,,,,,,,001,59,2020_Feb_04_1042,spring_faces,3.1.5,60.11358461809857,
condition files/Stage0c_1.xlsx,0c,beta,theta,g,"['h', 'g']","['Chess', 'Go']","[-0.15, 0.5]","[0.15, 0.5]",1,1,0,14,14,14,0,2,2,2,,,,,,,,,,,,,,,,,,,,,,,,,,,,,,,,,,,,,,,,,,,,,,,,,,,,,,,,,,,,,,,1298.161399476,None,1298.161399476,None,1298.161399476,None,g,1,1.3847217259999525,1299.6950975519994,None,1299.6950975519994,None,1299.6950975519994,None,1301.1294655399997,None,1301.1294655399997,None,1301.1294655399997,None,1301.1294655399997,None,,,,,,,,,,,,,,,,,,,,,,,,,,,,,,,,,,,,,,,,,,,,001,59,2020_Feb_04_1042,spring_faces,3.1.5,60.11358461809857,
condition files/Stage0c_1.xlsx,0c,alpha,phi,h,"['h', 'g']","['Chess', 'Go']","[-0.15, 0.5]","[0.15, 0.5]",1,1,0,14,14,14,0,3,3,1,,,,,,,,,,,,,,,,,,,,,,,,,,,,,,,,,,,,,,,,,,,,,,,,,,,,,,,,,,,,,,,1303.1116854499996,None,1303.1116854499996,None,1303.1116854499996,None,h,1,0.7865598959997442,1304.64528616,None,1304.64528616,None,1304.64528616,None,1305.4954071639995,None,1305.4954071639995,None,1305.4954071639995,None,1305.4954071639995,None,,,,,,,,,,,,,,,,,,,,,,,,,,,,,,,,,,,,,,,,,,,,001,59,2020_Feb_04_1042,spring_faces,3.1.5,60.11358461809857,
condition files/Stage0c_2.xlsx,0c,beta,phi,g,"['h', 'g']","['Chess', 'Go']","[-0.15, 0.5]","[0.15, 0.5]",1,1,0,15,15,15,0,0,0,3,,,,,,,,,,,,,,,,,,,,,,,,,,,,,,,,,,,,,,,,,,,,,,,,,,,,,,,,,,,,,,,1307.478459082,None,1307.478459082,None,1307.478459082,None,g,1,5.044043609000255,1309.0118838019998,None,1309.0118838019998,None,1309.0118838019998,None,1314.1114817790003,None,1314.1114817790003,None,1314.1114817790003,None,1314.1114817790003,None,,,,,,,,,,,,,,,,,,,,,,,,,,,,,,,,,,,,,,,,,,,,001,59,2020_Feb_04_1042,spring_faces,3.1.5,60.11358461809857,
condition files/Stage0c_2.xlsx,0c,theta,beta,g,"['h', 'g']","['Chess', 'Go']","[-0.15, 0.5]","[0.15, 0.5]",1,1,0,15,15,15,0,1,1,2,,,,,,,,,,,,,,,,,,,,,,,,,,,,,,,,,,,,,,,,,,,,,,,,,,,,,,,,,,,,,,,1316.0799788409995,None,1316.0799788409995,None,1316.0799788409995,None,h,0,0.9717667710001479,1317.6120744250002,None,1317.6120744250002,None,1317.6120744250002,None,1318.6287745099999,None,1318.6287745099999,None,1318.6287745099999,None,1318.6287745099999,None,,,,,,,,,,,,,,,,,,,,,,,,,,,,,,,,,,,,,,,,,,,,001,59,2020_Feb_04_1042,spring_faces,3.1.5,60.11358461809857,
condition files/Stage0c_2.xlsx,0c,phi,alpha,h,"['h', 'g']","['Chess', 'Go']","[-0.15, 0.5]","[0.15, 0.5]",1,1,0,15,15,15,0,2,2,1,,,,,,,,,,,,,,,,,,,,,,,,,,,,,,,,,,,,,,,,,,,,,,,,,,,,,,,,,,,,,,,1320.611728582,None,1320.611728582,None,1320.611728582,None,h,1,0.9191902420006954,1322.1446528850001,None,1322.1446528850001,None,1322.1446528850001,None,1323.1280144869997,None,1323.1280144869997,None,1323.1280144869997,None,1323.1280144869997,None,,,,,,,,,,,,,,,,,,,,,,,,,,,,,,,,,,,,,,,,,,,,001,59,2020_Feb_04_1042,spring_faces,3.1.5,60.11358461809857,
condition files/Stage0c_2.xlsx,0c,alpha,theta,h,"['h', 'g']","['Chess', 'Go']","[-0.15, 0.5]","[0.15, 0.5]",1,1,0,15,15,15,0,3,3,0,,,,,,,,,,,,,,,,,,,,,,,,,,,,,,,,,,,,,,,,,,,,,,,,,,,,,,,,,,,,,,,1325.095207849,None,1325.095207849,None,1325.095207849,None,h,1,0.8513121260002663,1326.628508068,None,1326.628508068,None,1326.628508068,None,1327.5312262059997,None,1327.5312262059997,None,1327.5312262059997,None,1327.5312262059997,None,,,,,,,,,,,,,,,,,,,,,,,,,,,,,,,,,,,,,,,,,,,,001,59,2020_Feb_04_1042,spring_faces,3.1.5,60.11358461809857,
condition files/Stage0c_1.xlsx,0c,beta,theta,g,"['h', 'g']","['Chess', 'Go']","[-0.15, 0.5]","[0.15, 0.5]",1,1,0,16,16,16,0,0,0,2,,,,,,,,,,,,,,,,,,,,,,,,,,,,,,,,,,,,,,,,,,,,,,,,,,,,,,,,,,,,,,,1329.528407629,None,1329.528407629,None,1329.528407629,None,g,1,1.9539335740000752,1331.0619252320002,None,1331.0619252320002,None,1331.0619252320002,None,1333.0785736779999,None,1333.0785736779999,None,1333.0785736779999,None,1333.0785736779999,None,,,,,,,,,,,,,,,,,,,,,,,,,,,,,,,,,,,,,,,,,,,,001,59,2020_Feb_04_1042,spring_faces,3.1.5,60.11358461809857,
condition files/Stage0c_1.xlsx,0c,theta,alpha,h,"['h', 'g']","['Chess', 'Go']","[-0.15, 0.5]","[0.15, 0.5]",1,1,0,16,16,16,0,1,1,0,,,,,,,,,,,,,,,,,,,,,,,,,,,,,,,,,,,,,,,,,,,,,,,,,,,,,,,,,,,,,,,1335.0449900499998,None,1335.0449900499998,None,1335.0449900499998,None,h,1,0.9814280599994163,1336.5784160519997,None,1336.5784160519997,None,1336.5784160519997,None,1337.6121204270003,None,1337.6121204270003,None,1337.6121204270003,None,1337.6121204270003,None,,,,,,,,,,,,,,,,,,,,,,,,,,,,,,,,,,,,,,,,,,,,001,59,2020_Feb_04_1042,spring_faces,3.1.5,60.11358461809857,
condition files/Stage0c_1.xlsx,0c,phi,beta,g,"['h', 'g']","['Chess', 'Go']","[-0.15, 0.5]","[0.15, 0.5]",1,1,0,16,16,16,0,2,2,3,,,,,,,,,,,,,,,,,,,,,,,,,,,,,,,,,,,,,,,,,,,,,,,,,,,,,,,,,,,,,,,1339.5785109420003,None,1339.5785109420003,None,1339.5785109420003,None,g,1,0.9764712460000737,1341.1114390820003,None,1341.1114390820003,None,1341.1114390820003,None,1342.1450300810002,None,1342.1450300810002,None,1342.1450300810002,None,1342.1450300810002,None,,,,,,,,,,,,,,,,,,,,,,,,,,,,,,,,,,,,,,,,,,,,001,59,2020_Feb_04_1042,spring_faces,3.1.5,60.11358461809857,
condition files/Stage0c_1.xlsx,0c,alpha,phi,h,"['h', 'g']","['Chess', 'Go']","[-0.15, 0.5]","[0.15, 0.5]",1,1,0,16,16,16,0,3,3,1,,,,,,,,,,,,,,,,,,,,,,,,,,,,,,,,,,,,,,,,,,,,,,,,,,,,,,,,,,,,,,,1344.1111608649999,None,1344.1111608649999,None,1344.1111608649999,None,h,1,1.0830508230001215,1345.6447947360002,None,1345.6447947360002,None,1345.6447947360002,None,1346.7780521610002,None,1346.7780521610002,None,1346.7780521610002,None,1346.7780521610002,None,,,,,,,,,,,,,,,,,,,,,,,,,,,,,,,,,,,,,,,,,,,,001,59,2020_Feb_04_1042,spring_faces,3.1.5,60.11358461809857,
condition files/Stage0c_2.xlsx,0c,phi,alpha,h,"['h', 'g']","['Chess', 'Go']","[-0.15, 0.5]","[0.15, 0.5]",1,1,0,17,17,17,0,0,0,1,,,,,,,,,,,,,,,,,,,,,,,,,,,,,,,,,,,,,,,,,,,,,,,,,,,,,,,,,,,,,,,1348.7616948779996,None,1348.7616948779996,None,1348.7616948779996,None,h,1,1.1525765400001546,1350.2952808250002,None,1350.2952808250002,None,1350.2952808250002,None,1351.4968668249994,None,1351.4968668249994,None,1351.4968668249994,None,1351.4968668249994,None,,,,,,,,,,,,,,,,,,,,,,,,,,,,,,,,,,,,,,,,,,,,001,59,2020_Feb_04_1042,spring_faces,3.1.5,60.11358461809857,
condition files/Stage0c_2.xlsx,0c,beta,phi,g,"['h', 'g']","['Chess', 'Go']","[-0.15, 0.5]","[0.15, 0.5]",1,1,0,17,17,17,0,1,1,3,,,,,,,,,,,,,,,,,,,,,,,,,,,,,,,,,,,,,,,,,,,,,,,,,,,,,,,,,,,,,,,1353.4783828749996,None,1353.4783828749996,None,1353.4783828749996,None,g,1,0.7565249700001004,1355.0113475469998,None,1355.0113475469998,None,1355.0113475469998,None,1355.8282329080002,None,1355.8282329080002,None,1355.8282329080002,None,1355.8282329080002,None,,,,,,,,,,,,,,,,,,,,,,,,,,,,,,,,,,,,,,,,,,,,001,59,2020_Feb_04_1042,spring_faces,3.1.5,60.11358461809857,
condition files/Stage0c_2.xlsx,0c,theta,beta,g,"['h', 'g']","['Chess', 'Go']","[-0.15, 0.5]","[0.15, 0.5]",1,1,0,17,17,17,0,2,2,2,,,,,,,,,,,,,,,,,,,,,,,,,,,,,,,,,,,,,,,,,,,,,,,,,,,,,,,,,,,,,,,1357.7951972290002,None,1357.7951972290002,None,1357.7951972290002,None,g,1,3.3356488159997753,1359.328191738,None,1359.328191738,None,1359.328191738,None,1362.7119414419994,None,1362.7119414419994,None,1362.7119414419994,None,1362.7119414419994,None,,,,,,,,,,,,,,,,,,,,,,,,,,,,,,,,,,,,,,,,,,,,001,59,2020_Feb_04_1042,spring_faces,3.1.5,60.11358461809857,
condition files/Stage0c_2.xlsx,0c,alpha,theta,h,"['h', 'g']","['Chess', 'Go']","[-0.15, 0.5]","[0.15, 0.5]",1,1,0,17,17,17,0,3,3,0,,,,,,,,,,,,,,,,,,,,,,,,,,,,,,,,,,,,,,,,,,,,,,,,,,,,,,,,,,,,,,,1364.6950574459997,None,1364.6950574459997,None,1364.6950574459997,None,h,1,0.995089015999838,1366.2287719389997,None,1366.2287719389997,None,1366.2287719389997,None,1367.277686986,None,1367.277686986,None,1367.277686986,None,1367.277686986,None,,,,,,,,,,,,,,,,,,,,,,,,,,,,,,,,,,,,,,,,,,,,001,59,2020_Feb_04_1042,spring_faces,3.1.5,60.11358461809857,
,,,,,,,,,,,,,,,,,,,,,,,,,,,,,,,,,,,,,,,,,,,,,,,,,,,,,,,,,,,,,,,,,,,,,,,,,,,,,,,,,,,,,,,,,,,,,,,,,,,,,,,,1369.2619537199998,None,space,4.050012996000078,1374.2617930839997,None,,,,,,,,,,,,,,,,,,,,,,,,,,,,,,,,,,,,,,001,59,2020_Feb_04_1042,spring_faces,3.1.5,60.11358461809857,
condition files/Stage1_1.xlsx,,B1,T2,c,"['c', 'm']","['Clue', 'Monopoly']","[-0.15, 0.5]","[0.15, 0.5]",1,1,,,,,,,,,0,0,0,0,0,0,0,1,,,,,,,,,,,,,,,,,,,,,,,,,,,,,,,,,,,,,,,,,,,,,,,,,,,,,,,1378.3619600459997,None,1378.3619600459997,None,1378.3619600459997,None,m,0,1.4568643579996206,1379.8950602240002,None,1379.8950602240002,None,1379.8950602240002,None,1381.4287267640002,None,1381.4287267640002,None,1381.4287267640002,None,1381.4287267640002,None,,,,,,,1374.2617930839997,None,,,,,,,,,,,,,,,,,,,,,,,,,,,,,,,,,,,,001,59,2020_Feb_04_1042,spring_faces,3.1.5,60.11358461809857,
condition files/Stage1_1.xlsx,,B4,T4,m,"['c', 'm']","['Clue', 'Monopoly']","[-0.15, 0.5]","[0.15, 0.5]",1,1,,,,,,,,,0,0,0,0,0,1,1,7,,,,,,,,,,,,,,,,,,,,,,,,,,,,,,,,,,,,,,,,,,,,,,,,,,,,,,,1383.3781995099998,None,1383.3781995099998,None,1383.3781995099998,None,m,1,2.2454686609999044,1384.9783823380003,None,1384.9783823380003,None,1384.9783823380003,None,1387.294900373,None,1387.294900373,None,1387.294900373,None,1387.294900373,None,,,,,,,,,,,,,,,,,,,,,,,,,,,,,,,,,,,,,,,,,,,,001,59,2020_Feb_04_1042,spring_faces,3.1.5,60.11358461809857,
condition files/Stage1_1.xlsx,,B2,T1,m,"['c', 'm']","['Clue', 'Monopoly']","[-0.15, 0.5]","[0.15, 0.5]",1,1,,,,,,,,,0,0,0,0,0,2,2,2,,,,,,,,,,,,,,,,,,,,,,,,,,,,,,,,,,,,,,,,,,,,,,,,,,,,,,,1389.2446087259996,None,1389.2446087259996,None,1389.2446087259996,None,c,0,3.500523372000316,1390.7793097470003,None,1390.7793097470003,None,1390.7793097470003,None,1394.3453743789996,None,1394.3453743789996,None,1394.3453743789996,None,1394.3453743789996,None,,,,,,,,,,,,,,,,,,,,,,,,,,,,,,,,,,,,,,,,,,,,001,59,2020_Feb_04_1042,spring_faces,3.1.5,60.11358461809857,
condition files/Stage1_1.xlsx,,B3,T3,c,"['c', 'm']","['Clue', 'Monopoly']","[-0.15, 0.5]","[0.15, 0.5]",1,1,,,,,,,,,0,0,0,0,0,3,3,4,,,,,,,,,,,,,,,,,,,,,,,,,,,,,,,,,,,,,,,,,,,,,,,,,,,,,,,1396.311641978,None,1396.311641978,None,1396.311641978,None,c,1,2.863617926000188,1397.8962464819997,None,1397.8962464819997,None,1397.8962464819997,None,1400.8136154309996,None,1400.8136154309996,None,1400.8136154309996,None,1400.8136154309996,None,,,,,,,,,,,,,,,,,,,,,,,,,,,,,,,,,,,,,,,,,,,,001,59,2020_Feb_04_1042,spring_faces,3.1.5,60.11358461809857,
condition files/Stage1_1.xlsx,,T3,B4,c,"['c', 'm']","['Clue', 'Monopoly']","[-0.15, 0.5]","[0.15, 0.5]",1,1,,,,,,,,,0,0,0,0,0,4,4,5,,,,,,,,,,,,,,,,,,,,,,,,,,,,,,,,,,,,,,,,,,,,,,,,,,,,,,,1402.7780037909997,None,1402.7780037909997,None,1402.7780037909997,None,c,1,2.878680741999233,1404.3131746689996,None,1404.3131746689996,None,1404.3131746689996,None,1407.245262556,None,1407.245262556,None,1407.245262556,None,1407.245262556,None,,,,,,,,,,,,,,,,,,,,,,,,,,,,,,,,,,,,,,,,,,,,001,59,2020_Feb_04_1042,spring_faces,3.1.5,60.11358461809857,
condition files/Stage1_1.xlsx,,T2,B2,m,"['c', 'm']","['Clue', 'Monopoly']","[-0.15, 0.5]","[0.15, 0.5]",1,1,,,,,,,,,0,0,0,0,0,5,5,3,,,,,,,,,,,,,,,,,,,,,,,,,,,,,,,,,,,,,,,,,,,,,,,,,,,,,,,1409.2119077759999,None,1409.2119077759999,None,1409.2119077759999,None,c,0,1.5180157029999464,1410.7458378840001,None,1410.7458378840001,None,1410.7458378840001,None,1412.3450736939994,None,1412.3450736939994,None,1412.3450736939994,None,1412.3450736939994,None,,,,,,,,,,,,,,,,,,,,,,,,,,,,,,,,,,,,,,,,,,,,001,59,2020_Feb_04_1042,spring_faces,3.1.5,60.11358461809857,
condition files/Stage1_1.xlsx,,T4,B3,m,"['c', 'm']","['Clue', 'Monopoly']","[-0.15, 0.5]","[0.15, 0.5]",1,1,,,,,,,,,0,0,0,0,0,6,6,6,,,,,,,,,,,,,,,,,,,,,,,,,,,,,,,,,,,,,,,,,,,,,,,,,,,,,,,1414.2951638739996,None,1414.2951638739996,None,1414.2951638739996,None,c,0,2.0997006229999897,1415.8281554959995,None,1415.8281554959995,None,1415.8281554959995,None,1417.9786705139995,None,1417.9786705139995,None,1417.9786705139995,None,1417.9786705139995,None,,,,,,,,,,,,,,,,,,,,,,,,,,,,,,,,,,,,,,,,,,,,001,59,2020_Feb_04_1042,spring_faces,3.1.5,60.11358461809857,
condition files/Stage1_1.xlsx,,T1,B1,c,"['c', 'm']","['Clue', 'Monopoly']","[-0.15, 0.5]","[0.15, 0.5]",1,1,,,,,,,,,0,0,0,0,0,7,7,0,,,,,,,,,,,,,,,,,,,,,,,,,,,,,,,,,,,,,,,,,,,,,,,,,,,,,,,1419.9450979419998,None,1419.9450979419998,None,1419.9450979419998,None,c,1,2.257594099999551,1421.4783426140002,None,1421.4783426140002,None,1421.4783426140002,None,1423.795661874,None,1423.795661874,None,1423.795661874,None,1423.795661874,None,,,,,,,,,,,,,,,,,,,,,,,,,,,,,,,,,,,,,,,,,,,,001,59,2020_Feb_04_1042,spring_faces,3.1.5,60.11358461809857,
condition files/Stage1_2.xlsx,,B3,T4,m,"['c', 'm']","['Clue', 'Monopoly']","[-0.15, 0.5]","[0.15, 0.5]",1,1,,,,,,,,,0,1,1,1,0,0,0,6,,,,,,,,,,,,,,,,,,,,,,,,,,,,,,,,,,,,,,,,,,,,,,,,,,,,,,,1425.7787816270002,None,1425.7787816270002,None,1425.7787816270002,None,m,1,1.191291199999796,1427.3286297579998,None,1427.3286297579998,None,1427.3286297579998,None,1428.580764317,None,1428.580764317,None,1428.580764317,None,1428.580764317,None,,,,,,,,,,,,,,,,,,,,,,,,,,,,,,,,,,,,,,,,,,,,001,59,2020_Feb_04_1042,spring_faces,3.1.5,60.11358461809857,
condition files/Stage1_2.xlsx,,T3,B3,c,"['c', 'm']","['Clue', 'Monopoly']","[-0.15, 0.5]","[0.15, 0.5]",1,1,,,,,,,,,0,1,1,1,0,1,1,4,,,,,,,,,,,,,,,,,,,,,,,,,,,,,,,,,,,,,,,,,,,,,,,,,,,,,,,1430.5449748729998,None,1430.5449748729998,None,1430.5449748729998,None,c,1,0.6486967789996925,1432.095148124,None,1432.095148124,None,1432.095148124,None,1432.7979478919997,None,1432.7979478919997,None,1432.7979478919997,None,1432.7979478919997,None,,,,,,,,,,,,,,,,,,,,,,,,,,,,,,,,,,,,,,,,,,,,001,59,2020_Feb_04_1042,spring_faces,3.1.5,60.11358461809857,
condition files/Stage1_2.xlsx,,B4,T3,c,"['c', 'm']","['Clue', 'Monopoly']","[-0.15, 0.5]","[0.15, 0.5]",1,1,,,,,,,,,0,1,1,1,0,2,2,5,,,,,,,,,,,,,,,,,,,,,,,,,,,,,,,,,,,,,,,,,,,,,,,,,,,,,,,1434.7618115149999,None,1434.7618115149999,None,1434.7618115149999,None,m,0,0.9766760290003731,1436.2952537519996,None,1436.2952537519996,None,1436.2952537519996,None,1437.3281430420002,None,1437.3281430420002,None,1437.3281430420002,None,1437.3281430420002,None,,,,,,,,,,,,,,,,,,,,,,,,,,,,,,,,,,,,,,,,,,,,001,59,2020_Feb_04_1042,spring_faces,3.1.5,60.11358461809857,
condition files/Stage1_2.xlsx,,B1,T1,c,"['c', 'm']","['Clue', 'Monopoly']","[-0.15, 0.5]","[0.15, 0.5]",1,1,,,,,,,,,0,1,1,1,0,3,3,0,,,,,,,,,,,,,,,,,,,,,,,,,,,,,,,,,,,,,,,,,,,,,,,,,,,,,,,1439.2950817680003,None,1439.2950817680003,None,1439.2950817680003,None,c,1,2.4414460890002374,1440.8304555989998,None,1440.8304555989998,None,1440.8304555989998,None,1443.3283893440002,None,1443.3283893440002,None,1443.3283893440002,None,1443.3283893440002,None,,,,,,,,,,,,,,,,,,,,,,,,,,,,,,,,,,,,,,,,,,,,001,59,2020_Feb_04_1042,spring_faces,3.1.5,60.11358461809857,
condition files/Stage1_2.xlsx,,T2,B1,c,"['c', 'm']","['Clue', 'Monopoly']","[-0.15, 0.5]","[0.15, 0.5]",1,1,,,,,,,,,0,1,1,1,0,4,4,1,,,,,,,,,,,,,,,,,,,,,,,,,,,,,,,,,,,,,,,,,,,,,,,,,,,,,,,1445.2952187109995,None,1445.2952187109995,None,1445.2952187109995,None,c,1,3.049916795000172,1446.829888886,None,1446.829888886,None,1446.829888886,None,1449.9448940989996,None,1449.9448940989996,None,1449.9448940989996,None,1449.9448940989996,None,,,,,,,,,,,,,,,,,,,,,,,,,,,,,,,,,,,,,,,,,,,,001,59,2020_Feb_04_1042,spring_faces,3.1.5,60.11358461809857,
condition files/Stage1_2.xlsx,,T4,B4,m,"['c', 'm']","['Clue', 'Monopoly']","[-0.15, 0.5]","[0.15, 0.5]",1,1,,,,,,,,,0,1,1,1,0,5,5,7,,,,,,,,,,,,,,,,,,,,,,,,,,,,,,,,,,,,,,,,,,,,,,,,,,,,,,,1451.9114304149998,None,1451.9114304149998,None,1451.9114304149998,None,m,1,1.8099926550003147,1453.4619065910001,None,1453.4619065910001,None,1453.4619065910001,None,1455.3309180939996,None,1455.3309180939996,None,1455.3309180939996,None,1455.3309180939996,None,,,,,,,,,,,,,,,,,,,,,,,,,,,,,,,,,,,,,,,,,,,,001,59,2020_Feb_04_1042,spring_faces,3.1.5,60.11358461809857,
condition files/Stage1_2.xlsx,,B2,T2,m,"['c', 'm']","['Clue', 'Monopoly']","[-0.15, 0.5]","[0.15, 0.5]",1,1,,,,,,,,,0,1,1,1,0,6,6,3,,,,,,,,,,,,,,,,,,,,,,,,,,,,,,,,,,,,,,,,,,,,,,,,,,,,,,,1457.2951105249995,None,1457.2951105249995,None,1457.2951105249995,None,c,0,2.635214982999969,1458.828617237,None,1458.828617237,None,1458.828617237,None,1461.5287700159997,None,1461.5287700159997,None,1461.5287700159997,None,1461.5287700159997,None,,,,,,,,,,,,,,,,,,,,,,,,,,,,,,,,,,,,,,,,,,,,001,59,2020_Feb_04_1042,spring_faces,3.1.5,60.11358461809857,
condition files/Stage1_2.xlsx,,T1,B2,m,"['c', 'm']","['Clue', 'Monopoly']","[-0.15, 0.5]","[0.15, 0.5]",1,1,,,,,,,,,0,1,1,1,0,7,7,2,,,,,,,,,,,,,,,,,,,,,,,,,,,,,,,,,,,,,,,,,,,,,,,,,,,,,,,1463.4949329499996,None,1463.4949329499996,None,1463.4949329499996,None,c,0,1.619014177000281,1465.0288539169997,None,1465.0288539169997,None,1465.0288539169997,None,1466.7118507079995,None,1466.7118507079995,None,1466.7118507079995,None,1466.7118507079995,None,,,,,,,,,,,,,,,,,,,,,,,,,,,,,,,,,,,,,,,,,,,,001,59,2020_Feb_04_1042,spring_faces,3.1.5,60.11358461809857,
condition files/Stage1_1.xlsx,,B4,T4,m,"['c', 'm']","['Clue', 'Monopoly']","[-0.15, 0.5]","[0.15, 0.5]",1,1,,,,,,,,,0,2,2,2,0,0,0,7,,,,,,,,,,,,,,,,,,,,,,,,,,,,,,,,,,,,,,,,,,,,,,,,,,,,,,,1468.695269076,None,1468.695269076,None,1468.695269076,None,c,0,2.050556244999825,1470.2452597089996,None,1470.2452597089996,None,1470.2452597089996,None,1472.3615199200003,None,1472.3615199200003,None,1472.3615199200003,None,1472.3615199200003,None,,,,,,,,,,,,,,,,,,,,,,,,,,,,,,,,,,,,,,,,,,,,001,59,2020_Feb_04_1042,spring_faces,3.1.5,60.11358461809857,
condition files/Stage1_1.xlsx,,T4,B3,m,"['c', 'm']","['Clue', 'Monopoly']","[-0.15, 0.5]","[0.15, 0.5]",1,1,,,,,,,,,0,2,2,2,0,1,1,6,,,,,,,,,,,,,,,,,,,,,,,,,,,,,,,,,,,,,,,,,,,,,,,,,,,,,,,1474.3275987739999,None,1474.3275987739999,None,1474.3275987739999,None,m,1,1.3626953810007763,1475.8611363049995,None,1475.8611363049995,None,1475.8611363049995,None,1477.27853797,None,1477.27853797,None,1477.27853797,None,1477.27853797,None,,,,,,,,,,,,,,,,,,,,,,,,,,,,,,,,,,,,,,,,,,,,001,59,2020_Feb_04_1042,spring_faces,3.1.5,60.11358461809857,
condition files/Stage1_1.xlsx,,B3,T3,c,"['c', 'm']","['Clue', 'Monopoly']","[-0.15, 0.5]","[0.15, 0.5]",1,1,,,,,,,,,0,2,2,2,0,2,2,4,,,,,,,,,,,,,,,,,,,,,,,,,,,,,,,,,,,,,,,,,,,,,,,,,,,,,,,1479.244473998,None,1479.244473998,None,1479.244473998,None,c,1,2.2526760439995996,1480.7791863470002,None,1480.7791863470002,None,1480.7791863470002,None,1483.1116542959999,None,1483.1116542959999,None,1483.1116542959999,None,1483.1116542959999,None,,,,,,,,,,,,,,,,,,,,,,,,,,,,,,,,,,,,,,,,,,,,001,59,2020_Feb_04_1042,spring_faces,3.1.5,60.11358461809857,
condition files/Stage1_1.xlsx,,B2,T1,m,"['c', 'm']","['Clue', 'Monopoly']","[-0.15, 0.5]","[0.15, 0.5]",1,1,,,,,,,,,0,2,2,2,0,3,3,2,,,,,,,,,,,,,,,,,,,,,,,,,,,,,,,,,,,,,,,,,,,,,,,,,,,,,,,1485.0617441469994,None,1485.0617441469994,None,1485.0617441469994,None,m,1,1.587261351000052,1486.5966071789999,None,1486.5966071789999,None,1486.5966071789999,None,1488.2618855219998,None,1488.2618855219998,None,1488.2618855219998,None,1488.2618855219998,None,,,,,,,,,,,,,,,,,,,,,,,,,,,,,,,,,,,,,,,,,,,,001,59,2020_Feb_04_1042,spring_faces,3.1.5,60.11358461809857,
condition files/Stage1_1.xlsx,,T2,B2,m,"['c', 'm']","['Clue', 'Monopoly']","[-0.15, 0.5]","[0.15, 0.5]",1,1,,,,,,,,,0,2,2,2,0,4,4,3,,,,,,,,,,,,,,,,,,,,,,,,,,,,,,,,,,,,,,,,,,,,,,,,,,,,,,,1490.2113785310003,None,1490.2113785310003,None,1490.2113785310003,None,c,0,1.2687311250001585,1491.7471311199997,None,1491.7471311199997,None,1491.7471311199997,None,1493.0788861949995,None,1493.0788861949995,None,1493.0788861949995,None,1493.0788861949995,None,,,,,,,,,,,,,,,,,,,,,,,,,,,,,,,,,,,,,,,,,,,,001,59,2020_Feb_04_1042,spring_faces,3.1.5,60.11358461809857,
condition files/Stage1_1.xlsx,,T1,B1,c,"['c', 'm']","['Clue', 'Monopoly']","[-0.15, 0.5]","[0.15, 0.5]",1,1,,,,,,,,,0,2,2,2,0,5,5,0,,,,,,,,,,,,,,,,,,,,,,,,,,,,,,,,,,,,,,,,,,,,,,,,,,,,,,,1495.0450546020002,None,1495.0450546020002,None,1495.0450546020002,None,c,1,1.6044346140006382,1496.579436506,None,1496.579436506,None,1496.579436506,None,1498.2454649559995,None,1498.2454649559995,None,1498.2454649559995,None,1498.2454649559995,None,,,,,,,,,,,,,,,,,,,,,,,,,,,,,,,,,,,,,,,,,,,,001,59,2020_Feb_04_1042,spring_faces,3.1.5,60.11358461809857,
condition files/Stage1_1.xlsx,,T3,B4,c,"['c', 'm']","['Clue', 'Monopoly']","[-0.15, 0.5]","[0.15, 0.5]",1,1,,,,,,,,,0,2,2,2,0,6,6,5,,,,,,,,,,,,,,,,,,,,,,,,,,,,,,,,,,,,,,,,,,,,,,,,,,,,,,,1500.2117415929997,None,1500.2117415929997,None,1500.2117415929997,None,c,1,1.3646945870004856,1501.7471908159996,None,1501.7471908159996,None,1501.7471908159996,None,1503.1611216989995,None,1503.1611216989995,None,1503.1611216989995,None,1503.1611216989995,None,,,,,,,,,,,,,,,,,,,,,,,,,,,,,,,,,,,,,,,,,,,,001,59,2020_Feb_04_1042,spring_faces,3.1.5,60.11358461809857,
condition files/Stage1_1.xlsx,,B1,T2,c,"['c', 'm']","['Clue', 'Monopoly']","[-0.15, 0.5]","[0.15, 0.5]",1,1,,,,,,,,,0,2,2,2,0,7,7,1,,,,,,,,,,,,,,,,,,,,,,,,,,,,,,,,,,,,,,,,,,,,,,,,,,,,,,,1505.1284117779996,None,1505.1284117779996,None,1505.1284117779996,None,c,1,2.849180651000097,1506.6786546539997,None,1506.6786546539997,None,1506.6786546539997,None,1509.5778841820002,None,1509.5778841820002,None,1509.5778841820002,None,1509.5778841820002,None,,,,,,,,,,,,,,,,,,,,,,,,,,,,,,,,,,,,,,,,,,,,001,59,2020_Feb_04_1042,spring_faces,3.1.5,60.11358461809857,
condition files/Stage1_2.xlsx,,B3,T4,m,"['c', 'm']","['Clue', 'Monopoly']","[-0.15, 0.5]","[0.15, 0.5]",1,1,,,,,,,,,0,3,3,3,0,0,0,6,,,,,,,,,,,,,,,,,,,,,,,,,,,,,,,,,,,,,,,,,,,,,,,,,,,,,,,1511.561387799,None,1511.561387799,None,1511.561387799,None,m,1,1.4239670790002492,1513.095958684,None,1513.095958684,None,1513.095958684,None,1514.580167264,None,1514.580167264,None,1514.580167264,None,1514.580167264,None,,,,,,,,,,,,,,,,,,,,,,,,,,,,,,,,,,,,,,,,,,,,001,59,2020_Feb_04_1042,spring_faces,3.1.5,60.11358461809857,
condition files/Stage1_2.xlsx,,B4,T3,c,"['c', 'm']","['Clue', 'Monopoly']","[-0.15, 0.5]","[0.15, 0.5]",1,1,,,,,,,,,0,3,3,3,0,1,1,5,,,,,,,,,,,,,,,,,,,,,,,,,,,,,,,,,,,,,,,,,,,,,,,,,,,,,,,1516.5450818239997,None,1516.5450818239997,None,1516.5450818239997,None,c,1,2.488082152000061,1518.079853495,None,1518.079853495,None,1518.079853495,None,1520.6296772690002,None,1520.6296772690002,None,1520.6296772690002,None,1520.6296772690002,None,,,,,,,,,,,,,,,,,,,,,,,,,,,,,,,,,,,,,,,,,,,,001,59,2020_Feb_04_1042,spring_faces,3.1.5,60.11358461809857,
condition files/Stage1_2.xlsx,,T4,B4,m,"['c', 'm']","['Clue', 'Monopoly']","[-0.15, 0.5]","[0.15, 0.5]",1,1,,,,,,,,,0,3,3,3,0,2,2,7,,,,,,,,,,,,,,,,,,,,,,,,,,,,,,,,,,,,,,,,,,,,,,,,,,,,,,,1522.5951694630003,None,1522.5951694630003,None,1522.5951694630003,None,m,1,1.9895601660000466,1524.1303682400003,None,1524.1303682400003,None,1524.1303682400003,None,1526.195441412,None,1526.195441412,None,1526.195441412,None,1526.195441412,None,,,,,,,,,,,,,,,,,,,,,,,,,,,,,,,,,,,,,,,,,,,,001,59,2020_Feb_04_1042,spring_faces,3.1.5,60.11358461809857,
condition files/Stage1_2.xlsx,,T3,B3,c,"['c', 'm']","['Clue', 'Monopoly']","[-0.15, 0.5]","[0.15, 0.5]",1,1,,,,,,,,,0,3,3,3,0,3,3,4,,,,,,,,,,,,,,,,,,,,,,,,,,,,,,,,,,,,,,,,,,,,,,,,,,,,,,,1528.1452039329997,None,1528.1452039329997,None,1528.1452039329997,None,c,1,0.8247366100004001,1529.6951813879996,None,1529.6951813879996,None,1529.6951813879996,None,1530.5950639940002,None,1530.5950639940002,None,1530.5950639940002,None,1530.5950639940002,None,,,,,,,,,,,,,,,,,,,,,,,,,,,,,,,,,,,,,,,,,,,,001,59,2020_Feb_04_1042,spring_faces,3.1.5,60.11358461809857,
condition files/Stage1_2.xlsx,,B2,T2,m,"['c', 'm']","['Clue', 'Monopoly']","[-0.15, 0.5]","[0.15, 0.5]",1,1,,,,,,,,,0,3,3,3,0,4,4,3,,,,,,,,,,,,,,,,,,,,,,,,,,,,,,,,,,,,,,,,,,,,,,,,,,,,,,,1532.5451986259995,None,1532.5451986259995,None,1532.5451986259995,None,m,1,2.680552336999426,1534.0952967929998,None,1534.0952967929998,None,1534.0952967929998,None,1536.8305268389995,None,1536.8305268389995,None,1536.8305268389995,None,1536.8305268389995,None,,,,,,,,,,,,,,,,,,,,,,,,,,,,,,,,,,,,,,,,,,,,001,59,2020_Feb_04_1042,spring_faces,3.1.5,60.11358461809857,
condition files/Stage1_2.xlsx,,B1,T1,c,"['c', 'm']","['Clue', 'Monopoly']","[-0.15, 0.5]","[0.15, 0.5]",1,1,,,,,,,,,0,3,3,3,0,5,5,0,,,,,,,,,,,,,,,,,,,,,,,,,,,,,,,,,,,,,,,,,,,,,,,,,,,,,,,1538.7945005169995,None,1538.7945005169995,None,1538.7945005169995,None,c,1,1.421984445999442,1540.3299394429996,None,1540.3299394429996,None,1540.3299394429996,None,1541.812869896,None,1541.812869896,None,1541.812869896,None,1541.812869896,None,,,,,,,,,,,,,,,,,,,,,,,,,,,,,,,,,,,,,,,,,,,,001,59,2020_Feb_04_1042,spring_faces,3.1.5,60.11358461809857,
condition files/Stage1_2.xlsx,,T2,B1,c,"['c', 'm']","['Clue', 'Monopoly']","[-0.15, 0.5]","[0.15, 0.5]",1,1,,,,,,,,,0,3,3,3,0,6,6,1,,,,,,,,,,,,,,,,,,,,,,,,,,,,,,,,,,,,,,,,,,,,,,,,,,,,,,,1543.778499598,None,1543.778499598,None,1543.778499598,None,c,1,1.751415060999534,1545.328406308,None,1545.328406308,None,1545.328406308,None,1547.1451862329995,None,1547.1451862329995,None,1547.1451862329995,None,1547.1451862329995,None,,,,,,,,,,,,,,,,,,,,,,,,,,,,,,,,,,,,,,,,,,,,001,59,2020_Feb_04_1042,spring_faces,3.1.5,60.11358461809857,
condition files/Stage1_2.xlsx,,T1,B2,m,"['c', 'm']","['Clue', 'Monopoly']","[-0.15, 0.5]","[0.15, 0.5]",1,1,,,,,,,,,0,3,3,3,0,7,7,2,,,,,,,,,,,,,,,,,,,,,,,,,,,,,,,,,,,,,,,,,,,,,,,,,,,,,,,1549.1117796419994,None,1549.1117796419994,None,1549.1117796419994,None,m,1,1.954216780999559,1550.661637831,None,1550.661637831,None,1550.661637831,None,1552.6801580129995,None,1552.6801580129995,None,1552.6801580129995,None,1552.6801580129995,None,,,,,,,,,,,,,,,,,,,,,,,,,,,,,,,,,,,,,,,,,,,,001,59,2020_Feb_04_1042,spring_faces,3.1.5,60.11358461809857,
condition files/Stage1_1.xlsx,,T1,B1,c,"['c', 'm']","['Clue', 'Monopoly']","[-0.15, 0.5]","[0.15, 0.5]",1,1,,,,,,,,,0,4,4,4,0,0,0,0,,,,,,,,,,,,,,,,,,,,,,,,,,,,,,,,,,,,,,,,,,,,,,,,,,,,,,,1554.6619528129995,None,1554.6619528129995,None,1554.6619528129995,None,c,1,2.116149625999242,1556.1957343229997,None,1556.1957343229997,None,1556.1957343229997,None,1558.3789353000002,None,1558.3789353000002,None,1558.3789353000002,None,1558.3789353000002,None,,,,,,,,,,,,,,,,,,,,,,,,,,,,,,,,,,,,,,,,,,,,001,59,2020_Feb_04_1042,spring_faces,3.1.5,60.11358461809857,
condition files/Stage1_1.xlsx,,T4,B3,m,"['c', 'm']","['Clue', 'Monopoly']","[-0.15, 0.5]","[0.15, 0.5]",1,1,,,,,,,,,0,4,4,4,0,1,1,6,,,,,,,,,,,,,,,,,,,,,,,,,,,,,,,,,,,,,,,,,,,,,,,,,,,,,,,1560.3283416289996,None,1560.3283416289996,None,1560.3283416289996,None,m,1,2.0003499150006974,1561.8634755419998,None,1561.8634755419998,None,1561.8634755419998,None,1563.930671772,None,1563.930671772,None,1563.930671772,None,1563.930671772,None,,,,,,,,,,,,,,,,,,,,,,,,,,,,,,,,,,,,,,,,,,,,001,59,2020_Feb_04_1042,spring_faces,3.1.5,60.11358461809857,
condition files/Stage1_1.xlsx,,B4,T4,m,"['c', 'm']","['Clue', 'Monopoly']","[-0.15, 0.5]","[0.15, 0.5]",1,1,,,,,,,,,0,4,4,4,0,2,2,7,,,,,,,,,,,,,,,,,,,,,,,,,,,,,,,,,,,,,,,,,,,,,,,,,,,,,,,1565.895055631,None,1565.895055631,None,1565.895055631,None,m,1,1.9066207700006998,1567.4293198169999,None,1567.4293198169999,None,1567.4293198169999,None,1569.3952688500003,None,1569.3952688500003,None,1569.3952688500003,None,1569.3952688500003,None,,,,,,,,,,,,,,,,,,,,,,,,,,,,,,,,,,,,,,,,,,,,001,59,2020_Feb_04_1042,spring_faces,3.1.5,60.11358461809857,
condition files/Stage1_1.xlsx,,B2,T1,m,"['c', 'm']","['Clue', 'Monopoly']","[-0.15, 0.5]","[0.15, 0.5]",1,1,,,,,,,,,0,4,4,4,0,3,3,2,,,,,,,,,,,,,,,,,,,,,,,,,,,,,,,,,,,,,,,,,,,,,,,,,,,,,,,1571.361342393,None,1571.361342393,None,1571.361342393,None,m,1,2.632284518999768,1572.9115505709997,None,1572.9115505709997,None,1572.9115505709997,None,1575.5961265979995,None,1575.5961265979995,None,1575.5961265979995,None,1575.5961265979995,None,,,,,,,,,,,,,,,,,,,,,,,,,,,,,,,,,,,,,,,,,,,,001,59,2020_Feb_04_1042,spring_faces,3.1.5,60.11358461809857,
condition files/Stage1_1.xlsx,,B1,T2,c,"['c', 'm']","['Clue', 'Monopoly']","[-0.15, 0.5]","[0.15, 0.5]",1,1,,,,,,,,,0,4,4,4,0,4,4,1,,,,,,,,,,,,,,,,,,,,,,,,,,,,,,,,,,,,,,,,,,,,,,,,,,,,,,,1577.5620105239996,None,1577.5620105239996,None,1577.5620105239996,None,c,1,2.3352795709997736,1579.0965972490003,None,1579.0965972490003,None,1579.0965972490003,None,1581.5118555079998,None,1581.5118555079998,None,1581.5118555079998,None,1581.5118555079998,None,,,,,,,,,,,,,,,,,,,,,,,,,,,,,,,,,,,,,,,,,,,,001,59,2020_Feb_04_1042,spring_faces,3.1.5,60.11358461809857,
condition files/Stage1_1.xlsx,,T2,B2,m,"['c', 'm']","['Clue', 'Monopoly']","[-0.15, 0.5]","[0.15, 0.5]",1,1,,,,,,,,,0,4,4,4,0,5,5,3,,,,,,,,,,,,,,,,,,,,,,,,,,,,,,,,,,,,,,,,,,,,,,,,,,,,,,,1583.4616909719998,None,1583.4616909719998,None,1583.4616909719998,None,m,1,1.2993927060006172,1584.9964368769997,None,1584.9964368769997,None,1584.9964368769997,None,1586.3631346069997,None,1586.3631346069997,None,1586.3631346069997,None,1586.3631346069997,None,,,,,,,,,,,,,,,,,,,,,,,,,,,,,,,,,,,,,,,,,,,,001,59,2020_Feb_04_1042,spring_faces,3.1.5,60.11358461809857,
condition files/Stage1_1.xlsx,,T3,B4,c,"['c', 'm']","['Clue', 'Monopoly']","[-0.15, 0.5]","[0.15, 0.5]",1,1,,,,,,,,,0,4,4,4,0,6,6,5,,,,,,,,,,,,,,,,,,,,,,,,,,,,,,,,,,,,,,,,,,,,,,,,,,,,,,,1588.3281500080002,None,1588.3281500080002,None,1588.3281500080002,None,c,1,0.9134977140001865,1589.8784078419994,None,1589.8784078419994,None,1589.8784078419994,None,1590.861986711,None,1590.861986711,None,1590.861986711,None,1590.861986711,None,,,,,,,,,,,,,,,,,,,,,,,,,,,,,,,,,,,,,,,,,,,,001,59,2020_Feb_04_1042,spring_faces,3.1.5,60.11358461809857,
condition files/Stage1_1.xlsx,,B3,T3,c,"['c', 'm']","['Clue', 'Monopoly']","[-0.15, 0.5]","[0.15, 0.5]",1,1,,,,,,,,,0,4,4,4,0,7,7,4,,,,,,,,,,,,,,,,,,,,,,,,,,,,,,,,,,,,,,,,,,,,,,,,,,,,,,,1592.8117411459998,None,1592.8117411459998,None,1592.8117411459998,None,c,1,1.4227164060002906,1594.3451927469996,None,1594.3451927469996,None,1594.3451927469996,None,1595.8285631899998,None,1595.8285631899998,None,1595.8285631899998,None,1595.8285631899998,None,,,,,,,,,,,,,,,,,,,,,,,,,,,,,,,,,,,,,,,,,,,,001,59,2020_Feb_04_1042,spring_faces,3.1.5,60.11358461809857,
condition files/Stage1_2.xlsx,,T2,B1,c,"['c', 'm']","['Clue', 'Monopoly']","[-0.15, 0.5]","[0.15, 0.5]",1,1,,,,,,,,,0,5,5,5,0,0,0,1,,,,,,,,,,,,,,,,,,,,,,,,,,,,,,,,,,,,,,,,,,,,,,,,,,,,,,,1597.8121326379996,None,1597.8121326379996,None,1597.8121326379996,None,c,1,1.509560225000314,1599.3464006510003,None,1599.3464006510003,None,1599.3464006510003,None,1600.911317866,None,1600.911317866,None,1600.911317866,None,1600.911317866,None,,,,,,,,,,,,,,,,,,,,,,,,,,,,,,,,,,,,,,,,,,,,001,59,2020_Feb_04_1042,spring_faces,3.1.5,60.11358461809857,
condition files/Stage1_2.xlsx,,T1,B2,m,"['c', 'm']","['Clue', 'Monopoly']","[-0.15, 0.5]","[0.15, 0.5]",1,1,,,,,,,,,0,5,5,5,0,1,1,2,,,,,,,,,,,,,,,,,,,,,,,,,,,,,,,,,,,,,,,,,,,,,,,,,,,,,,,1602.8788258329996,None,1602.8788258329996,None,1602.8788258329996,None,m,1,1.434934522999356,1604.412928834,None,1604.412928834,None,1604.412928834,None,1605.913457744,None,1605.913457744,None,1605.913457744,None,1605.913457744,None,,,,,,,,,,,,,,,,,,,,,,,,,,,,,,,,,,,,,,,,,,,,001,59,2020_Feb_04_1042,spring_faces,3.1.5,60.11358461809857,
condition files/Stage1_2.xlsx,,T3,B3,c,"['c', 'm']","['Clue', 'Monopoly']","[-0.15, 0.5]","[0.15, 0.5]",1,1,,,,,,,,,0,5,5,5,0,2,2,4,,,,,,,,,,,,,,,,,,,,,,,,,,,,,,,,,,,,,,,,,,,,,,,,,,,,,,,1607.8784412619998,None,1607.8784412619998,None,1607.8784412619998,None,c,1,0.9626605130006283,1609.4132075480002,None,1609.4132075480002,None,1609.4132075480002,None,1610.4312129979999,None,1610.4312129979999,None,1610.4312129979999,None,1610.4312129979999,None,,,,,,,,,,,,,,,,,,,,,,,,,,,,,,,,,,,,,,,,,,,,001,59,2020_Feb_04_1042,spring_faces,3.1.5,60.11358461809857,
condition files/Stage1_2.xlsx,,B3,T4,m,"['c', 'm']","['Clue', 'Monopoly']","[-0.15, 0.5]","[0.15, 0.5]",1,1,,,,,,,,,0,5,5,5,0,3,3,6,,,,,,,,,,,,,,,,,,,,,,,,,,,,,,,,,,,,,,,,,,,,,,,,,,,,,,,1612.394892546,None,1612.394892546,None,1612.394892546,None,m,1,1.8711974769994413,1613.9446676409998,None,1613.9446676409998,None,1613.9446676409998,None,1615.8796059229999,None,1615.8796059229999,None,1615.8796059229999,None,1615.8796059229999,None,,,,,,,,,,,,,,,,,,,,,,,,,,,,,,,,,,,,,,,,,,,,001,59,2020_Feb_04_1042,spring_faces,3.1.5,60.11358461809857,
condition files/Stage1_2.xlsx,,B2,T2,m,"['c', 'm']","['Clue', 'Monopoly']","[-0.15, 0.5]","[0.15, 0.5]",1,1,,,,,,,,,0,5,5,5,0,4,4,3,,,,,,,,,,,,,,,,,,,,,,,,,,,,,,,,,,,,,,,,,,,,,,,,,,,,,,,1617.8448226579994,None,1617.8448226579994,None,1617.8448226579994,None,m,1,1.427727135999703,1619.3801298709996,None,1619.3801298709996,None,1619.3801298709996,None,1620.8613333599997,None,1620.8613333599997,None,1620.8613333599997,None,1620.8613333599997,None,,,,,,,,,,,,,,,,,,,,,,,,,,,,,,,,,,,,,,,,,,,,001,59,2020_Feb_04_1042,spring_faces,3.1.5,60.11358461809857,
condition files/Stage1_2.xlsx,,B1,T1,c,"['c', 'm']","['Clue', 'Monopoly']","[-0.15, 0.5]","[0.15, 0.5]",1,1,,,,,,,,,0,5,5,5,0,5,5,0,,,,,,,,,,,,,,,,,,,,,,,,,,,,,,,,,,,,,,,,,,,,,,,,,,,,,,,1622.8285364949998,None,1622.8285364949998,None,1622.8285364949998,None,c,1,0.9892637749999267,1624.3786438500001,None,1624.3786438500001,None,1624.3786438500001,None,1625.43004896,None,1625.43004896,None,1625.43004896,None,1625.43004896,None,,,,,,,,,,,,,,,,,,,,,,,,,,,,,,,,,,,,,,,,,,,,001,59,2020_Feb_04_1042,spring_faces,3.1.5,60.11358461809857,
condition files/Stage1_2.xlsx,,T4,B4,m,"['c', 'm']","['Clue', 'Monopoly']","[-0.15, 0.5]","[0.15, 0.5]",1,1,,,,,,,,,0,5,5,5,0,6,6,7,,,,,,,,,,,,,,,,,,,,,,,,,,,,,,,,,,,,,,,,,,,,,,,,,,,,,,,1627.394844644,None,1627.394844644,None,1627.394844644,None,m,1,2.7753084349997152,1628.944610912,None,1628.944610912,None,1628.944610912,None,1631.7806763709996,None,1631.7806763709996,None,1631.7806763709996,None,1631.7806763709996,None,,,,,,,,,,,,,,,,,,,,,,,,,,,,,,,,,,,,,,,,,,,,001,59,2020_Feb_04_1042,spring_faces,3.1.5,60.11358461809857,
condition files/Stage1_2.xlsx,,B4,T3,c,"['c', 'm']","['Clue', 'Monopoly']","[-0.15, 0.5]","[0.15, 0.5]",1,1,,,,,,,,,0,5,5,5,0,7,7,5,,,,,,,,,,,,,,,,,,,,,,,,,,,,,,,,,,,,,,,,,,,,,,,,,,,,,,,1633.74472246,None,1633.74472246,None,1633.74472246,None,c,1,1.0162947110002278,1635.2795510260003,None,1635.2795510260003,None,1635.2795510260003,None,1636.3617115039997,None,1636.3617115039997,None,1636.3617115039997,None,1636.3617115039997,None,,,,,,,,,,,,,,,,,,,,,,,,,,,,,,,,,,,,,,,,,,,,001,59,2020_Feb_04_1042,spring_faces,3.1.5,60.11358461809857,
condition files/Stage1_1.xlsx,,B4,T4,m,"['c', 'm']","['Clue', 'Monopoly']","[-0.15, 0.5]","[0.15, 0.5]",1,1,,,,,,,,,0,6,6,6,0,0,0,7,,,,,,,,,,,,,,,,,,,,,,,,,,,,,,,,,,,,,,,,,,,,,,,,,,,,,,,1638.3453249920003,None,1638.3453249920003,None,1638.3453249920003,None,m,1,2.6890227980002237,1639.8948414999995,None,1639.8948414999995,None,1639.8948414999995,None,1642.6478647089998,None,1642.6478647089998,None,1642.6478647089998,None,1642.6478647089998,None,,,,,,,,,,,,,,,,,,,,,,,,,,,,,,,,,,,,,,,,,,,,001,59,2020_Feb_04_1042,spring_faces,3.1.5,60.11358461809857,
condition files/Stage1_1.xlsx,,T4,B3,m,"['c', 'm']","['Clue', 'Monopoly']","[-0.15, 0.5]","[0.15, 0.5]",1,1,,,,,,,,,0,6,6,6,0,1,1,6,,,,,,,,,,,,,,,,,,,,,,,,,,,,,,,,,,,,,,,,,,,,,,,,,,,,,,,1644.6117973609998,None,1644.6117973609998,None,1644.6117973609998,None,m,1,1.7022213370000827,1646.145650042,None,1646.145650042,None,1646.145650042,None,1647.911966617,None,1647.911966617,None,1647.911966617,None,1647.911966617,None,,,,,,,,,,,,,,,,,,,,,,,,,,,,,,,,,,,,,,,,,,,,001,59,2020_Feb_04_1042,spring_faces,3.1.5,60.11358461809857,
condition files/Stage1_1.xlsx,,B2,T1,m,"['c', 'm']","['Clue', 'Monopoly']","[-0.15, 0.5]","[0.15, 0.5]",1,1,,,,,,,,,0,6,6,6,0,2,2,2,,,,,,,,,,,,,,,,,,,,,,,,,,,,,,,,,,,,,,,,,,,,,,,,,,,,,,,1649.8785153609997,None,1649.8785153609997,None,1649.8785153609997,None,m,1,1.874803339999744,1651.4131731799998,None,1651.4131731799998,None,1651.4131731799998,None,1653.345294056,None,1653.345294056,None,1653.345294056,None,1653.345294056,None,,,,,,,,,,,,,,,,,,,,,,,,,,,,,,,,,,,,,,,,,,,,001,59,2020_Feb_04_1042,spring_faces,3.1.5,60.11358461809857,
condition files/Stage1_1.xlsx,,B3,T3,c,"['c', 'm']","['Clue', 'Monopoly']","[-0.15, 0.5]","[0.15, 0.5]",1,1,,,,,,,,,0,6,6,6,0,3,3,4,,,,,,,,,,,,,,,,,,,,,,,,,,,,,,,,,,,,,,,,,,,,,,,,,,,,,,,1655.311481703,None,1655.311481703,None,1655.311481703,None,c,1,0.9534320070006288,1656.8464430699996,None,1656.8464430699996,None,1656.8464430699996,None,1657.8785542750002,None,1657.8785542750002,None,1657.8785542750002,None,1657.8785542750002,None,,,,,,,,,,,,,,,,,,,,,,,,,,,,,,,,,,,,,,,,,,,,001,59,2020_Feb_04_1042,spring_faces,3.1.5,60.11358461809857,
condition files/Stage1_1.xlsx,,T1,B1,c,"['c', 'm']","['Clue', 'Monopoly']","[-0.15, 0.5]","[0.15, 0.5]",1,1,,,,,,,,,0,6,6,6,0,4,4,0,,,,,,,,,,,,,,,,,,,,,,,,,,,,,,,,,,,,,,,,,,,,,,,,,,,,,,,1659.8284184839995,None,1659.8284184839995,None,1659.8284184839995,None,c,1,1.1738979669999026,1661.3620393479996,None,1661.3620393479996,None,1661.3620393479996,None,1662.595241899,None,1662.595241899,None,1662.595241899,None,1662.595241899,None,,,,,,,,,,,,,,,,,,,,,,,,,,,,,,,,,,,,,,,,,,,,001,59,2020_Feb_04_1042,spring_faces,3.1.5,60.11358461809857,
condition files/Stage1_1.xlsx,,B1,T2,c,"['c', 'm']","['Clue', 'Monopoly']","[-0.15, 0.5]","[0.15, 0.5]",1,1,,,,,,,,,0,6,6,6,0,5,5,1,,,,,,,,,,,,,,,,,,,,,,,,,,,,,,,,,,,,,,,,,,,,,,,,,,,,,,,1664.5617787909996,None,1664.5617787909996,None,1664.5617787909996,None,c,1,1.1444691160004368,1666.0953649129997,None,1666.0953649129997,None,1666.0953649129997,None,1667.2950667169998,None,1667.2950667169998,None,1667.2950667169998,None,1667.2950667169998,None,,,,,,,,,,,,,,,,,,,,,,,,,,,,,,,,,,,,,,,,,,,,001,59,2020_Feb_04_1042,spring_faces,3.1.5,60.11358461809857,
condition files/Stage1_1.xlsx,,T3,B4,c,"['c', 'm']","['Clue', 'Monopoly']","[-0.15, 0.5]","[0.15, 0.5]",1,1,,,,,,,,,0,6,6,6,0,6,6,5,,,,,,,,,,,,,,,,,,,,,,,,,,,,,,,,,,,,,,,,,,,,,,,,,,,,,,,1669.2617944889998,None,1669.2617944889998,None,1669.2617944889998,None,c,1,0.7489057020002292,1670.7949614560002,None,1670.7949614560002,None,1670.7949614560002,None,1671.594969744,None,1671.594969744,None,1671.594969744,None,1671.594969744,None,,,,,,,,,,,,,,,,,,,,,,,,,,,,,,,,,,,,,,,,,,,,001,59,2020_Feb_04_1042,spring_faces,3.1.5,60.11358461809857,
condition files/Stage1_1.xlsx,,T2,B2,m,"['c', 'm']","['Clue', 'Monopoly']","[-0.15, 0.5]","[0.15, 0.5]",1,1,,,,,,,,,0,6,6,6,0,7,7,3,,,,,,,,,,,,,,,,,,,,,,,,,,,,,,,,,,,,,,,,,,,,,,,,,,,,,,,1673.561154471,None,1673.561154471,None,1673.561154471,None,m,1,1.0087337810000463,1675.0952215179996,None,1675.0952215179996,None,1675.0952215179996,None,1676.1628925759996,None,1676.1628925759996,None,1676.1628925759996,None,1676.1628925759996,None,,,,,,,,,,,,,,,,,,,,,,,,,,,,,,,,,,,,,,,,,,,,001,59,2020_Feb_04_1042,spring_faces,3.1.5,60.11358461809857,
condition files/Stage1_2.xlsx,,B3,T4,m,"['c', 'm']","['Clue', 'Monopoly']","[-0.15, 0.5]","[0.15, 0.5]",1,1,,,,,,,,,0,7,7,7,0,0,0,6,,,,,,,,,,,,,,,,,,,,,,,,,,,,,,,,,,,,,,,,,,,,,,,,,,,,,,,1678.1450951919996,None,1678.1450951919996,None,1678.1450951919996,None,m,1,1.5592519339998034,1679.680599894,None,1679.680599894,None,1679.680599894,None,1681.2950384750002,None,1681.2950384750002,None,1681.2950384750002,None,1681.2950384750002,None,,,,,,,,,,,,,,,,,,,,,,,,,,,,,,,,,,,,,,,,,,,,001,59,2020_Feb_04_1042,spring_faces,3.1.5,60.11358461809857,
condition files/Stage1_2.xlsx,,T3,B3,c,"['c', 'm']","['Clue', 'Monopoly']","[-0.15, 0.5]","[0.15, 0.5]",1,1,,,,,,,,,0,7,7,7,0,1,1,4,,,,,,,,,,,,,,,,,,,,,,,,,,,,,,,,,,,,,,,,,,,,,,,,,,,,,,,1683.261642431,None,1683.261642431,None,1683.261642431,None,c,1,0.9396414010006993,1684.796289283,None,1684.796289283,None,1684.796289283,None,1685.795687758,None,1685.795687758,None,1685.795687758,None,1685.795687758,None,,,,,,,,,,,,,,,,,,,,,,,,,,,,,,,,,,,,,,,,,,,,001,59,2020_Feb_04_1042,spring_faces,3.1.5,60.11358461809857,
condition files/Stage1_2.xlsx,,B4,T3,c,"['c', 'm']","['Clue', 'Monopoly']","[-0.15, 0.5]","[0.15, 0.5]",1,1,,,,,,,,,0,7,7,7,0,2,2,5,,,,,,,,,,,,,,,,,,,,,,,,,,,,,,,,,,,,,,,,,,,,,,,,,,,,,,,1687.7617369939999,None,1687.7617369939999,None,1687.7617369939999,None,c,1,1.5608818710006744,1689.2950608660003,None,1689.2950608660003,None,1689.2950608660003,None,1690.9120409979996,None,1690.9120409979996,None,1690.9120409979996,None,1690.9120409979996,None,,,,,,,,,,,,,,,,,,,,,,,,,,,,,,,,,,,,,,,,,,,,001,59,2020_Feb_04_1042,spring_faces,3.1.5,60.11358461809857,
condition files/Stage1_2.xlsx,,B2,T2,m,"['c', 'm']","['Clue', 'Monopoly']","[-0.15, 0.5]","[0.15, 0.5]",1,1,,,,,,,,,0,7,7,7,0,3,3,3,,,,,,,,,,,,,,,,,,,,,,,,,,,,,,,,,,,,,,,,,,,,,,,,,,,,,,,1692.878493192,None,1692.878493192,None,1692.878493192,None,m,1,2.507857051999963,1694.4120923149994,None,1694.4120923149994,None,1694.4120923149994,None,1696.9955444159996,None,1696.9955444159996,None,1696.9955444159996,None,1696.9955444159996,None,,,,,,,,,,,,,,,,,,,,,,,,,,,,,,,,,,,,,,,,,,,,001,59,2020_Feb_04_1042,spring_faces,3.1.5,60.11358461809857,
condition files/Stage1_2.xlsx,,T4,B4,m,"['c', 'm']","['Clue', 'Monopoly']","[-0.15, 0.5]","[0.15, 0.5]",1,1,,,,,,,,,0,7,7,7,0,4,4,7,,,,,,,,,,,,,,,,,,,,,,,,,,,,,,,,,,,,,,,,,,,,,,,,,,,,,,,1698.9445608139995,None,1698.9445608139995,None,1698.9445608139995,None,m,1,0.9528872790006062,1700.4949761609996,None,1700.4949761609996,None,1700.4949761609996,None,1701.511940075,None,1701.511940075,None,1701.511940075,None,1701.511940075,None,,,,,,,,,,,,,,,,,,,,,,,,,,,,,,,,,,,,,,,,,,,,001,59,2020_Feb_04_1042,spring_faces,3.1.5,60.11358461809857,
condition files/Stage1_2.xlsx,,T1,B2,m,"['c', 'm']","['Clue', 'Monopoly']","[-0.15, 0.5]","[0.15, 0.5]",1,1,,,,,,,,,0,7,7,7,0,5,5,2,,,,,,,,,,,,,,,,,,,,,,,,,,,,,,,,,,,,,,,,,,,,,,,,,,,,,,,1703.4783553529996,None,1703.4783553529996,None,1703.4783553529996,None,m,1,1.2828980419999425,1705.0129452410001,None,1705.0129452410001,None,1705.0129452410001,None,1706.3617618460003,None,1706.3617618460003,None,1706.3617618460003,None,1706.3617618460003,None,,,,,,,,,,,,,,,,,,,,,,,,,,,,,,,,,,,,,,,,,,,,001,59,2020_Feb_04_1042,spring_faces,3.1.5,60.11358461809857,
condition files/Stage1_2.xlsx,,T2,B1,c,"['c', 'm']","['Clue', 'Monopoly']","[-0.15, 0.5]","[0.15, 0.5]",1,1,,,,,,,,,0,7,7,7,0,6,6,1,,,,,,,,,,,,,,,,,,,,,,,,,,,,,,,,,,,,,,,,,,,,,,,,,,,,,,,1708.3284557649995,None,1708.3284557649995,None,1708.3284557649995,None,c,1,1.87355624599968,1709.8783624409998,None,1709.8783624409998,None,1709.8783624409998,None,1711.8288706209996,None,1711.8288706209996,None,1711.8288706209996,None,1711.8288706209996,None,,,,,,,,,,,,,,,,,,,,,,,,,,,,,,,,,,,,,,,,,,,,001,59,2020_Feb_04_1042,spring_faces,3.1.5,60.11358461809857,
condition files/Stage1_2.xlsx,,B1,T1,c,"['c', 'm']","['Clue', 'Monopoly']","[-0.15, 0.5]","[0.15, 0.5]",1,1,,,,,,,,,0,7,7,7,0,7,7,0,,,,,,,,,,,,,,,,,,,,,,,,,,,,,,,,,,,,,,,,,,,,,,,,,,,,,,,1713.77797122,None,1713.77797122,None,1713.77797122,None,c,1,1.416622286999882,1715.3112343960001,None,1715.3112343960001,None,1715.3112343960001,None,1716.7786703709999,None,1716.7786703709999,None,1716.7786703709999,None,1716.7786703709999,None,,,,,,,,,,,,,,,,,,,,,,,,,,,,,,,,,,,,,,,,,,,,001,59,2020_Feb_04_1042,spring_faces,3.1.5,60.11358461809857,
condition files/Stage1_1.xlsx,,T4,B3,m,"['c', 'm']","['Clue', 'Monopoly']","[-0.15, 0.5]","[0.15, 0.5]",1,1,,,,,,,,,0,8,8,8,0,0,0,6,,,,,,,,,,,,,,,,,,,,,,,,,,,,,,,,,,,,,,,,,,,,,,,,,,,,,,,1718.7612967969999,None,1718.7612967969999,None,1718.7612967969999,None,m,1,0.9919163570002638,1720.3118711299994,None,1720.3118711299994,None,1720.3118711299994,None,1721.3618236399998,None,1721.3618236399998,None,1721.3618236399998,None,1721.3618236399998,None,,,,,,,,,,,,,,,,,,,,,,,,,,,,,,,,,,,,,,,,,,,,001,59,2020_Feb_04_1042,spring_faces,3.1.5,60.11358461809857,
condition files/Stage1_1.xlsx,,B1,T2,c,"['c', 'm']","['Clue', 'Monopoly']","[-0.15, 0.5]","[0.15, 0.5]",1,1,,,,,,,,,0,8,8,8,0,1,1,1,,,,,,,,,,,,,,,,,,,,,,,,,,,,,,,,,,,,,,,,,,,,,,,,,,,,,,,1723.3283836740002,None,1723.3283836740002,None,1723.3283836740002,None,c,1,1.242025188000298,1724.8779023329998,None,1724.8779023329998,None,1724.8779023329998,None,1726.1796716990002,None,1726.1796716990002,None,1726.1796716990002,None,1726.1796716990002,None,,,,,,,,,,,,,,,,,,,,,,,,,,,,,,,,,,,,,,,,,,,,001,59,2020_Feb_04_1042,spring_faces,3.1.5,60.11358461809857,
condition files/Stage1_1.xlsx,,T3,B4,c,"['c', 'm']","['Clue', 'Monopoly']","[-0.15, 0.5]","[0.15, 0.5]",1,1,,,,,,,,,0,8,8,8,0,2,2,5,,,,,,,,,,,,,,,,,,,,,,,,,,,,,,,,,,,,,,,,,,,,,,,,,,,,,,,1728.145035947,None,1728.145035947,None,1728.145035947,None,c,1,1.7367904209995686,1729.695081891,None,1729.695081891,None,1729.695081891,None,1731.494677306,None,1731.494677306,None,1731.494677306,None,1731.494677306,None,,,,,,,,,,,,,,,,,,,,,,,,,,,,,,,,,,,,,,,,,,,,001,59,2020_Feb_04_1042,spring_faces,3.1.5,60.11358461809857,
condition files/Stage1_1.xlsx,,B3,T3,c,"['c', 'm']","['Clue', 'Monopoly']","[-0.15, 0.5]","[0.15, 0.5]",1,1,,,,,,,,,0,8,8,8,0,3,3,4,,,,,,,,,,,,,,,,,,,,,,,,,,,,,,,,,,,,,,,,,,,,,,,,,,,,,,,1733.4611789359997,None,1733.4611789359997,None,1733.4611789359997,None,c,1,0.7089863629998945,1734.9949590179995,None,1734.9949590179995,None,1734.9949590179995,None,1735.7619675790002,None,1735.7619675790002,None,1735.7619675790002,None,1735.7619675790002,None,,,,,,,,,,,,,,,,,,,,,,,,,,,,,,,,,,,,,,,,,,,,001,59,2020_Feb_04_1042,spring_faces,3.1.5,60.11358461809857,
condition files/Stage1_1.xlsx,,B4,T4,m,"['c', 'm']","['Clue', 'Monopoly']","[-0.15, 0.5]","[0.15, 0.5]",1,1,,,,,,,,,0,8,8,8,0,4,4,7,,,,,,,,,,,,,,,,,,,,,,,,,,,,,,,,,,,,,,,,,,,,,,,,,,,,,,,1737.7283908339996,None,1737.7283908339996,None,1737.7283908339996,None,m,1,2.0741813300001013,1739.2617349189995,None,1739.2617349189995,None,1739.2617349189995,None,1741.412052263,None,1741.412052263,None,1741.412052263,None,1741.412052263,None,,,,,,,,,,,,,,,,,,,,,,,,,,,,,,,,,,,,,,,,,,,,001,59,2020_Feb_04_1042,spring_faces,3.1.5,60.11358461809857,
condition files/Stage1_1.xlsx,,B2,T1,m,"['c', 'm']","['Clue', 'Monopoly']","[-0.15, 0.5]","[0.15, 0.5]",1,1,,,,,,,,,0,8,8,8,0,5,5,2,,,,,,,,,,,,,,,,,,,,,,,,,,,,,,,,,,,,,,,,,,,,,,,,,,,,,,,1743.3618196589996,None,1743.3618196589996,None,1743.3618196589996,None,m,1,2.1678437000000486,1744.9119647369998,None,1744.9119647369998,None,1744.9119647369998,None,1747.145440626,None,1747.145440626,None,1747.145440626,None,1747.145440626,None,,,,,,,,,,,,,,,,,,,,,,,,,,,,,,,,,,,,,,,,,,,,001,59,2020_Feb_04_1042,spring_faces,3.1.5,60.11358461809857,
condition files/Stage1_1.xlsx,,T1,B1,c,"['c', 'm']","['Clue', 'Monopoly']","[-0.15, 0.5]","[0.15, 0.5]",1,1,,,,,,,,,0,8,8,8,0,6,6,0,,,,,,,,,,,,,,,,,,,,,,,,,,,,,,,,,,,,,,,,,,,,,,,,,,,,,,,1749.1118246039996,None,1749.1118246039996,None,1749.1118246039996,None,c,1,1.522805636999692,1750.6451220070003,None,1750.6451220070003,None,1750.6451220070003,None,1752.2282136949998,None,1752.2282136949998,None,1752.2282136949998,None,1752.2282136949998,None,,,,,,,,,,,,,,,,,,,,,,,,,,,,,,,,,,,,,,,,,,,,001,59,2020_Feb_04_1042,spring_faces,3.1.5,60.11358461809857,
condition files/Stage1_1.xlsx,,T2,B2,m,"['c', 'm']","['Clue', 'Monopoly']","[-0.15, 0.5]","[0.15, 0.5]",1,1,,,,,,,,,0,8,8,8,0,7,7,3,,,,,,,,,,,,,,,,,,,,,,,,,,,,,,,,,,,,,,,,,,,,,,,,,,,,,,,1754.1950672249995,None,1754.1950672249995,None,1754.1950672249995,None,m,1,1.1598820470007922,1755.7280604259995,None,1755.7280604259995,None,1755.7280604259995,None,1756.9482178010003,None,1756.9482178010003,None,1756.9482178010003,None,1756.9482178010003,None,,,,,,,,,,,,,,,,,,,,,,,,,,,,,,,,,,,,,,,,,,,,001,59,2020_Feb_04_1042,spring_faces,3.1.5,60.11358461809857,
condition files/Stage1_2.xlsx,,B2,T2,m,"['c', 'm']","['Clue', 'Monopoly']","[-0.15, 0.5]","[0.15, 0.5]",1,1,,,,,,,,,0,9,9,9,0,0,0,3,,,,,,,,,,,,,,,,,,,,,,,,,,,,,,,,,,,,,,,,,,,,,,,,,,,,,,,1758.928710528,None,1758.928710528,None,1758.928710528,None,m,1,1.3365719510002236,1760.4633234080002,None,1760.4633234080002,None,1760.4633234080002,None,1761.861555374,None,1761.861555374,None,1761.861555374,None,1761.861555374,None,,,,,,,,,,,,,,,,,,,,,,,,,,,,,,,,,,,,,,,,,,,,001,59,2020_Feb_04_1042,spring_faces,3.1.5,60.11358461809857,
condition files/Stage1_2.xlsx,,T4,B4,m,"['c', 'm']","['Clue', 'Monopoly']","[-0.15, 0.5]","[0.15, 0.5]",1,1,,,,,,,,,0,9,9,9,0,1,1,7,,,,,,,,,,,,,,,,,,,,,,,,,,,,,,,,,,,,,,,,,,,,,,,,,,,,,,,1763.8284120279995,None,1763.8284120279995,None,1763.8284120279995,None,m,1,1.3493639419993997,1765.3784938600002,None,1765.3784938600002,None,1765.3784938600002,None,1766.7790563119997,None,1766.7790563119997,None,1766.7790563119997,None,1766.7790563119997,None,,,,,,,,,,,,,,,,,,,,,,,,,,,,,,,,,,,,,,,,,,,,001,59,2020_Feb_04_1042,spring_faces,3.1.5,60.11358461809857,
condition files/Stage1_2.xlsx,,T1,B2,m,"['c', 'm']","['Clue', 'Monopoly']","[-0.15, 0.5]","[0.15, 0.5]",1,1,,,,,,,,,0,9,9,9,0,2,2,2,,,,,,,,,,,,,,,,,,,,,,,,,,,,,,,,,,,,,,,,,,,,,,,,,,,,,,,1768.745206902,None,1768.745206902,None,1768.745206902,None,m,1,0.9296988609994514,1770.278127224,None,1770.278127224,None,1770.278127224,None,1771.261977352,None,1771.261977352,None,1771.261977352,None,1771.261977352,None,,,,,,,,,,,,,,,,,,,,,,,,,,,,,,,,,,,,,,,,,,,,001,59,2020_Feb_04_1042,spring_faces,3.1.5,60.11358461809857,
condition files/Stage1_2.xlsx,,B3,T4,m,"['c', 'm']","['Clue', 'Monopoly']","[-0.15, 0.5]","[0.15, 0.5]",1,1,,,,,,,,,0,9,9,9,0,3,3,6,,,,,,,,,,,,,,,,,,,,,,,,,,,,,,,,,,,,,,,,,,,,,,,,,,,,,,,1773.228382792,None,1773.228382792,None,1773.228382792,None,m,1,0.7655318840006657,1774.7623287710003,None,1774.7623287710003,None,1774.7623287710003,None,1775.5788104559997,None,1775.5788104559997,None,1775.5788104559997,None,1775.5788104559997,None,,,,,,,,,,,,,,,,,,,,,,,,,,,,,,,,,,,,,,,,,,,,001,59,2020_Feb_04_1042,spring_faces,3.1.5,60.11358461809857,
condition files/Stage1_2.xlsx,,B4,T3,c,"['c', 'm']","['Clue', 'Monopoly']","[-0.15, 0.5]","[0.15, 0.5]",1,1,,,,,,,,,0,9,9,9,0,4,4,5,,,,,,,,,,,,,,,,,,,,,,,,,,,,,,,,,,,,,,,,,,,,,,,,,,,,,,,1777.545102868,None,1777.545102868,None,1777.545102868,None,c,1,0.4970585930004745,1779.094928812,None,1779.094928812,None,1779.094928812,None,1779.646953945,None,1779.646953945,None,1779.646953945,None,1779.646953945,None,,,,,,,,,,,,,,,,,,,,,,,,,,,,,,,,,,,,,,,,,,,,001,59,2020_Feb_04_1042,spring_faces,3.1.5,60.11358461809857,
condition files/Stage1_2.xlsx,,B1,T1,c,"['c', 'm']","['Clue', 'Monopoly']","[-0.15, 0.5]","[0.15, 0.5]",1,1,,,,,,,,,0,9,9,9,0,5,5,0,,,,,,,,,,,,,,,,,,,,,,,,,,,,,,,,,,,,,,,,,,,,,,,,,,,,,,,1781.6117682719996,None,1781.6117682719996,None,1781.6117682719996,None,c,1,0.9270225749996825,1783.144903208,None,1783.144903208,None,1783.144903208,None,1784.1285286849998,None,1784.1285286849998,None,1784.1285286849998,None,1784.1285286849998,None,,,,,,,,,,,,,,,,,,,,,,,,,,,,,,,,,,,,,,,,,,,,001,59,2020_Feb_04_1042,spring_faces,3.1.5,60.11358461809857,
condition files/Stage1_2.xlsx,,T2,B1,c,"['c', 'm']","['Clue', 'Monopoly']","[-0.15, 0.5]","[0.15, 0.5]",1,1,,,,,,,,,0,9,9,9,0,6,6,1,,,,,,,,,,,,,,,,,,,,,,,,,,,,,,,,,,,,,,,,,,,,,,,,,,,,,,,1786.0952965489996,None,1786.0952965489996,None,1786.0952965489996,None,c,1,0.8731410079999478,1787.630803594,None,1787.630803594,None,1787.630803594,None,1788.5619570190001,None,1788.5619570190001,None,1788.5619570190001,None,1788.5619570190001,None,,,,,,,,,,,,,,,,,,,,,,,,,,,,,,,,,,,,,,,,,,,,001,59,2020_Feb_04_1042,spring_faces,3.1.5,60.11358461809857,
condition files/Stage1_2.xlsx,,T3,B3,c,"['c', 'm']","['Clue', 'Monopoly']","[-0.15, 0.5]","[0.15, 0.5]",1,1,,,,,,,,,0,9,9,9,0,7,7,4,,,,,,,,,,,,,,,,,,,,,,,,,,,,,,,,,,,,,,,,,,,,,,,,,,,,,,,1790.5285972760003,None,1790.5285972760003,None,1790.5285972760003,None,c,1,3.6584429860004093,1792.061495455,None,1792.061495455,None,1792.061495455,None,1795.7786032229997,None,1795.7786032229997,None,1795.7786032229997,None,1795.7786032229997,None,,,,,,,,,,,,,,,,,,,,,,,,,,,,,,,,,,,,,,,,,,,,001,59,2020_Feb_04_1042,spring_faces,3.1.5,60.11358461809857,
condition files/Stage1_1.xlsx,,B3,T3,c,"['c', 'm']","['Clue', 'Monopoly']","[-0.15, 0.5]","[0.15, 0.5]",1,1,,,,,,,,,0,10,10,10,0,0,0,4,,,,,,,,,,,,,,,,,,,,,,,,,,,,,,,,,,,,,,,,,,,,,,,,,,,,,,,1797.7617617899996,None,1797.7617617899996,None,1797.7617617899996,None,c,1,1.017241161000129,1799.2945671019997,None,1799.2945671019997,None,1799.2945671019997,None,1800.3616842989995,None,1800.3616842989995,None,1800.3616842989995,None,1800.3616842989995,None,,,,,,,,,,,,,,,,,,,,,,,,,,,,,,,,,,,,,,,,,,,,001,59,2020_Feb_04_1042,spring_faces,3.1.5,60.11358461809857,
condition files/Stage1_1.xlsx,,T1,B1,c,"['c', 'm']","['Clue', 'Monopoly']","[-0.15, 0.5]","[0.15, 0.5]",1,1,,,,,,,,,0,10,10,10,0,1,1,0,,,,,,,,,,,,,,,,,,,,,,,,,,,,,,,,,,,,,,,,,,,,,,,,,,,,,,,1802.3283112439995,None,1802.3283112439995,None,1802.3283112439995,None,c,1,0.9759653040000558,1803.8638670760001,None,1803.8638670760001,None,1803.8638670760001,None,1804.8951599089996,None,1804.8951599089996,None,1804.8951599089996,None,1804.8951599089996,None,,,,,,,,,,,,,,,,,,,,,,,,,,,,,,,,,,,,,,,,,,,,001,59,2020_Feb_04_1042,spring_faces,3.1.5,60.11358461809857,
condition files/Stage1_1.xlsx,,T3,B4,c,"['c', 'm']","['Clue', 'Monopoly']","[-0.15, 0.5]","[0.15, 0.5]",1,1,,,,,,,,,0,10,10,10,0,2,2,5,,,,,,,,,,,,,,,,,,,,,,,,,,,,,,,,,,,,,,,,,,,,,,,,,,,,,,,1806.861270372,None,1806.861270372,None,1806.861270372,None,c,1,1.051007731000027,1808.3968655339995,None,1808.3968655339995,None,1808.3968655339995,None,1809.511942872,None,1809.511942872,None,1809.511942872,None,1809.511942872,None,,,,,,,,,,,,,,,,,,,,,,,,,,,,,,,,,,,,,,,,,,,,001,59,2020_Feb_04_1042,spring_faces,3.1.5,60.11358461809857,
condition files/Stage1_1.xlsx,,T2,B2,m,"['c', 'm']","['Clue', 'Monopoly']","[-0.15, 0.5]","[0.15, 0.5]",1,1,,,,,,,,,0,10,10,10,0,3,3,3,,,,,,,,,,,,,,,,,,,,,,,,,,,,,,,,,,,,,,,,,,,,,,,,,,,,,,,1811.4784427650002,None,1811.4784427650002,None,1811.4784427650002,None,m,1,1.2362850130002698,1813.0115887319998,None,1813.0115887319998,None,1813.0115887319998,None,1814.328470505,None,1814.328470505,None,1814.328470505,None,1814.328470505,None,,,,,,,,,,,,,,,,,,,,,,,,,,,,,,,,,,,,,,,,,,,,001,59,2020_Feb_04_1042,spring_faces,3.1.5,60.11358461809857,
condition files/Stage1_1.xlsx,,B4,T4,m,"['c', 'm']","['Clue', 'Monopoly']","[-0.15, 0.5]","[0.15, 0.5]",1,1,,,,,,,,,0,10,10,10,0,4,4,7,,,,,,,,,,,,,,,,,,,,,,,,,,,,,,,,,,,,,,,,,,,,,,,,,,,,,,,1816.278537608,None,1816.278537608,None,1816.278537608,None,m,1,1.1402529239994692,1817.8116858510002,None,1817.8116858510002,None,1817.8116858510002,None,1819.0116589,None,1819.0116589,None,1819.0116589,None,1819.0116589,None,,,,,,,,,,,,,,,,,,,,,,,,,,,,,,,,,,,,,,,,,,,,001,59,2020_Feb_04_1042,spring_faces,3.1.5,60.11358461809857,
condition files/Stage1_1.xlsx,,B1,T2,c,"['c', 'm']","['Clue', 'Monopoly']","[-0.15, 0.5]","[0.15, 0.5]",1,1,,,,,,,,,0,10,10,10,0,5,5,1,,,,,,,,,,,,,,,,,,,,,,,,,,,,,,,,,,,,,,,,,,,,,,,,,,,,,,,1820.9785072859995,None,1820.9785072859995,None,1820.9785072859995,None,c,1,1.7201727339997888,1822.5117100930001,None,1822.5117100930001,None,1822.5117100930001,None,1824.2968410699996,None,1824.2968410699996,None,1824.2968410699996,None,1824.2968410699996,None,,,,,,,,,,,,,,,,,,,,,,,,,,,,,,,,,,,,,,,,,,,,001,59,2020_Feb_04_1042,spring_faces,3.1.5,60.11358461809857,
condition files/Stage1_1.xlsx,,T4,B3,m,"['c', 'm']","['Clue', 'Monopoly']","[-0.15, 0.5]","[0.15, 0.5]",1,1,,,,,,,,,0,10,10,10,0,6,6,6,,,,,,,,,,,,,,,,,,,,,,,,,,,,,,,,,,,,,,,,,,,,,,,,,,,,,,,1826.2619114649997,None,1826.2619114649997,None,1826.2619114649997,None,m,1,0.8669635050000579,1827.7969101170002,None,1827.7969101170002,None,1827.7969101170002,None,1828.7303478490003,None,1828.7303478490003,None,1828.7303478490003,None,1828.7303478490003,None,,,,,,,,,,,,,,,,,,,,,,,,,,,,,,,,,,,,,,,,,,,,001,59,2020_Feb_04_1042,spring_faces,3.1.5,60.11358461809857,
condition files/Stage1_1.xlsx,,B2,T1,m,"['c', 'm']","['Clue', 'Monopoly']","[-0.15, 0.5]","[0.15, 0.5]",1,1,,,,,,,,,0,10,10,10,0,7,7,2,,,,,,,,,,,,,,,,,,,,,,,,,,,,,,,,,,,,,,,,,,,,,,,,,,,,,,,1830.6950489210003,None,1830.6950489210003,None,1830.6950489210003,None,m,1,0.7849982560001081,1832.2308761859995,None,1832.2308761859995,None,1832.2308761859995,None,1833.078649897,None,1833.078649897,None,1833.078649897,None,1833.078649897,None,,,,,,,,,,,,,,,,,,,,,,,,,,,,,,,,,,,,,,,,,,,,001,59,2020_Feb_04_1042,spring_faces,3.1.5,60.11358461809857,
condition files/Stage1_2.xlsx,,T4,B4,m,"['c', 'm']","['Clue', 'Monopoly']","[-0.15, 0.5]","[0.15, 0.5]",1,1,,,,,,,,,0,11,11,11,0,0,0,7,,,,,,,,,,,,,,,,,,,,,,,,,,,,,,,,,,,,,,,,,,,,,,,,,,,,,,,1835.0618585920001,None,1835.0618585920001,None,1835.0618585920001,None,m,1,1.4280788920004852,1836.6117422319994,None,1836.6117422319994,None,1836.6117422319994,None,1838.0955140779997,None,1838.0955140779997,None,1838.0955140779997,None,1838.0955140779997,None,,,,,,,,,,,,,,,,,,,,,,,,,,,,,,,,,,,,,,,,,,,,001,59,2020_Feb_04_1042,spring_faces,3.1.5,60.11358461809857,
condition files/Stage1_2.xlsx,,B4,T3,c,"['c', 'm']","['Clue', 'Monopoly']","[-0.15, 0.5]","[0.15, 0.5]",1,1,,,,,,,,,0,11,11,11,0,1,1,5,,,,,,,,,,,,,,,,,,,,,,,,,,,,,,,,,,,,,,,,,,,,,,,,,,,,,,,1840.061003793,None,1840.061003793,None,1840.061003793,None,c,1,0.6671913059999497,1841.5966073459995,None,1841.5966073459995,None,1841.5966073459995,None,1842.3297174629997,None,1842.3297174629997,None,1842.3297174629997,None,1842.3297174629997,None,,,,,,,,,,,,,,,,,,,,,,,,,,,,,,,,,,,,,,,,,,,,001,59,2020_Feb_04_1042,spring_faces,3.1.5,60.11358461809857,
condition files/Stage1_2.xlsx,,B3,T4,m,"['c', 'm']","['Clue', 'Monopoly']","[-0.15, 0.5]","[0.15, 0.5]",1,1,,,,,,,,,0,11,11,11,0,2,2,6,,,,,,,,,,,,,,,,,,,,,,,,,,,,,,,,,,,,,,,,,,,,,,,,,,,,,,,1844.2946352119998,None,1844.2946352119998,None,1844.2946352119998,None,m,1,1.3791315099997519,1845.8287411399997,None,1845.8287411399997,None,1845.8287411399997,None,1847.27801103,None,1847.27801103,None,1847.27801103,None,1847.27801103,None,,,,,,,,,,,,,,,,,,,,,,,,,,,,,,,,,,,,,,,,,,,,001,59,2020_Feb_04_1042,spring_faces,3.1.5,60.11358461809857,
condition files/Stage1_2.xlsx,,B1,T1,c,"['c', 'm']","['Clue', 'Monopoly']","[-0.15, 0.5]","[0.15, 0.5]",1,1,,,,,,,,,0,11,11,11,0,3,3,0,,,,,,,,,,,,,,,,,,,,,,,,,,,,,,,,,,,,,,,,,,,,,,,,,,,,,,,1849.2280418689998,None,1849.2280418689998,None,1849.2280418689998,None,c,1,0.9574490969998806,1850.7624789169995,None,1850.7624789169995,None,1850.7624789169995,None,1851.79533378,None,1851.79533378,None,1851.79533378,None,1851.79533378,None,,,,,,,,,,,,,,,,,,,,,,,,,,,,,,,,,,,,,,,,,,,,001,59,2020_Feb_04_1042,spring_faces,3.1.5,60.11358461809857,
condition files/Stage1_2.xlsx,,B2,T2,m,"['c', 'm']","['Clue', 'Monopoly']","[-0.15, 0.5]","[0.15, 0.5]",1,1,,,,,,,,,0,11,11,11,0,4,4,3,,,,,,,,,,,,,,,,,,,,,,,,,,,,,,,,,,,,,,,,,,,,,,,,,,,,,,,1853.745136726,None,1853.745136726,None,1853.745136726,None,m,1,1.976023635999809,1855.27991192,None,1855.27991192,None,1855.27991192,None,1857.313651681,None,1857.313651681,None,1857.313651681,None,1857.313651681,None,,,,,,,,,,,,,,,,,,,,,,,,,,,,,,,,,,,,,,,,,,,,001,59,2020_Feb_04_1042,spring_faces,3.1.5,60.11358461809857,
condition files/Stage1_2.xlsx,,T1,B2,m,"['c', 'm']","['Clue', 'Monopoly']","[-0.15, 0.5]","[0.15, 0.5]",1,1,,,,,,,,,0,11,11,11,0,5,5,2,,,,,,,,,,,,,,,,,,,,,,,,,,,,,,,,,,,,,,,,,,,,,,,,,,,,,,,1859.2779043949995,None,1859.2779043949995,None,1859.2779043949995,None,m,1,1.083555719999822,1860.8122906419994,None,1860.8122906419994,None,1860.8122906419994,None,1861.9617990750003,None,1861.9617990750003,None,1861.9617990750003,None,1861.9617990750003,None,,,,,,,,,,,,,,,,,,,,,,,,,,,,,,,,,,,,,,,,,,,,001,59,2020_Feb_04_1042,spring_faces,3.1.5,60.11358461809857,
condition files/Stage1_2.xlsx,,T3,B3,c,"['c', 'm']","['Clue', 'Monopoly']","[-0.15, 0.5]","[0.15, 0.5]",1,1,,,,,,,,,0,11,11,11,0,6,6,4,,,,,,,,,,,,,,,,,,,,,,,,,,,,,,,,,,,,,,,,,,,,,,,,,,,,,,,1863.9285071570002,None,1863.9285071570002,None,1863.9285071570002,None,c,1,0.8332492570007162,1865.478609969,None,1865.478609969,None,1865.478609969,None,1866.3788899250003,None,1866.3788899250003,None,1866.3788899250003,None,1866.3788899250003,None,,,,,,,,,,,,,,,,,,,,,,,,,,,,,,,,,,,,,,,,,,,,001,59,2020_Feb_04_1042,spring_faces,3.1.5,60.11358461809857,
condition files/Stage1_2.xlsx,,T2,B1,c,"['c', 'm']","['Clue', 'Monopoly']","[-0.15, 0.5]","[0.15, 0.5]",1,1,,,,,,,,,0,11,11,11,0,7,7,1,,,,,,,,,,,,,,,,,,,,,,,,,,,,,,,,,,,,,,,,,,,,,,,,,,,,,,,1868.3282391430002,None,1868.3282391430002,None,1868.3282391430002,None,c,1,1.3131200980005815,1869.878656938,None,1869.878656938,None,1869.878656938,None,1871.244956251,None,1871.244956251,None,1871.244956251,None,1871.244956251,None,,,,,,,,,,,,,,,,,,,,,,,,,,,,,,,,,,,,,,,,,,,,001,59,2020_Feb_04_1042,spring_faces,3.1.5,60.11358461809857,
,,,,,,,,,,,,,,,,,,,,,,,,,,,,,,,,,,,,,,,,,,,,,,,,,,,,,,,,,,,,,,,,,,,,,,,,,,,,,,,,,,,,,,,,,,,,,,,,,,,,,,,,,,,,,,,,1873.2284306390002,None,space,7.747453754000162,1878.2284186420002,None,,,,,,,,,,,,,,,,,,,,,,,,,,,,,,001,59,2020_Feb_04_1042,spring_faces,3.1.5,60.11358461809857,
condition files/Stage2_1.xlsx,,T5,B5,s,"['s', 'r']","['Stratego', 'Risk']","[-0.15, 0.5]","[0.15, 0.5]",1,1,,,,,,,,,,,,,,,,,0,0,0,0,0,0,0,0,,,,,,,,,,,,,,,,,,,,,,,,,,,,,,,,,,,,,,,,,,,,,,,1886.0287455050002,None,1886.0287455050002,None,1886.0287455050002,None,s,1,1.3428403329999128,1887.5611146669999,None,1887.5611146669999,None,1887.5611146669999,None,1888.9618396509995,None,1888.9618396509995,None,1888.9618396509995,None,1888.9618396509995,None,,,,,,,,,,,,,,,1878.2284186420002,None,,,,,,,,,,,,,,,,,,,,,,,,,,,,001,59,2020_Feb_04_1042,spring_faces,3.1.5,60.11358461809857,
condition files/Stage2_1.xlsx,,T3,B3,s,"['s', 'r']","['Stratego', 'Risk']","[-0.15, 0.5]","[0.15, 0.5]",1,1,,,,,,,,,,,,,,,,,0,0,0,0,0,1,1,4,,,,,,,,,,,,,,,,,,,,,,,,,,,,,,,,,,,,,,,,,,,,,,,1890.9282650679997,None,1890.9282650679997,None,1890.9282650679997,None,r,0,2.0902442659998997,1892.4616911510002,None,1892.4616911510002,None,1892.4616911510002,None,1894.6112906600001,None,1894.6112906600001,None,1894.6112906600001,None,1894.6112906600001,None,,,,,,,,,,,,,,,,,,,,,,,,,,,,,,,,,,,,,,,,,,,,001,59,2020_Feb_04_1042,spring_faces,3.1.5,60.11358461809857,
condition files/Stage2_1.xlsx,,B4,T4,r,"['s', 'r']","['Stratego', 'Risk']","[-0.15, 0.5]","[0.15, 0.5]",1,1,,,,,,,,,,,,,,,,,0,0,0,0,0,2,2,5,,,,,,,,,,,,,,,,,,,,,,,,,,,,,,,,,,,,,,,,,,,,,,,1896.578525758,None,1896.578525758,None,1896.578525758,None,r,1,1.0797782919999008,1898.1280670639999,None,1898.1280670639999,None,1898.1280670639999,None,1899.2779230699998,None,1899.2779230699998,None,1899.2779230699998,None,1899.2779230699998,None,,,,,,,,,,,,,,,,,,,,,,,,,,,,,,,,,,,,,,,,,,,,001,59,2020_Feb_04_1042,spring_faces,3.1.5,60.11358461809857,
condition files/Stage2_1.xlsx,,B6,T6,r,"['s', 'r']","['Stratego', 'Risk']","[-0.15, 0.5]","[0.15, 0.5]",1,1,,,,,,,,,,,,,,,,,0,0,0,0,0,3,3,1,,,,,,,,,,,,,,,,,,,,,,,,,,,,,,,,,,,,,,,,,,,,,,,1901.2284570709999,None,1901.2284570709999,None,1901.2284570709999,None,r,1,2.39664407500004,1902.763231115,None,1902.763231115,None,1902.763231115,None,1905.210988928,None,1905.210988928,None,1905.210988928,None,1905.210988928,None,,,,,,,,,,,,,,,,,,,,,,,,,,,,,,,,,,,,,,,,,,,,001,59,2020_Feb_04_1042,spring_faces,3.1.5,60.11358461809857,
condition files/Stage2_1.xlsx,,T1,B1,s,"['s', 'r']","['Stratego', 'Risk']","[-0.15, 0.5]","[0.15, 0.5]",1,1,,,,,,,,,,,,,,,,,0,0,0,0,0,4,4,2,,,,,,,,,,,,,,,,,,,,,,,,,,,,,,,,,,,,,,,,,,,,,,,1907.1784249920001,None,1907.1784249920001,None,1907.1784249920001,None,r,0,1.4552271789998485,1908.7286444149995,None,1908.7286444149995,None,1908.7286444149995,None,1910.2622869589995,None,1910.2622869589995,None,1910.2622869589995,None,1910.2622869589995,None,,,,,,,,,,,,,,,,,,,,,,,,,,,,,,,,,,,,,,,,,,,,001,59,2020_Feb_04_1042,spring_faces,3.1.5,60.11358461809857,
condition files/Stage2_1.xlsx,,B2,T2,r,"['s', 'r']","['Stratego', 'Risk']","[-0.15, 0.5]","[0.15, 0.5]",1,1,,,,,,,,,,,,,,,,,0,0,0,0,0,5,5,3,,,,,,,,,,,,,,,,,,,,,,,,,,,,,,,,,,,,,,,,,,,,,,,1912.2115689510001,None,1912.2115689510001,None,1912.2115689510001,None,r,1,1.317629326000315,1913.7621883390002,None,1913.7621883390002,None,1913.7621883390002,None,1915.1618386170003,None,1915.1618386170003,None,1915.1618386170003,None,1915.1618386170003,None,,,,,,,,,,,,,,,,,,,,,,,,,,,,,,,,,,,,,,,,,,,,001,59,2020_Feb_04_1042,spring_faces,3.1.5,60.11358461809857,
condition files/Stage2_2.xlsx,,B3,T3,s,"['s', 'r']","['Stratego', 'Risk']","[-0.15, 0.5]","[0.15, 0.5]",1,1,,,,,,,,,,,,,,,,,0,1,1,1,0,0,0,4,,,,,,,,,,,,,,,,,,,,,,,,,,,,,,,,,,,,,,,,,,,,,,,1917.1286515820002,None,1917.1286515820002,None,1917.1286515820002,None,s,1,1.169873290000396,1918.677984088,None,1918.677984088,None,1918.677984088,None,1919.9119970659995,None,1919.9119970659995,None,1919.9119970659995,None,1919.9119970659995,None,,,,,,,,,,,,,,,,,,,,,,,,,,,,,,,,,,,,,,,,,,,,001,59,2020_Feb_04_1042,spring_faces,3.1.5,60.11358461809857,
condition files/Stage2_2.xlsx,,T4,B4,r,"['s', 'r']","['Stratego', 'Risk']","[-0.15, 0.5]","[0.15, 0.5]",1,1,,,,,,,,,,,,,,,,,0,1,1,1,0,1,1,5,,,,,,,,,,,,,,,,,,,,,,,,,,,,,,,,,,,,,,,,,,,,,,,1921.878350125,None,1921.878350125,None,1921.878350125,None,r,1,1.0280583459998525,1923.4117830989999,None,1923.4117830989999,None,1923.4117830989999,None,1924.5113381989995,None,1924.5113381989995,None,1924.5113381989995,None,1924.5113381989995,None,,,,,,,,,,,,,,,,,,,,,,,,,,,,,,,,,,,,,,,,,,,,001,59,2020_Feb_04_1042,spring_faces,3.1.5,60.11358461809857,
condition files/Stage2_2.xlsx,,T6,B6,r,"['s', 'r']","['Stratego', 'Risk']","[-0.15, 0.5]","[0.15, 0.5]",1,1,,,,,,,,,,,,,,,,,0,1,1,1,0,2,2,1,,,,,,,,,,,,,,,,,,,,,,,,,,,,,,,,,,,,,,,,,,,,,,,1926.461474453,None,1926.461474453,None,1926.461474453,None,r,1,1.9320398039999418,1928.0118225409997,None,1928.0118225409997,None,1928.0118225409997,None,1929.9956074869997,None,1929.9956074869997,None,1929.9956074869997,None,1929.9956074869997,None,,,,,,,,,,,,,,,,,,,,,,,,,,,,,,,,,,,,,,,,,,,,001,59,2020_Feb_04_1042,spring_faces,3.1.5,60.11358461809857,
condition files/Stage2_2.xlsx,,T2,B2,r,"['s', 'r']","['Stratego', 'Risk']","[-0.15, 0.5]","[0.15, 0.5]",1,1,,,,,,,,,,,,,,,,,0,1,1,1,0,3,3,3,,,,,,,,,,,,,,,,,,,,,,,,,,,,,,,,,,,,,,,,,,,,,,,1931.96169921,None,1931.96169921,None,1931.96169921,None,r,1,1.2318157250001605,1933.5120402040002,None,1933.5120402040002,None,1933.5120402040002,None,1934.795274874,None,1934.795274874,None,1934.795274874,None,1934.795274874,None,,,,,,,,,,,,,,,,,,,,,,,,,,,,,,,,,,,,,,,,,,,,001,59,2020_Feb_04_1042,spring_faces,3.1.5,60.11358461809857,
condition files/Stage2_2.xlsx,,B5,T5,s,"['s', 'r']","['Stratego', 'Risk']","[-0.15, 0.5]","[0.15, 0.5]",1,1,,,,,,,,,,,,,,,,,0,1,1,1,0,4,4,0,,,,,,,,,,,,,,,,,,,,,,,,,,,,,,,,,,,,,,,,,,,,,,,1936.7617607169996,None,1936.7617607169996,None,1936.7617607169996,None,s,1,1.0248961719998988,1938.2950580830002,None,1938.2950580830002,None,1938.2950580830002,None,1939.380104201,None,1939.380104201,None,1939.380104201,None,1939.380104201,None,,,,,,,,,,,,,,,,,,,,,,,,,,,,,,,,,,,,,,,,,,,,001,59,2020_Feb_04_1042,spring_faces,3.1.5,60.11358461809857,
condition files/Stage2_2.xlsx,,B1,T1,s,"['s', 'r']","['Stratego', 'Risk']","[-0.15, 0.5]","[0.15, 0.5]",1,1,,,,,,,,,,,,,,,,,0,1,1,1,0,5,5,2,,,,,,,,,,,,,,,,,,,,,,,,,,,,,,,,,,,,,,,,,,,,,,,1941.344907785,None,1941.344907785,None,1941.344907785,None,s,1,1.1606979560001491,1942.8791633949995,None,1942.8791633949995,None,1942.8791633949995,None,1944.0954982419998,None,1944.0954982419998,None,1944.0954982419998,None,1944.0954982419998,None,,,,,,,,,,,,,,,,,,,,,,,,,,,,,,,,,,,,,,,,,,,,001,59,2020_Feb_04_1042,spring_faces,3.1.5,60.11358461809857,
condition files/Stage2_1.xlsx,,B4,T4,r,"['s', 'r']","['Stratego', 'Risk']","[-0.15, 0.5]","[0.15, 0.5]",1,1,,,,,,,,,,,,,,,,,0,2,2,2,0,0,0,5,,,,,,,,,,,,,,,,,,,,,,,,,,,,,,,,,,,,,,,,,,,,,,,1946.078494243,None,1946.078494243,None,1946.078494243,None,r,1,0.6179062779992819,1947.6139893929994,None,1947.6139893929994,None,1947.6139893929994,None,1948.2974941800003,None,1948.2974941800003,None,1948.2974941800003,None,1948.2974941800003,None,,,,,,,,,,,,,,,,,,,,,,,,,,,,,,,,,,,,,,,,,,,,001,59,2020_Feb_04_1042,spring_faces,3.1.5,60.11358461809857,
condition files/Stage2_1.xlsx,,B2,T2,r,"['s', 'r']","['Stratego', 'Risk']","[-0.15, 0.5]","[0.15, 0.5]",1,1,,,,,,,,,,,,,,,,,0,2,2,2,0,1,1,3,,,,,,,,,,,,,,,,,,,,,,,,,,,,,,,,,,,,,,,,,,,,,,,1950.2617237089999,None,1950.2617237089999,None,1950.2617237089999,None,r,1,0.6429372209995563,1951.796932628,None,1951.796932628,None,1951.796932628,None,1952.4951711539998,None,1952.4951711539998,None,1952.4951711539998,None,1952.4951711539998,None,,,,,,,,,,,,,,,,,,,,,,,,,,,,,,,,,,,,,,,,,,,,001,59,2020_Feb_04_1042,spring_faces,3.1.5,60.11358461809857,
condition files/Stage2_1.xlsx,,T5,B5,s,"['s', 'r']","['Stratego', 'Risk']","[-0.15, 0.5]","[0.15, 0.5]",1,1,,,,,,,,,,,,,,,,,0,2,2,2,0,2,2,0,,,,,,,,,,,,,,,,,,,,,,,,,,,,,,,,,,,,,,,,,,,,,,,1954.4611295079994,None,1954.4611295079994,None,1954.4611295079994,None,s,1,0.7629838770008064,1955.9968895060001,None,1955.9968895060001,None,1955.9968895060001,None,1956.8111941770003,None,1956.8111941770003,None,1956.8111941770003,None,1956.8111941770003,None,,,,,,,,,,,,,,,,,,,,,,,,,,,,,,,,,,,,,,,,,,,,001,59,2020_Feb_04_1042,spring_faces,3.1.5,60.11358461809857,
condition files/Stage2_1.xlsx,,B6,T6,r,"['s', 'r']","['Stratego', 'Risk']","[-0.15, 0.5]","[0.15, 0.5]",1,1,,,,,,,,,,,,,,,,,0,2,2,2,0,3,3,1,,,,,,,,,,,,,,,,,,,,,,,,,,,,,,,,,,,,,,,,,,,,,,,1958.7782213969995,None,1958.7782213969995,None,1958.7782213969995,None,r,1,1.0699793469993892,1960.3139176619998,None,1960.3139176619998,None,1960.3139176619998,None,1961.4457037989996,None,1961.4457037989996,None,1961.4457037989996,None,1961.4457037989996,None,,,,,,,,,,,,,,,,,,,,,,,,,,,,,,,,,,,,,,,,,,,,001,59,2020_Feb_04_1042,spring_faces,3.1.5,60.11358461809857,
condition files/Stage2_1.xlsx,,T3,B3,s,"['s', 'r']","['Stratego', 'Risk']","[-0.15, 0.5]","[0.15, 0.5]",1,1,,,,,,,,,,,,,,,,,0,2,2,2,0,4,4,4,,,,,,,,,,,,,,,,,,,,,,,,,,,,,,,,,,,,,,,,,,,,,,,1963.4114151530002,None,1963.4114151530002,None,1963.4114151530002,None,s,1,0.918329084999641,1964.9614935580003,None,1964.9614935580003,None,1964.9614935580003,None,1965.961740703,None,1965.961740703,None,1965.961740703,None,1965.961740703,None,,,,,,,,,,,,,,,,,,,,,,,,,,,,,,,,,,,,,,,,,,,,001,59,2020_Feb_04_1042,spring_faces,3.1.5,60.11358461809857,
condition files/Stage2_1.xlsx,,T1,B1,s,"['s', 'r']","['Stratego', 'Risk']","[-0.15, 0.5]","[0.15, 0.5]",1,1,,,,,,,,,,,,,,,,,0,2,2,2,0,5,5,2,,,,,,,,,,,,,,,,,,,,,,,,,,,,,,,,,,,,,,,,,,,,,,,1967.9118124010001,None,1967.9118124010001,None,1967.9118124010001,None,s,1,1.3617651579997982,1969.4461045970002,None,1969.4461045970002,None,1969.4461045970002,None,1970.8619062749995,None,1970.8619062749995,None,1970.8619062749995,None,1970.8619062749995,None,,,,,,,,,,,,,,,,,,,,,,,,,,,,,,,,,,,,,,,,,,,,001,59,2020_Feb_04_1042,spring_faces,3.1.5,60.11358461809857,
condition files/Stage2_2.xlsx,,B5,T5,s,"['s', 'r']","['Stratego', 'Risk']","[-0.15, 0.5]","[0.15, 0.5]",1,1,,,,,,,,,,,,,,,,,0,3,3,3,0,0,0,0,,,,,,,,,,,,,,,,,,,,,,,,,,,,,,,,,,,,,,,,,,,,,,,1972.8453005049996,None,1972.8453005049996,None,1972.8453005049996,None,s,1,1.2916341029995237,1974.3803083719995,None,1974.3803083719995,None,1974.3803083719995,None,1975.7285891020001,None,1975.7285891020001,None,1975.7285891020001,None,1975.7285891020001,None,,,,,,,,,,,,,,,,,,,,,,,,,,,,,,,,,,,,,,,,,,,,001,59,2020_Feb_04_1042,spring_faces,3.1.5,60.11358461809857,
condition files/Stage2_2.xlsx,,T2,B2,r,"['s', 'r']","['Stratego', 'Risk']","[-0.15, 0.5]","[0.15, 0.5]",1,1,,,,,,,,,,,,,,,,,0,3,3,3,0,1,1,3,,,,,,,,,,,,,,,,,,,,,,,,,,,,,,,,,,,,,,,,,,,,,,,1977.6949569030003,None,1977.6949569030003,None,1977.6949569030003,None,r,1,1.0656763830002092,1979.2301678859994,None,1979.2301678859994,None,1979.2301678859994,None,1980.361311486,None,1980.361311486,None,1980.361311486,None,1980.361311486,None,,,,,,,,,,,,,,,,,,,,,,,,,,,,,,,,,,,,,,,,,,,,001,59,2020_Feb_04_1042,spring_faces,3.1.5,60.11358461809857,
condition files/Stage2_2.xlsx,,T4,B4,r,"['s', 'r']","['Stratego', 'Risk']","[-0.15, 0.5]","[0.15, 0.5]",1,1,,,,,,,,,,,,,,,,,0,3,3,3,0,2,2,5,,,,,,,,,,,,,,,,,,,,,,,,,,,,,,,,,,,,,,,,,,,,,,,1982.3279440329998,None,1982.3279440329998,None,1982.3279440329998,None,r,1,3.6484392319998733,1983.8634586319995,None,1983.8634586319995,None,1983.8634586319995,None,1987.5622491240001,None,1987.5622491240001,None,1987.5622491240001,None,1987.5622491240001,None,,,,,,,,,,,,,,,,,,,,,,,,,,,,,,,,,,,,,,,,,,,,001,59,2020_Feb_04_1042,spring_faces,3.1.5,60.11358461809857,
condition files/Stage2_2.xlsx,,B1,T1,s,"['s', 'r']","['Stratego', 'Risk']","[-0.15, 0.5]","[0.15, 0.5]",1,1,,,,,,,,,,,,,,,,,0,3,3,3,0,3,3,2,,,,,,,,,,,,,,,,,,,,,,,,,,,,,,,,,,,,,,,,,,,,,,,1989.528004623,None,1989.528004623,None,1989.528004623,None,s,1,0.8331913299998632,1991.0786186509995,None,1991.0786186509995,None,1991.0786186509995,None,1991.978561283,None,1991.978561283,None,1991.978561283,None,1991.978561283,None,,,,,,,,,,,,,,,,,,,,,,,,,,,,,,,,,,,,,,,,,,,,001,59,2020_Feb_04_1042,spring_faces,3.1.5,60.11358461809857,
condition files/Stage2_2.xlsx,,T6,B6,r,"['s', 'r']","['Stratego', 'Risk']","[-0.15, 0.5]","[0.15, 0.5]",1,1,,,,,,,,,,,,,,,,,0,3,3,3,0,4,4,1,,,,,,,,,,,,,,,,,,,,,,,,,,,,,,,,,,,,,,,,,,,,,,,1993.9289407679998,None,1993.9289407679998,None,1993.9289407679998,None,r,1,0.9462565869998798,1995.4616272719995,None,1995.4616272719995,None,1995.4616272719995,None,1996.4615501749995,None,1996.4615501749995,None,1996.4615501749995,None,1996.4615501749995,None,,,,,,,,,,,,,,,,,,,,,,,,,,,,,,,,,,,,,,,,,,,,001,59,2020_Feb_04_1042,spring_faces,3.1.5,60.11358461809857,
condition files/Stage2_2.xlsx,,B3,T3,s,"['s', 'r']","['Stratego', 'Risk']","[-0.15, 0.5]","[0.15, 0.5]",1,1,,,,,,,,,,,,,,,,,0,3,3,3,0,5,5,4,,,,,,,,,,,,,,,,,,,,,,,,,,,,,,,,,,,,,,,,,,,,,,,1998.4285823439996,None,1998.4285823439996,None,1998.4285823439996,None,s,1,5.277966593999736,1999.961902782,None,1999.961902782,None,1999.961902782,None,2005.297213578,None,2005.297213578,None,2005.297213578,None,2005.297213578,None,,,,,,,,,,,,,,,,,,,,,,,,,,,,,,,,,,,,,,,,,,,,001,59,2020_Feb_04_1042,spring_faces,3.1.5,60.11358461809857,
condition files/Stage2_1.xlsx,,T1,B1,s,"['s', 'r']","['Stratego', 'Risk']","[-0.15, 0.5]","[0.15, 0.5]",1,1,,,,,,,,,,,,,,,,,0,4,4,4,0,0,0,2,,,,,,,,,,,,,,,,,,,,,,,,,,,,,,,,,,,,,,,,,,,,,,,2007.277975037,None,2007.277975037,None,2007.277975037,None,s,1,1.9472279930005243,2008.8286395099994,None,2008.8286395099994,None,2008.8286395099994,None,2010.8288619220002,None,2010.8288619220002,None,2010.8288619220002,None,2010.8288619220002,None,,,,,,,,,,,,,,,,,,,,,,,,,,,,,,,,,,,,,,,,,,,,001,59,2020_Feb_04_1042,spring_faces,3.1.5,60.11358461809857,
condition files/Stage2_1.xlsx,,T3,B3,s,"['s', 'r']","['Stratego', 'Risk']","[-0.15, 0.5]","[0.15, 0.5]",1,1,,,,,,,,,,,,,,,,,0,4,4,4,0,1,1,4,,,,,,,,,,,,,,,,,,,,,,,,,,,,,,,,,,,,,,,,,,,,,,,2012.7951014319997,None,2012.7951014319997,None,2012.7951014319997,None,s,1,0.8143993079993379,2014.329475765,None,2014.329475765,None,2014.329475765,None,2015.1943493869994,None,2015.1943493869994,None,2015.1943493869994,None,2015.1943493869994,None,,,,,,,,,,,,,,,,,,,,,,,,,,,,,,,,,,,,,,,,,,,,001,59,2020_Feb_04_1042,spring_faces,3.1.5,60.11358461809857,
condition files/Stage2_1.xlsx,,B2,T2,r,"['s', 'r']","['Stratego', 'Risk']","[-0.15, 0.5]","[0.15, 0.5]",1,1,,,,,,,,,,,,,,,,,0,4,4,4,0,2,2,3,,,,,,,,,,,,,,,,,,,,,,,,,,,,,,,,,,,,,,,,,,,,,,,2017.161720186,None,2017.161720186,None,2017.161720186,None,r,1,2.5445038990001194,2018.6953627559997,None,2018.6953627559997,None,2018.6953627559997,None,2021.2970261989994,None,2021.2970261989994,None,2021.2970261989994,None,2021.2970261989994,None,,,,,,,,,,,,,,,,,,,,,,,,,,,,,,,,,,,,,,,,,,,,001,59,2020_Feb_04_1042,spring_faces,3.1.5,60.11358461809857,
