condsFile,subStage,cue1,cue2,correct,responseKeys,responseNames,cue1Position,cue2Position,cue1Opacity,cue2Opacity,stageLoop0.thisRepN,stageLoop0.thisTrialN,stageLoop0.thisN,stageLoop0.thisIndex,blockLoop0.thisRepN,blockLoop0.thisTrialN,blockLoop0.thisN,blockLoop0.thisIndex,stage1Loop.thisRepN,stage1Loop.thisTrialN,stage1Loop.thisN,stage1Loop.thisIndex,blockLoop1.thisRepN,blockLoop1.thisTrialN,blockLoop1.thisN,blockLoop1.thisIndex,stage2Loop.thisRepN,stage2Loop.thisTrialN,stage2Loop.thisN,stage2Loop.thisIndex,blockLoop2.thisRepN,blockLoop2.thisTrialN,blockLoop2.thisN,blockLoop2.thisIndex,testLoop.thisRepN,testLoop.thisTrialN,testLoop.thisN,testLoop.thisIndex,blockLoopTest.thisRepN,blockLoopTest.thisTrialN,blockLoopTest.thisN,blockLoopTest.thisIndex,cuePics,id_instr_text.started,id_instr_text.stopped,space_to_continue_2.started,space_to_continue_2.stopped,end_instructions_resp_3.keys,end_instructions_resp_3.rt,end_instructions_resp_3.started,end_instructions_resp_3.stopped,id_input_instr.started,id_input_instr.stopped,id_input_rect.started,id_input_rect.stopped,id_input_resp.keys,id_input_resp.rt,id_input_resp.started,id_input_resp.stopped,sonaID,id_input_text.started,id_input_text.stopped,final_text.started,final_text.stopped,instructions.started,instructions.stopped,end_instructions_resp.keys,end_instructions_resp.rt,end_instructions_resp.started,end_instructions_resp.stopped,space_to_continue.started,space_to_continue.stopped,instructions_stage0.started,instructions_stage0.stopped,end_instructions_resp_stage0.keys,end_instructions_resp_stage0.rt,end_instructions_resp_stage0.started,end_instructions_resp_stage0.stopped,space_to_continue_stage0.started,space_to_continue_stage0.stopped,text.started,text.stopped,resp_text1.started,resp_text1.stopped,resp_text2.started,resp_text2.stopped,trial_resp.keys,trial_resp.corr,trial_resp.rt,trial_resp.started,trial_resp.stopped,cue1Image.started,cue1Image.stopped,cue2Image.started,cue2Image.stopped,cue1Image_fb.started,cue1Image_fb.stopped,cue2Image_fb.started,cue2Image_fb.stopped,fb_text_answer.started,fb_text_answer.stopped,feedback_image.started,feedback_image.stopped,instructions_stage1.started,instructions_stage1.stopped,end_instructions_resp_stage1.keys,end_instructions_resp_stage1.rt,end_instructions_resp_stage1.started,end_instructions_resp_stage1.stopped,space_to_continue_stage1.started,space_to_continue_stage1.stopped,instructions_2.started,instructions_2.stopped,end_instructions_resp_2.keys,end_instructions_resp_2.rt,end_instructions_resp_2.started,end_instructions_resp_2.stopped,press_space_to_continue_stage2.started,press_space_to_continue_stage2.stopped,instructions_testStage1.started,instructions_testStage1.stopped,end_instructions_resp_test1.keys,end_instructions_resp_test1.rt,end_instructions_resp_test1.started,end_instructions_resp_test1.stopped,press_space_to_continue_test1.started,press_space_to_continue_test1.stopped,cue1Image_testChoice.started,cue1Image_testChoice.stopped,cue2Image_testChoice.started,cue2Image_testChoice.stopped,test_resp.keys,test_resp.corr,test_resp.rt,test_resp.started,test_resp.stopped,cue1Image_testConf.started,cue1Image_testConf.stopped,cue2Image_testConf.started,cue2Image_testConf.stopped,conf_reminder.started,conf_reminder.stopped,conf_rating.response,conf_rating.rt,conf_rating.started,conf_rating.stopped,session,participant,date,expName,psychopyVersion,frameRate,
,,,,,,,,,,,,,,,,,,,,,,,,,,,,,,,,,,,,,,,,,,,"{'none': 'pictures/20M_AN_C.png', 'alpha': 'pictures/SHINEd_melon.png', 'beta': 'pictures/SHINEd_pear.png', 'theta': 'pictures/SHINEd_pepper.png', 'phi': 'pictures/SHINEd_apple.png', 'T1': 'pictures/20M_AN_C.png', 'T2': 'pictures/26M_AN_C.png', 'T3': 'pictures/25M_AN_C.png', 'T4': 'pictures/23M_AN_C.png', 'T5': 'pictures/34M_AN_C.png', 'T6': 'pictures/33M_AN_C.png', 'B1': 'pictures/32M_NE_C.png', 'B2': 'pictures/37M_NE_C.png', 'B3': 'pictures/31M_NE_C.png', 'B4': 'pictures/22M_NE_C.png', 'B5': 'pictures/38M_NE_C.png', 'B6': 'pictures/36M_NE_C.png'}",15.863444788999914,None,20.84632371799853,None,space,68.09629239099922,20.84632371799853,None,,,,,,,,,,,,,,,,,,,,,,,,,,,,,,,,,,,,,,,,,,,,,,,,,,,,,,,,,,,,,,,,,,,,,,,,,,,,,,,,,,,,,,,,,,,,,,,,001,63,2020_Feb_04_1215,spring_faces,3.1.5,60.04067070957856,
,,,,,,,,,,,,,,,,,,,,,,,,,,,,,,,,,,,,,,,,,,,,,,,,,,,,89.3299761269991,None,89.3299761269991,None,"['0', '2', '2', '1', 'c', 'a', 'l', 'y', 'n']","[15.868586803999278, 16.10867874900032, 23.11653465299969, 24.172617784999602, 28.924679964999086, 29.580604492999555, 34.66856349500085, 35.24459856499925, 35.75660337000045]",89.3299761269991,None,,,,,,,,,,,,,,,,,,,,,,,,,,,,,,,,,,,,,,,,,,,,,,,,,,,,,,,,,,,,,,,,,,,,,,,,,,,,,,,,,,,,,,,,001,63,2020_Feb_04_1215,spring_faces,3.1.5,60.04067070957856,
,,,,,,,,,,,,,,,,,,,,,,,,,,,,,,,,,,,,,,,,,,,,,,,,,,,,,,,,,,,,0221calyn,89.3299761269991,None,89.3299761269991,None,130.16323481200016,None,space,1.0273709289995168,135.1633029659988,None,,,,,,,,,,,,,,,,,,,,,,,,,,,,,,,,,,,,,,,,,,,,,,,,,,,,,,,,,,,,,,,,,,,,,,,,,,,,,001,63,2020_Feb_04_1215,spring_faces,3.1.5,60.04067070957856,
,,,,,,,,,,,,,,,,,,,,,,,,,,,,,,,,,,,,,,,,,,,,,,,,,,,,,,,,,,,,,,,,,,,,,,,135.1633029659988,None,136.2299708089995,None,space,8.064390548999654,141.2301966649993,None,,,,,,,,,,,,,,,,,,,,,,,,,,,,,,,,,,,,,,,,,,,,,,,,,,,,,,,,,,,,,,,,,,,,,001,63,2020_Feb_04_1215,spring_faces,3.1.5,60.04067070957856,
condition files/Stage0a.xlsx,0a,beta,none,g,"['h', 'g']","['Chess', 'Go']","[0, 0.5]","[0, 0]",1,0,0,0,0,0,0,0,0,1,,,,,,,,,,,,,,,,,,,,,,,,,,,,,,,,,,,,,,,,,,,,,,,,,,,,,,,,,,,,,141.2301966649993,None,149.34677026899953,None,149.34677026899953,None,149.34677026899953,None,g,1,8.860653030000321,150.93002141799843,None,150.93002141799843,None,150.93002141799843,None,159.86307047899936,None,159.86307047899936,None,159.86307047899936,None,159.86307047899936,None,,,,,,,,,,,,,,,,,,,,,,,,,,,,,,,,,,,,,,,,,,,,001,63,2020_Feb_04_1215,spring_faces,3.1.5,60.04067070957856,
condition files/Stage0a.xlsx,0a,alpha,none,h,"['h', 'g']","['Chess', 'Go']","[0, 0.5]","[0, 0]",1,0,0,0,0,0,0,1,1,0,,,,,,,,,,,,,,,,,,,,,,,,,,,,,,,,,,,,,,,,,,,,,,,,,,,,,,,,,,,,,,,161.8128923109998,None,161.8128923109998,None,161.8128923109998,None,h,1,1.3075219850015856,163.3471514189987,None,163.3471514189987,None,163.3471514189987,None,164.71275575899926,None,164.71275575899926,None,164.71275575899926,None,164.71275575899926,None,,,,,,,,,,,,,,,,,,,,,,,,,,,,,,,,,,,,,,,,,,,,001,63,2020_Feb_04_1215,spring_faces,3.1.5,60.04067070957856,
condition files/Stage0a.xlsx,0a,alpha,none,h,"['h', 'g']","['Chess', 'Go']","[0, 0.5]","[0, 0]",1,0,0,1,1,1,0,0,0,0,,,,,,,,,,,,,,,,,,,,,,,,,,,,,,,,,,,,,,,,,,,,,,,,,,,,,,,,,,,,,,,166.69677705699905,None,166.69677705699905,None,166.69677705699905,None,h,1,1.6240901660003146,168.23058659099843,None,168.23058659099843,None,168.23058659099843,None,169.91352630499932,None,169.91352630499932,None,169.91352630499932,None,169.91352630499932,None,,,,,,,,,,,,,,,,,,,,,,,,,,,,,,,,,,,,,,,,,,,,001,63,2020_Feb_04_1215,spring_faces,3.1.5,60.04067070957856,
condition files/Stage0a.xlsx,0a,beta,none,g,"['h', 'g']","['Chess', 'Go']","[0, 0.5]","[0, 0]",1,0,0,1,1,1,0,1,1,1,,,,,,,,,,,,,,,,,,,,,,,,,,,,,,,,,,,,,,,,,,,,,,,,,,,,,,,,,,,,,,,171.87976898599845,None,171.87976898599845,None,171.87976898599845,None,g,1,0.9055377360000421,173.41305776099944,None,173.41305776099944,None,173.41305776099944,None,174.37957410699892,None,174.37957410699892,None,174.37957410699892,None,174.37957410699892,None,,,,,,,,,,,,,,,,,,,,,,,,,,,,,,,,,,,,,,,,,,,,001,63,2020_Feb_04_1215,spring_faces,3.1.5,60.04067070957856,
condition files/Stage0a.xlsx,0a,beta,none,g,"['h', 'g']","['Chess', 'Go']","[0, 0.5]","[0, 0]",1,0,0,2,2,2,0,0,0,1,,,,,,,,,,,,,,,,,,,,,,,,,,,,,,,,,,,,,,,,,,,,,,,,,,,,,,,,,,,,,,,176.36324789099854,None,176.36324789099854,None,176.36324789099854,None,g,1,1.398887086999821,177.87971011399895,None,177.87971011399895,None,177.87971011399895,None,179.32997792599963,None,179.32997792599963,None,179.32997792599963,None,179.32997792599963,None,,,,,,,,,,,,,,,,,,,,,,,,,,,,,,,,,,,,,,,,,,,,001,63,2020_Feb_04_1215,spring_faces,3.1.5,60.04067070957856,
condition files/Stage0a.xlsx,0a,alpha,none,h,"['h', 'g']","['Chess', 'Go']","[0, 0.5]","[0, 0]",1,0,0,2,2,2,0,1,1,0,,,,,,,,,,,,,,,,,,,,,,,,,,,,,,,,,,,,,,,,,,,,,,,,,,,,,,,,,,,,,,,181.29650964899884,None,181.29650964899884,None,181.29650964899884,None,h,1,0.7687544810014515,182.82978340199952,None,182.82978340199952,None,182.82978340199952,None,183.66299933399932,None,183.66299933399932,None,183.66299933399932,None,183.66299933399932,None,,,,,,,,,,,,,,,,,,,,,,,,,,,,,,,,,,,,,,,,,,,,001,63,2020_Feb_04_1215,spring_faces,3.1.5,60.04067070957856,
condition files/Stage0a.xlsx,0a,beta,none,g,"['h', 'g']","['Chess', 'Go']","[0, 0.5]","[0, 0]",1,0,0,3,3,3,0,0,0,1,,,,,,,,,,,,,,,,,,,,,,,,,,,,,,,,,,,,,,,,,,,,,,,,,,,,,,,,,,,,,,,185.64675283499855,None,185.64675283499855,None,185.64675283499855,None,g,1,0.5310175579998031,187.16356366699983,None,187.16356366699983,None,187.16356366699983,None,187.74609652099934,None,187.74609652099934,None,187.74609652099934,None,187.74609652099934,None,,,,,,,,,,,,,,,,,,,,,,,,,,,,,,,,,,,,,,,,,,,,001,63,2020_Feb_04_1215,spring_faces,3.1.5,60.04067070957856,
condition files/Stage0a.xlsx,0a,alpha,none,h,"['h', 'g']","['Chess', 'Go']","[0, 0.5]","[0, 0]",1,0,0,3,3,3,0,1,1,0,,,,,,,,,,,,,,,,,,,,,,,,,,,,,,,,,,,,,,,,,,,,,,,,,,,,,,,,,,,,,,,189.7130685840002,None,189.7130685840002,None,189.7130685840002,None,h,1,0.6723738559994672,191.2462124649992,None,191.2462124649992,None,191.2462124649992,None,191.97935215699908,None,191.97935215699908,None,191.97935215699908,None,191.97935215699908,None,,,,,,,,,,,,,,,,,,,,,,,,,,,,,,,,,,,,,,,,,,,,001,63,2020_Feb_04_1215,spring_faces,3.1.5,60.04067070957856,
condition files/Stage0a.xlsx,0a,beta,none,g,"['h', 'g']","['Chess', 'Go']","[0, 0.5]","[0, 0]",1,0,0,4,4,4,0,0,0,1,,,,,,,,,,,,,,,,,,,,,,,,,,,,,,,,,,,,,,,,,,,,,,,,,,,,,,,,,,,,,,,193.96336020299896,None,193.96336020299896,None,193.96336020299896,None,g,1,0.47048255699883157,195.4961407819992,None,195.4961407819992,None,195.4961407819992,None,196.02934965499844,None,196.02934965499844,None,196.02934965499844,None,196.02934965499844,None,,,,,,,,,,,,,,,,,,,,,,,,,,,,,,,,,,,,,,,,,,,,001,63,2020_Feb_04_1215,spring_faces,3.1.5,60.04067070957856,
condition files/Stage0a.xlsx,0a,alpha,none,h,"['h', 'g']","['Chess', 'Go']","[0, 0.5]","[0, 0]",1,0,0,4,4,4,0,1,1,0,,,,,,,,,,,,,,,,,,,,,,,,,,,,,,,,,,,,,,,,,,,,,,,,,,,,,,,,,,,,,,,197.99647439899854,None,197.99647439899854,None,197.99647439899854,None,h,1,0.5171877859993401,199.52940348099946,None,199.52940348099946,None,199.52940348099946,None,200.0966247669985,None,200.0966247669985,None,200.0966247669985,None,200.0966247669985,None,,,,,,,,,,,,,,,,,,,,,,,,,,,,,,,,,,,,,,,,,,,,001,63,2020_Feb_04_1215,spring_faces,3.1.5,60.04067070957856,
condition files/Stage0a.xlsx,0a,alpha,none,h,"['h', 'g']","['Chess', 'Go']","[0, 0.5]","[0, 0]",1,0,0,5,5,5,0,0,0,0,,,,,,,,,,,,,,,,,,,,,,,,,,,,,,,,,,,,,,,,,,,,,,,,,,,,,,,,,,,,,,,202.0799514800001,None,202.0799514800001,None,202.0799514800001,None,h,1,0.8177200329992047,203.6128757459992,None,203.6128757459992,None,203.6128757459992,None,204.49598445799893,None,204.49598445799893,None,204.49598445799893,None,204.49598445799893,None,,,,,,,,,,,,,,,,,,,,,,,,,,,,,,,,,,,,,,,,,,,,001,63,2020_Feb_04_1215,spring_faces,3.1.5,60.04067070957856,
condition files/Stage0a.xlsx,0a,beta,none,g,"['h', 'g']","['Chess', 'Go']","[0, 0.5]","[0, 0]",1,0,0,5,5,5,0,1,1,1,,,,,,,,,,,,,,,,,,,,,,,,,,,,,,,,,,,,,,,,,,,,,,,,,,,,,,,,,,,,,,,206.46286991399938,None,206.46286991399938,None,206.46286991399938,None,g,1,0.4983097620006447,207.99631798799965,None,207.99631798799965,None,207.99631798799965,None,208.54705851899962,None,208.54705851899962,None,208.54705851899962,None,208.54705851899962,None,,,,,,,,,,,,,,,,,,,,,,,,,,,,,,,,,,,,,,,,,,,,001,63,2020_Feb_04_1215,spring_faces,3.1.5,60.04067070957856,
condition files/Stage0b_1.xlsx,0b,alpha,none,h,"['h', 'g']","['Chess', 'Go']","[-0.15, 0.5]","[0.15, 0.5]",1,0,0,6,6,6,0,0,0,0,,,,,,,,,,,,,,,,,,,,,,,,,,,,,,,,,,,,,,,,,,,,,,,,,,,,,,,,,,,,,,,210.52983813799983,None,210.52983813799983,None,210.52983813799983,None,h,1,0.5915323089993763,212.06313100699845,None,212.06313100699845,None,212.06313100699845,None,212.71322302099907,None,212.71322302099907,None,212.71322302099907,None,212.71322302099907,None,,,,,,,,,,,,,,,,,,,,,,,,,,,,,,,,,,,,,,,,,,,,001,63,2020_Feb_04_1215,spring_faces,3.1.5,60.04067070957856,
condition files/Stage0b_1.xlsx,0b,none,beta,g,"['h', 'g']","['Chess', 'Go']","[-0.15, 0.5]","[0.15, 0.5]",0,1,0,6,6,6,0,1,1,1,,,,,,,,,,,,,,,,,,,,,,,,,,,,,,,,,,,,,,,,,,,,,,,,,,,,,,,,,,,,,,,214.67950453899903,None,214.67950453899903,None,214.67950453899903,None,g,1,0.5205036730003485,216.23008848099926,None,216.23008848099926,None,216.23008848099926,None,216.81814523899993,None,216.81814523899993,None,216.81814523899993,None,216.81814523899993,None,,,,,,,,,,,,,,,,,,,,,,,,,,,,,,,,,,,,,,,,,,,,001,63,2020_Feb_04_1215,spring_faces,3.1.5,60.04067070957856,
condition files/Stage0b_2.xlsx,0b,none,alpha,h,"['h', 'g']","['Chess', 'Go']","[-0.15, 0.5]","[0.15, 0.5]",0,1,0,7,7,7,0,0,0,0,,,,,,,,,,,,,,,,,,,,,,,,,,,,,,,,,,,,,,,,,,,,,,,,,,,,,,,,,,,,,,,218.79642925400003,None,218.79642925400003,None,218.79642925400003,None,h,1,0.48529645599955984,220.31331234800018,None,220.31331234800018,None,220.31331234800018,None,220.86295781899935,None,220.86295781899935,None,220.86295781899935,None,220.86295781899935,None,,,,,,,,,,,,,,,,,,,,,,,,,,,,,,,,,,,,,,,,,,,,001,63,2020_Feb_04_1215,spring_faces,3.1.5,60.04067070957856,
condition files/Stage0b_2.xlsx,0b,beta,none,g,"['h', 'g']","['Chess', 'Go']","[-0.15, 0.5]","[0.15, 0.5]",1,0,0,7,7,7,0,1,1,1,,,,,,,,,,,,,,,,,,,,,,,,,,,,,,,,,,,,,,,,,,,,,,,,,,,,,,,,,,,,,,,222.82980135700018,None,222.82980135700018,None,222.82980135700018,None,g,1,0.40345739500116906,224.37913044000015,None,224.37913044000015,None,224.37913044000015,None,224.8502335969988,None,224.8502335969988,None,224.8502335969988,None,224.8502335969988,None,,,,,,,,,,,,,,,,,,,,,,,,,,,,,,,,,,,,,,,,,,,,001,63,2020_Feb_04_1215,spring_faces,3.1.5,60.04067070957856,
condition files/Stage0b_1.xlsx,0b,alpha,none,h,"['h', 'g']","['Chess', 'Go']","[-0.15, 0.5]","[0.15, 0.5]",1,0,0,8,8,8,0,0,0,0,,,,,,,,,,,,,,,,,,,,,,,,,,,,,,,,,,,,,,,,,,,,,,,,,,,,,,,,,,,,,,,226.82999544199993,None,226.82999544199993,None,226.82999544199993,None,h,1,0.8515740309994726,228.36299464799959,None,228.36299464799959,None,228.36299464799959,None,229.2800589620001,None,229.2800589620001,None,229.2800589620001,None,229.2800589620001,None,,,,,,,,,,,,,,,,,,,,,,,,,,,,,,,,,,,,,,,,,,,,001,63,2020_Feb_04_1215,spring_faces,3.1.5,60.04067070957856,
condition files/Stage0b_1.xlsx,0b,none,beta,g,"['h', 'g']","['Chess', 'Go']","[-0.15, 0.5]","[0.15, 0.5]",0,1,0,8,8,8,0,1,1,1,,,,,,,,,,,,,,,,,,,,,,,,,,,,,,,,,,,,,,,,,,,,,,,,,,,,,,,,,,,,,,,231.24640272099896,None,231.24640272099896,None,231.24640272099896,None,g,1,0.877211270000771,232.78534987799867,None,232.78534987799867,None,232.78534987799867,None,233.7293815519988,None,233.7293815519988,None,233.7293815519988,None,233.7293815519988,None,,,,,,,,,,,,,,,,,,,,,,,,,,,,,,,,,,,,,,,,,,,,001,63,2020_Feb_04_1215,spring_faces,3.1.5,60.04067070957856,
condition files/Stage0b_2.xlsx,0b,none,alpha,h,"['h', 'g']","['Chess', 'Go']","[-0.15, 0.5]","[0.15, 0.5]",0,1,0,9,9,9,0,0,0,0,,,,,,,,,,,,,,,,,,,,,,,,,,,,,,,,,,,,,,,,,,,,,,,,,,,,,,,,,,,,,,,235.6968861059995,None,235.6968861059995,None,235.6968861059995,None,h,1,0.704607452998971,237.22999693899874,None,237.22999693899874,None,237.22999693899874,None,237.99634254599914,None,237.99634254599914,None,237.99634254599914,None,237.99634254599914,None,,,,,,,,,,,,,,,,,,,,,,,,,,,,,,,,,,,,,,,,,,,,001,63,2020_Feb_04_1215,spring_faces,3.1.5,60.04067070957856,
condition files/Stage0b_2.xlsx,0b,beta,none,g,"['h', 'g']","['Chess', 'Go']","[-0.15, 0.5]","[0.15, 0.5]",1,0,0,9,9,9,0,1,1,1,,,,,,,,,,,,,,,,,,,,,,,,,,,,,,,,,,,,,,,,,,,,,,,,,,,,,,,,,,,,,,,239.96310104199983,None,239.96310104199983,None,239.96310104199983,None,g,1,0.35738380000111647,241.51326895999955,None,241.51326895999955,None,241.51326895999955,None,241.93413539899848,None,241.93413539899848,None,241.93413539899848,None,241.93413539899848,None,,,,,,,,,,,,,,,,,,,,,,,,,,,,,,,,,,,,,,,,,,,,001,63,2020_Feb_04_1215,spring_faces,3.1.5,60.04067070957856,
condition files/Stage0b_1.xlsx,0b,none,beta,g,"['h', 'g']","['Chess', 'Go']","[-0.15, 0.5]","[0.15, 0.5]",0,1,0,10,10,10,0,0,0,1,,,,,,,,,,,,,,,,,,,,,,,,,,,,,,,,,,,,,,,,,,,,,,,,,,,,,,,,,,,,,,,243.91313235599955,None,243.91313235599955,None,243.91313235599955,None,g,1,1.41252377300043,245.4500706029994,None,245.4500706029994,None,245.4500706029994,None,246.91319996499988,None,246.91319996499988,None,246.91319996499988,None,246.91319996499988,None,,,,,,,,,,,,,,,,,,,,,,,,,,,,,,,,,,,,,,,,,,,,001,63,2020_Feb_04_1215,spring_faces,3.1.5,60.04067070957856,
condition files/Stage0b_1.xlsx,0b,alpha,none,h,"['h', 'g']","['Chess', 'Go']","[-0.15, 0.5]","[0.15, 0.5]",1,0,0,10,10,10,0,1,1,0,,,,,,,,,,,,,,,,,,,,,,,,,,,,,,,,,,,,,,,,,,,,,,,,,,,,,,,,,,,,,,,248.87974709799892,None,248.87974709799892,None,248.87974709799892,None,h,1,0.47933859799923084,250.41526276399964,None,250.41526276399964,None,250.41526276399964,None,250.94747101499888,None,250.94747101499888,None,250.94747101499888,None,250.94747101499888,None,,,,,,,,,,,,,,,,,,,,,,,,,,,,,,,,,,,,,,,,,,,,001,63,2020_Feb_04_1215,spring_faces,3.1.5,60.04067070957856,
condition files/Stage0b_2.xlsx,0b,beta,none,g,"['h', 'g']","['Chess', 'Go']","[-0.15, 0.5]","[0.15, 0.5]",1,0,0,11,11,11,0,0,0,1,,,,,,,,,,,,,,,,,,,,,,,,,,,,,,,,,,,,,,,,,,,,,,,,,,,,,,,,,,,,,,,252.9301103580001,None,252.9301103580001,None,252.9301103580001,None,g,1,0.6229426700010663,254.46370641300018,None,254.46370641300018,None,254.46370641300018,None,255.14695736700014,None,255.14695736700014,None,255.14695736700014,None,255.14695736700014,None,,,,,,,,,,,,,,,,,,,,,,,,,,,,,,,,,,,,,,,,,,,,001,63,2020_Feb_04_1215,spring_faces,3.1.5,60.04067070957856,
condition files/Stage0b_2.xlsx,0b,none,alpha,h,"['h', 'g']","['Chess', 'Go']","[-0.15, 0.5]","[0.15, 0.5]",0,1,0,11,11,11,0,1,1,0,,,,,,,,,,,,,,,,,,,,,,,,,,,,,,,,,,,,,,,,,,,,,,,,,,,,,,,,,,,,,,,257.11277419699945,None,257.11277419699945,None,257.11277419699945,None,h,1,0.6907220510001935,258.6518222220002,None,258.6518222220002,None,258.6518222220002,None,259.41275740999845,None,259.41275740999845,None,259.41275740999845,None,259.41275740999845,None,,,,,,,,,,,,,,,,,,,,,,,,,,,,,,,,,,,,,,,,,,,,001,63,2020_Feb_04_1215,spring_faces,3.1.5,60.04067070957856,
condition files/Stage0c_1.xlsx,0c,beta,theta,g,"['h', 'g']","['Chess', 'Go']","[-0.15, 0.5]","[0.15, 0.5]",1,1,0,12,12,12,0,0,0,2,,,,,,,,,,,,,,,,,,,,,,,,,,,,,,,,,,,,,,,,,,,,,,,,,,,,,,,,,,,,,,,261.379836529999,None,261.379836529999,None,261.379836529999,None,g,1,1.884992573001,262.9136038889992,None,262.9136038889992,None,262.9136038889992,None,264.86299555299956,None,264.86299555299956,None,264.86299555299956,None,264.86299555299956,None,,,,,,,,,,,,,,,,,,,,,,,,,,,,,,,,,,,,,,,,,,,,001,63,2020_Feb_04_1215,spring_faces,3.1.5,60.04067070957856,
condition files/Stage0c_1.xlsx,0c,theta,alpha,h,"['h', 'g']","['Chess', 'Go']","[-0.15, 0.5]","[0.15, 0.5]",1,1,0,12,12,12,0,1,1,0,,,,,,,,,,,,,,,,,,,,,,,,,,,,,,,,,,,,,,,,,,,,,,,,,,,,,,,,,,,,,,,266.8297871369996,None,266.8297871369996,None,266.8297871369996,None,h,1,0.9791326469985506,268.363462452,None,268.363462452,None,268.363462452,None,269.3966843269991,None,269.3966843269991,None,269.3966843269991,None,269.3966843269991,None,,,,,,,,,,,,,,,,,,,,,,,,,,,,,,,,,,,,,,,,,,,,001,63,2020_Feb_04_1215,spring_faces,3.1.5,60.04067070957856,
condition files/Stage0c_1.xlsx,0c,phi,beta,g,"['h', 'g']","['Chess', 'Go']","[-0.15, 0.5]","[0.15, 0.5]",1,1,0,12,12,12,0,2,2,3,,,,,,,,,,,,,,,,,,,,,,,,,,,,,,,,,,,,,,,,,,,,,,,,,,,,,,,,,,,,,,,271.3625964769999,None,271.3625964769999,None,271.3625964769999,None,g,1,0.8146630560004269,272.8959226709994,None,272.8959226709994,None,272.8959226709994,None,273.7801031939998,None,273.7801031939998,None,273.7801031939998,None,273.7801031939998,None,,,,,,,,,,,,,,,,,,,,,,,,,,,,,,,,,,,,,,,,,,,,001,63,2020_Feb_04_1215,spring_faces,3.1.5,60.04067070957856,
condition files/Stage0c_1.xlsx,0c,alpha,phi,h,"['h', 'g']","['Chess', 'Go']","[-0.15, 0.5]","[0.15, 0.5]",1,1,0,12,12,12,0,3,3,1,,,,,,,,,,,,,,,,,,,,,,,,,,,,,,,,,,,,,,,,,,,,,,,,,,,,,,,,,,,,,,,275.7298271210002,None,275.7298271210002,None,275.7298271210002,None,h,1,0.6231661700003315,277.26341024799876,None,277.26341024799876,None,277.26341024799876,None,277.94681605299957,None,277.94681605299957,None,277.94681605299957,None,277.94681605299957,None,,,,,,,,,,,,,,,,,,,,,,,,,,,,,,,,,,,,,,,,,,,,001,63,2020_Feb_04_1215,spring_faces,3.1.5,60.04067070957856,
condition files/Stage0c_2.xlsx,0c,alpha,theta,h,"['h', 'g']","['Chess', 'Go']","[-0.15, 0.5]","[0.15, 0.5]",1,1,0,13,13,13,0,0,0,0,,,,,,,,,,,,,,,,,,,,,,,,,,,,,,,,,,,,,,,,,,,,,,,,,,,,,,,,,,,,,,,279.9298166419994,None,279.9298166419994,None,279.9298166419994,None,h,1,0.7916438920001383,281.4630206539987,None,281.4630206539987,None,281.4630206539987,None,282.297574446,None,282.297574446,None,282.297574446,None,282.297574446,None,,,,,,,,,,,,,,,,,,,,,,,,,,,,,,,,,,,,,,,,,,,,001,63,2020_Feb_04_1215,spring_faces,3.1.5,60.04067070957856,
condition files/Stage0c_2.xlsx,0c,theta,beta,g,"['h', 'g']","['Chess', 'Go']","[-0.15, 0.5]","[0.15, 0.5]",1,1,0,13,13,13,0,1,1,2,,,,,,,,,,,,,,,,,,,,,,,,,,,,,,,,,,,,,,,,,,,,,,,,,,,,,,,,,,,,,,,284.2797951089997,None,284.2797951089997,None,284.2797951089997,None,g,1,0.7773005090002698,285.81335844000023,None,285.81335844000023,None,285.81335844000023,None,286.64648687099907,None,286.64648687099907,None,286.64648687099907,None,286.64648687099907,None,,,,,,,,,,,,,,,,,,,,,,,,,,,,,,,,,,,,,,,,,,,,001,63,2020_Feb_04_1215,spring_faces,3.1.5,60.04067070957856,
condition files/Stage0c_2.xlsx,0c,phi,alpha,h,"['h', 'g']","['Chess', 'Go']","[-0.15, 0.5]","[0.15, 0.5]",1,1,0,13,13,13,0,2,2,1,,,,,,,,,,,,,,,,,,,,,,,,,,,,,,,,,,,,,,,,,,,,,,,,,,,,,,,,,,,,,,,288.61316415999863,None,288.61316415999863,None,288.61316415999863,None,h,1,0.7477648189997126,290.1468144699993,None,290.1468144699993,None,290.1468144699993,None,290.9469639919989,None,290.9469639919989,None,290.9469639919989,None,290.9469639919989,None,,,,,,,,,,,,,,,,,,,,,,,,,,,,,,,,,,,,,,,,,,,,001,63,2020_Feb_04_1215,spring_faces,3.1.5,60.04067070957856,
condition files/Stage0c_2.xlsx,0c,beta,phi,g,"['h', 'g']","['Chess', 'Go']","[-0.15, 0.5]","[0.15, 0.5]",1,1,0,13,13,13,0,3,3,3,,,,,,,,,,,,,,,,,,,,,,,,,,,,,,,,,,,,,,,,,,,,,,,,,,,,,,,,,,,,,,,292.9128303359994,None,292.9128303359994,None,292.9128303359994,None,g,1,0.4475626250005007,294.4470285839998,None,294.4470285839998,None,294.4470285839998,None,294.9465871470002,None,294.9465871470002,None,294.9465871470002,None,294.9465871470002,None,,,,,,,,,,,,,,,,,,,,,,,,,,,,,,,,,,,,,,,,,,,,001,63,2020_Feb_04_1215,spring_faces,3.1.5,60.04067070957856,
condition files/Stage0c_1.xlsx,0c,beta,theta,g,"['h', 'g']","['Chess', 'Go']","[-0.15, 0.5]","[0.15, 0.5]",1,1,0,14,14,14,0,0,0,2,,,,,,,,,,,,,,,,,,,,,,,,,,,,,,,,,,,,,,,,,,,,,,,,,,,,,,,,,,,,,,,296.9298547439994,None,296.9298547439994,None,296.9298547439994,None,g,1,2.1915797920009936,298.463087397,None,298.463087397,None,298.463087397,None,300.6978314409989,None,300.6978314409989,None,300.6978314409989,None,300.6978314409989,None,,,,,,,,,,,,,,,,,,,,,,,,,,,,,,,,,,,,,,,,,,,,001,63,2020_Feb_04_1215,spring_faces,3.1.5,60.04067070957856,
condition files/Stage0c_1.xlsx,0c,theta,alpha,h,"['h', 'g']","['Chess', 'Go']","[-0.15, 0.5]","[0.15, 0.5]",1,1,0,14,14,14,0,1,1,0,,,,,,,,,,,,,,,,,,,,,,,,,,,,,,,,,,,,,,,,,,,,,,,,,,,,,,,,,,,,,,,302.68013240399887,None,302.68013240399887,None,302.68013240399887,None,h,1,0.9219385489996057,304.2126575019993,None,304.2126575019993,None,304.2126575019993,None,305.196525202,None,305.196525202,None,305.196525202,None,305.196525202,None,,,,,,,,,,,,,,,,,,,,,,,,,,,,,,,,,,,,,,,,,,,,001,63,2020_Feb_04_1215,spring_faces,3.1.5,60.04067070957856,
condition files/Stage0c_1.xlsx,0c,phi,beta,g,"['h', 'g']","['Chess', 'Go']","[-0.15, 0.5]","[0.15, 0.5]",1,1,0,14,14,14,0,2,2,3,,,,,,,,,,,,,,,,,,,,,,,,,,,,,,,,,,,,,,,,,,,,,,,,,,,,,,,,,,,,,,,307.1631391009996,None,307.1631391009996,None,307.1631391009996,None,g,1,0.7897580739991099,308.69677139399937,None,308.69677139399937,None,308.69677139399937,None,309.5467677669985,None,309.5467677669985,None,309.5467677669985,None,309.5467677669985,None,,,,,,,,,,,,,,,,,,,,,,,,,,,,,,,,,,,,,,,,,,,,001,63,2020_Feb_04_1215,spring_faces,3.1.5,60.04067070957856,
condition files/Stage0c_1.xlsx,0c,alpha,phi,h,"['h', 'g']","['Chess', 'Go']","[-0.15, 0.5]","[0.15, 0.5]",1,1,0,14,14,14,0,3,3,1,,,,,,,,,,,,,,,,,,,,,,,,,,,,,,,,,,,,,,,,,,,,,,,,,,,,,,,,,,,,,,,311.51288906099944,None,311.51288906099944,None,311.51288906099944,None,h,1,0.968048885000826,313.0465169509989,None,313.0465169509989,None,313.0465169509989,None,314.0803171689986,None,314.0803171689986,None,314.0803171689986,None,314.0803171689986,None,,,,,,,,,,,,,,,,,,,,,,,,,,,,,,,,,,,,,,,,,,,,001,63,2020_Feb_04_1215,spring_faces,3.1.5,60.04067070957856,
condition files/Stage0c_2.xlsx,0c,phi,alpha,h,"['h', 'g']","['Chess', 'Go']","[-0.15, 0.5]","[0.15, 0.5]",1,1,0,15,15,15,0,0,0,1,,,,,,,,,,,,,,,,,,,,,,,,,,,,,,,,,,,,,,,,,,,,,,,,,,,,,,,,,,,,,,,316.0635987099995,None,316.0635987099995,None,316.0635987099995,None,h,1,0.9459079410007689,317.5966583059999,None,317.5966583059999,None,317.5966583059999,None,318.5824923299988,None,318.5824923299988,None,318.5824923299988,None,318.5824923299988,None,,,,,,,,,,,,,,,,,,,,,,,,,,,,,,,,,,,,,,,,,,,,001,63,2020_Feb_04_1215,spring_faces,3.1.5,60.04067070957856,
condition files/Stage0c_2.xlsx,0c,alpha,theta,h,"['h', 'g']","['Chess', 'Go']","[-0.15, 0.5]","[0.15, 0.5]",1,1,0,15,15,15,0,1,1,0,,,,,,,,,,,,,,,,,,,,,,,,,,,,,,,,,,,,,,,,,,,,,,,,,,,,,,,,,,,,,,,320.56307494799876,None,320.56307494799876,None,320.56307494799876,None,h,1,1.2305564300004335,322.0960721579995,None,322.0960721579995,None,322.0960721579995,None,323.36420727899895,None,323.36420727899895,None,323.36420727899895,None,323.36420727899895,None,,,,,,,,,,,,,,,,,,,,,,,,,,,,,,,,,,,,,,,,,,,,001,63,2020_Feb_04_1215,spring_faces,3.1.5,60.04067070957856,
condition files/Stage0c_2.xlsx,0c,theta,beta,g,"['h', 'g']","['Chess', 'Go']","[-0.15, 0.5]","[0.15, 0.5]",1,1,0,15,15,15,0,2,2,2,,,,,,,,,,,,,,,,,,,,,,,,,,,,,,,,,,,,,,,,,,,,,,,,,,,,,,,,,,,,,,,325.3465005399994,None,325.3465005399994,None,325.3465005399994,None,g,1,1.2791092609986663,326.87946615999863,None,326.87946615999863,None,326.87946615999863,None,328.2127258519995,None,328.2127258519995,None,328.2127258519995,None,328.2127258519995,None,,,,,,,,,,,,,,,,,,,,,,,,,,,,,,,,,,,,,,,,,,,,001,63,2020_Feb_04_1215,spring_faces,3.1.5,60.04067070957856,
condition files/Stage0c_2.xlsx,0c,beta,phi,g,"['h', 'g']","['Chess', 'Go']","[-0.15, 0.5]","[0.15, 0.5]",1,1,0,15,15,15,0,3,3,3,,,,,,,,,,,,,,,,,,,,,,,,,,,,,,,,,,,,,,,,,,,,,,,,,,,,,,,,,,,,,,,330.1797949289994,None,330.1797949289994,None,330.1797949289994,None,g,1,1.3412450430005265,331.7134036089992,None,331.7134036089992,None,331.7134036089992,None,333.1134366030001,None,333.1134366030001,None,333.1134366030001,None,333.1134366030001,None,,,,,,,,,,,,,,,,,,,,,,,,,,,,,,,,,,,,,,,,,,,,001,63,2020_Feb_04_1215,spring_faces,3.1.5,60.04067070957856,
condition files/Stage0c_1.xlsx,0c,phi,beta,g,"['h', 'g']","['Chess', 'Go']","[-0.15, 0.5]","[0.15, 0.5]",1,1,0,16,16,16,0,0,0,3,,,,,,,,,,,,,,,,,,,,,,,,,,,,,,,,,,,,,,,,,,,,,,,,,,,,,,,,,,,,,,,335.0964897419999,None,335.0964897419999,None,335.0964897419999,None,g,1,0.9525695590000396,336.6300309549988,None,336.6300309549988,None,336.6300309549988,None,337.63112241399904,None,337.63112241399904,None,337.63112241399904,None,337.63112241399904,None,,,,,,,,,,,,,,,,,,,,,,,,,,,,,,,,,,,,,,,,,,,,001,63,2020_Feb_04_1215,spring_faces,3.1.5,60.04067070957856,
condition files/Stage0c_1.xlsx,0c,theta,alpha,h,"['h', 'g']","['Chess', 'Go']","[-0.15, 0.5]","[0.15, 0.5]",1,1,0,16,16,16,0,1,1,0,,,,,,,,,,,,,,,,,,,,,,,,,,,,,,,,,,,,,,,,,,,,,,,,,,,,,,,,,,,,,,,339.61312214899954,None,339.61312214899954,None,339.61312214899954,None,h,1,0.5960336759999336,341.14652170499903,None,341.14652170499903,None,341.14652170499903,None,341.7967018979998,None,341.7967018979998,None,341.7967018979998,None,341.7967018979998,None,,,,,,,,,,,,,,,,,,,,,,,,,,,,,,,,,,,,,,,,,,,,001,63,2020_Feb_04_1215,spring_faces,3.1.5,60.04067070957856,
condition files/Stage0c_1.xlsx,0c,beta,theta,g,"['h', 'g']","['Chess', 'Go']","[-0.15, 0.5]","[0.15, 0.5]",1,1,0,16,16,16,0,2,2,2,,,,,,,,,,,,,,,,,,,,,,,,,,,,,,,,,,,,,,,,,,,,,,,,,,,,,,,,,,,,,,,343.7631643579989,None,343.7631643579989,None,343.7631643579989,None,g,1,0.7664331140003924,345.2961503909992,None,345.2961503909992,None,345.2961503909992,None,346.1131325999995,None,346.1131325999995,None,346.1131325999995,None,346.1131325999995,None,,,,,,,,,,,,,,,,,,,,,,,,,,,,,,,,,,,,,,,,,,,,001,63,2020_Feb_04_1215,spring_faces,3.1.5,60.04067070957856,
condition files/Stage0c_1.xlsx,0c,alpha,phi,h,"['h', 'g']","['Chess', 'Go']","[-0.15, 0.5]","[0.15, 0.5]",1,1,0,16,16,16,0,3,3,1,,,,,,,,,,,,,,,,,,,,,,,,,,,,,,,,,,,,,,,,,,,,,,,,,,,,,,,,,,,,,,,348.0798833809986,None,348.0798833809986,None,348.0798833809986,None,h,1,0.6892397779993189,349.61336276099973,None,349.61336276099973,None,349.61336276099973,None,350.3626428589996,None,350.3626428589996,None,350.3626428589996,None,350.3626428589996,None,,,,,,,,,,,,,,,,,,,,,,,,,,,,,,,,,,,,,,,,,,,,001,63,2020_Feb_04_1215,spring_faces,3.1.5,60.04067070957856,
condition files/Stage0c_2.xlsx,0c,alpha,theta,h,"['h', 'g']","['Chess', 'Go']","[-0.15, 0.5]","[0.15, 0.5]",1,1,0,17,17,17,0,0,0,0,,,,,,,,,,,,,,,,,,,,,,,,,,,,,,,,,,,,,,,,,,,,,,,,,,,,,,,,,,,,,,,352.34683672199935,None,352.34683672199935,None,352.34683672199935,None,h,1,0.7907813439996971,353.8798849909999,None,353.8798849909999,None,353.8798849909999,None,354.71510635699997,None,354.71510635699997,None,354.71510635699997,None,354.71510635699997,None,,,,,,,,,,,,,,,,,,,,,,,,,,,,,,,,,,,,,,,,,,,,001,63,2020_Feb_04_1215,spring_faces,3.1.5,60.04067070957856,
condition files/Stage0c_2.xlsx,0c,phi,alpha,h,"['h', 'g']","['Chess', 'Go']","[-0.15, 0.5]","[0.15, 0.5]",1,1,0,17,17,17,0,1,1,1,,,,,,,,,,,,,,,,,,,,,,,,,,,,,,,,,,,,,,,,,,,,,,,,,,,,,,,,,,,,,,,356.6961732439995,None,356.6961732439995,None,356.6961732439995,None,h,1,0.8406133459993725,358.23004297199986,None,358.23004297199986,None,358.23004297199986,None,359.11428275099934,None,359.11428275099934,None,359.11428275099934,None,359.11428275099934,None,,,,,,,,,,,,,,,,,,,,,,,,,,,,,,,,,,,,,,,,,,,,001,63,2020_Feb_04_1215,spring_faces,3.1.5,60.04067070957856,
condition files/Stage0c_2.xlsx,0c,beta,phi,g,"['h', 'g']","['Chess', 'Go']","[-0.15, 0.5]","[0.15, 0.5]",1,1,0,17,17,17,0,2,2,3,,,,,,,,,,,,,,,,,,,,,,,,,,,,,,,,,,,,,,,,,,,,,,,,,,,,,,,,,,,,,,,361.09590640999886,None,361.09590640999886,None,361.09590640999886,None,g,1,0.7768024979995971,362.6298424389988,None,362.6298424389988,None,362.6298424389988,None,363.463396060999,None,363.463396060999,None,363.463396060999,None,363.463396060999,None,,,,,,,,,,,,,,,,,,,,,,,,,,,,,,,,,,,,,,,,,,,,001,63,2020_Feb_04_1215,spring_faces,3.1.5,60.04067070957856,
condition files/Stage0c_2.xlsx,0c,theta,beta,g,"['h', 'g']","['Chess', 'Go']","[-0.15, 0.5]","[0.15, 0.5]",1,1,0,17,17,17,0,3,3,2,,,,,,,,,,,,,,,,,,,,,,,,,,,,,,,,,,,,,,,,,,,,,,,,,,,,,,,,,,,,,,,365.4296449119993,None,365.4296449119993,None,365.4296449119993,None,g,1,0.9878934479984309,366.9627067299989,None,366.9627067299989,None,366.9627067299989,None,368.01302809299887,None,368.01302809299887,None,368.01302809299887,None,368.01302809299887,None,,,,,,,,,,,,,,,,,,,,,,,,,,,,,,,,,,,,,,,,,,,,001,63,2020_Feb_04_1215,spring_faces,3.1.5,60.04067070957856,
,,,,,,,,,,,,,,,,,,,,,,,,,,,,,,,,,,,,,,,,,,,,,,,,,,,,,,,,,,,,,,,,,,,,,,,,,,,,,,,,,,,,,,,,,,,,,,,,,,,,,,,,369.9966438679985,None,space,2.2019660450005176,374.9966021169985,None,,,,,,,,,,,,,,,,,,,,,,,,,,,,,,,,,,,,,,001,63,2020_Feb_04_1215,spring_faces,3.1.5,60.04067070957856,
condition files/Stage1_1.xlsx,,B1,T2,c,"['c', 'm']","['Clue', 'Monopoly']","[-0.15, 0.5]","[0.15, 0.5]",1,1,,,,,,,,,0,0,0,0,0,0,0,1,,,,,,,,,,,,,,,,,,,,,,,,,,,,,,,,,,,,,,,,,,,,,,,,,,,,,,,377.26346561099854,None,377.26346561099854,None,377.26346561099854,None,c,1,1.121953552999912,378.79665891999866,None,378.79665891999866,None,378.79665891999866,None,379.99666221699954,None,379.99666221699954,None,379.99666221699954,None,379.99666221699954,None,,,,,,,374.9966021169985,None,,,,,,,,,,,,,,,,,,,,,,,,,,,,,,,,,,,,001,63,2020_Feb_04_1215,spring_faces,3.1.5,60.04067070957856,
condition files/Stage1_1.xlsx,,B4,T4,m,"['c', 'm']","['Clue', 'Monopoly']","[-0.15, 0.5]","[0.15, 0.5]",1,1,,,,,,,,,0,0,0,0,0,1,1,7,,,,,,,,,,,,,,,,,,,,,,,,,,,,,,,,,,,,,,,,,,,,,,,,,,,,,,,381.94646332699995,None,381.94646332699995,None,381.94646332699995,None,m,1,0.8707712550003635,383.47982407699965,None,383.47982407699965,None,383.47982407699965,None,384.41616166399945,None,384.41616166399945,None,384.41616166399945,None,384.41616166399945,None,,,,,,,,,,,,,,,,,,,,,,,,,,,,,,,,,,,,,,,,,,,,001,63,2020_Feb_04_1215,spring_faces,3.1.5,60.04067070957856,
condition files/Stage1_1.xlsx,,T2,B2,m,"['c', 'm']","['Clue', 'Monopoly']","[-0.15, 0.5]","[0.15, 0.5]",1,1,,,,,,,,,0,0,0,0,0,2,2,3,,,,,,,,,,,,,,,,,,,,,,,,,,,,,,,,,,,,,,,,,,,,,,,,,,,,,,,386.38006094499906,None,386.38006094499906,None,386.38006094499906,None,c,0,0.5169416230000934,387.91361806499845,None,387.91361806499845,None,387.91361806499845,None,388.4969464810001,None,388.4969464810001,None,388.4969464810001,None,388.4969464810001,None,,,,,,,,,,,,,,,,,,,,,,,,,,,,,,,,,,,,,,,,,,,,001,63,2020_Feb_04_1215,spring_faces,3.1.5,60.04067070957856,
condition files/Stage1_1.xlsx,,B3,T3,c,"['c', 'm']","['Clue', 'Monopoly']","[-0.15, 0.5]","[0.15, 0.5]",1,1,,,,,,,,,0,0,0,0,0,3,3,4,,,,,,,,,,,,,,,,,,,,,,,,,,,,,,,,,,,,,,,,,,,,,,,,,,,,,,,390.46315825999955,None,390.46315825999955,None,390.46315825999955,None,c,1,1.0879175539994321,392.04667448799955,None,392.04667448799955,None,392.04667448799955,None,393.1977070599987,None,393.1977070599987,None,393.1977070599987,None,393.1977070599987,None,,,,,,,,,,,,,,,,,,,,,,,,,,,,,,,,,,,,,,,,,,,,001,63,2020_Feb_04_1215,spring_faces,3.1.5,60.04067070957856,
condition files/Stage1_1.xlsx,,T4,B3,m,"['c', 'm']","['Clue', 'Monopoly']","[-0.15, 0.5]","[0.15, 0.5]",1,1,,,,,,,,,0,0,0,0,0,4,4,6,,,,,,,,,,,,,,,,,,,,,,,,,,,,,,,,,,,,,,,,,,,,,,,,,,,,,,,395.16315955199934,None,395.16315955199934,None,395.16315955199934,None,c,0,1.5261038779990486,396.69659271099954,None,396.69659271099954,None,396.69659271099954,None,398.29660174999844,None,398.29660174999844,None,398.29660174999844,None,398.29660174999844,None,,,,,,,,,,,,,,,,,,,,,,,,,,,,,,,,,,,,,,,,,,,,001,63,2020_Feb_04_1215,spring_faces,3.1.5,60.04067070957856,
condition files/Stage1_1.xlsx,,T1,B1,c,"['c', 'm']","['Clue', 'Monopoly']","[-0.15, 0.5]","[0.15, 0.5]",1,1,,,,,,,,,0,0,0,0,0,5,5,0,,,,,,,,,,,,,,,,,,,,,,,,,,,,,,,,,,,,,,,,,,,,,,,,,,,,,,,400.2465569349988,None,400.2465569349988,None,400.2465569349988,None,m,0,1.7069275149988243,401.77973503700014,None,401.77973503700014,None,401.77973503700014,None,403.54780547299924,None,403.54780547299924,None,403.54780547299924,None,403.54780547299924,None,,,,,,,,,,,,,,,,,,,,,,,,,,,,,,,,,,,,,,,,,,,,001,63,2020_Feb_04_1215,spring_faces,3.1.5,60.04067070957856,
condition files/Stage1_1.xlsx,,B2,T1,m,"['c', 'm']","['Clue', 'Monopoly']","[-0.15, 0.5]","[0.15, 0.5]",1,1,,,,,,,,,0,0,0,0,0,6,6,2,,,,,,,,,,,,,,,,,,,,,,,,,,,,,,,,,,,,,,,,,,,,,,,,,,,,,,,405.51361419099885,None,405.51361419099885,None,405.51361419099885,None,m,1,2.568135115001496,407.0464551639998,None,407.0464551639998,None,407.0464551639998,None,409.6819548659987,None,409.6819548659987,None,409.6819548659987,None,409.6819548659987,None,,,,,,,,,,,,,,,,,,,,,,,,,,,,,,,,,,,,,,,,,,,,001,63,2020_Feb_04_1215,spring_faces,3.1.5,60.04067070957856,
condition files/Stage1_1.xlsx,,T3,B4,c,"['c', 'm']","['Clue', 'Monopoly']","[-0.15, 0.5]","[0.15, 0.5]",1,1,,,,,,,,,0,0,0,0,0,7,7,5,,,,,,,,,,,,,,,,,,,,,,,,,,,,,,,,,,,,,,,,,,,,,,,,,,,,,,,411.6465496919991,None,411.6465496919991,None,411.6465496919991,None,c,1,1.4734301759999653,413.18124305999845,None,413.18124305999845,None,413.18124305999845,None,414.7128327749997,None,414.7128327749997,None,414.7128327749997,None,414.7128327749997,None,,,,,,,,,,,,,,,,,,,,,,,,,,,,,,,,,,,,,,,,,,,,001,63,2020_Feb_04_1215,spring_faces,3.1.5,60.04067070957856,
condition files/Stage1_2.xlsx,,T4,B4,m,"['c', 'm']","['Clue', 'Monopoly']","[-0.15, 0.5]","[0.15, 0.5]",1,1,,,,,,,,,0,1,1,1,0,0,0,7,,,,,,,,,,,,,,,,,,,,,,,,,,,,,,,,,,,,,,,,,,,,,,,,,,,,,,,416.6967931119998,None,416.6967931119998,None,416.6967931119998,None,m,1,1.8330997250013752,418.2295485229988,None,418.2295485229988,None,418.2295485229988,None,420.1163345240002,None,420.1163345240002,None,420.1163345240002,None,420.1163345240002,None,,,,,,,,,,,,,,,,,,,,,,,,,,,,,,,,,,,,,,,,,,,,001,63,2020_Feb_04_1215,spring_faces,3.1.5,60.04067070957856,
condition files/Stage1_2.xlsx,,B2,T2,m,"['c', 'm']","['Clue', 'Monopoly']","[-0.15, 0.5]","[0.15, 0.5]",1,1,,,,,,,,,0,1,1,1,0,1,1,3,,,,,,,,,,,,,,,,,,,,,,,,,,,,,,,,,,,,,,,,,,,,,,,,,,,,,,,422.0797656809991,None,422.0797656809991,None,422.0797656809991,None,c,0,1.8242154569998092,423.61445614399963,None,423.61445614399963,None,423.61445614399963,None,425.4965815329997,None,425.4965815329997,None,425.4965815329997,None,425.4965815329997,None,,,,,,,,,,,,,,,,,,,,,,,,,,,,,,,,,,,,,,,,,,,,001,63,2020_Feb_04_1215,spring_faces,3.1.5,60.04067070957856,
condition files/Stage1_2.xlsx,,B1,T1,c,"['c', 'm']","['Clue', 'Monopoly']","[-0.15, 0.5]","[0.15, 0.5]",1,1,,,,,,,,,0,1,1,1,0,2,2,0,,,,,,,,,,,,,,,,,,,,,,,,,,,,,,,,,,,,,,,,,,,,,,,,,,,,,,,427.46313196699884,None,427.46313196699884,None,427.46313196699884,None,m,0,1.4009745319999638,429.0135899249999,None,429.0135899249999,None,429.0135899249999,None,430.49676418999843,None,430.49676418999843,None,430.49676418999843,None,430.49676418999843,None,,,,,,,,,,,,,,,,,,,,,,,,,,,,,,,,,,,,,,,,,,,,001,63,2020_Feb_04_1215,spring_faces,3.1.5,60.04067070957856,
condition files/Stage1_2.xlsx,,T1,B2,m,"['c', 'm']","['Clue', 'Monopoly']","[-0.15, 0.5]","[0.15, 0.5]",1,1,,,,,,,,,0,1,1,1,0,3,3,2,,,,,,,,,,,,,,,,,,,,,,,,,,,,,,,,,,,,,,,,,,,,,,,,,,,,,,,432.44595005599876,None,432.44595005599876,None,432.44595005599876,None,m,1,1.1065219299998716,433.99612889799937,None,433.99612889799937,None,433.99612889799937,None,435.1637386739985,None,435.1637386739985,None,435.1637386739985,None,435.1637386739985,None,,,,,,,,,,,,,,,,,,,,,,,,,,,,,,,,,,,,,,,,,,,,001,63,2020_Feb_04_1215,spring_faces,3.1.5,60.04067070957856,
condition files/Stage1_2.xlsx,,B4,T3,c,"['c', 'm']","['Clue', 'Monopoly']","[-0.15, 0.5]","[0.15, 0.5]",1,1,,,,,,,,,0,1,1,1,0,4,4,5,,,,,,,,,,,,,,,,,,,,,,,,,,,,,,,,,,,,,,,,,,,,,,,,,,,,,,,437.129901196,None,437.129901196,None,437.129901196,None,c,1,1.4778610829998797,438.66475990899926,None,438.66475990899926,None,438.66475990899926,None,440.1975555359986,None,440.1975555359986,None,440.1975555359986,None,440.1975555359986,None,,,,,,,,,,,,,,,,,,,,,,,,,,,,,,,,,,,,,,,,,,,,001,63,2020_Feb_04_1215,spring_faces,3.1.5,60.04067070957856,
condition files/Stage1_2.xlsx,,T2,B1,c,"['c', 'm']","['Clue', 'Monopoly']","[-0.15, 0.5]","[0.15, 0.5]",1,1,,,,,,,,,0,1,1,1,0,5,5,1,,,,,,,,,,,,,,,,,,,,,,,,,,,,,,,,,,,,,,,,,,,,,,,,,,,,,,,442.1628199739989,None,442.1628199739989,None,442.1628199739989,None,m,0,2.6052746850000403,443.7133236239988,None,443.7133236239988,None,443.7133236239988,None,446.37952137999855,None,446.37952137999855,None,446.37952137999855,None,446.37952137999855,None,,,,,,,,,,,,,,,,,,,,,,,,,,,,,,,,,,,,,,,,,,,,001,63,2020_Feb_04_1215,spring_faces,3.1.5,60.04067070957856,
condition files/Stage1_2.xlsx,,T3,B3,c,"['c', 'm']","['Clue', 'Monopoly']","[-0.15, 0.5]","[0.15, 0.5]",1,1,,,,,,,,,0,1,1,1,0,6,6,4,,,,,,,,,,,,,,,,,,,,,,,,,,,,,,,,,,,,,,,,,,,,,,,,,,,,,,,448.34649281899874,None,448.34649281899874,None,448.34649281899874,None,c,1,1.6070954400001938,449.87958022099883,None,449.87958022099883,None,449.87958022099883,None,451.54677730299954,None,451.54677730299954,None,451.54677730299954,None,451.54677730299954,None,,,,,,,,,,,,,,,,,,,,,,,,,,,,,,,,,,,,,,,,,,,,001,63,2020_Feb_04_1215,spring_faces,3.1.5,60.04067070957856,
condition files/Stage1_2.xlsx,,B3,T4,m,"['c', 'm']","['Clue', 'Monopoly']","[-0.15, 0.5]","[0.15, 0.5]",1,1,,,,,,,,,0,1,1,1,0,7,7,6,,,,,,,,,,,,,,,,,,,,,,,,,,,,,,,,,,,,,,,,,,,,,,,,,,,,,,,453.51316946599945,None,453.51316946599945,None,453.51316946599945,None,m,1,5.144270175998827,455.04640149199986,None,455.04640149199986,None,455.04640149199986,None,460.24741277799876,None,460.24741277799876,None,460.24741277799876,None,460.24741277799876,None,,,,,,,,,,,,,,,,,,,,,,,,,,,,,,,,,,,,,,,,,,,,001,63,2020_Feb_04_1215,spring_faces,3.1.5,60.04067070957856,
condition files/Stage1_1.xlsx,,B3,T3,c,"['c', 'm']","['Clue', 'Monopoly']","[-0.15, 0.5]","[0.15, 0.5]",1,1,,,,,,,,,0,2,2,2,0,0,0,4,,,,,,,,,,,,,,,,,,,,,,,,,,,,,,,,,,,,,,,,,,,,,,,,,,,,,,,462.22964441399927,None,462.22964441399927,None,462.22964441399927,None,c,1,1.6427056169995922,463.77999852299945,None,463.77999852299945,None,463.77999852299945,None,465.4965211189992,None,465.4965211189992,None,465.4965211189992,None,465.4965211189992,None,,,,,,,,,,,,,,,,,,,,,,,,,,,,,,,,,,,,,,,,,,,,001,63,2020_Feb_04_1215,spring_faces,3.1.5,60.04067070957856,
condition files/Stage1_1.xlsx,,T2,B2,m,"['c', 'm']","['Clue', 'Monopoly']","[-0.15, 0.5]","[0.15, 0.5]",1,1,,,,,,,,,0,2,2,2,0,1,1,3,,,,,,,,,,,,,,,,,,,,,,,,,,,,,,,,,,,,,,,,,,,,,,,,,,,,,,,467.4464034149987,None,467.4464034149987,None,467.4464034149987,None,m,1,2.569983366998713,468.99661425199884,None,468.99661425199884,None,468.99661425199884,None,471.6307297659987,None,471.6307297659987,None,471.6307297659987,None,471.6307297659987,None,,,,,,,,,,,,,,,,,,,,,,,,,,,,,,,,,,,,,,,,,,,,001,63,2020_Feb_04_1215,spring_faces,3.1.5,60.04067070957856,
condition files/Stage1_1.xlsx,,T1,B1,c,"['c', 'm']","['Clue', 'Monopoly']","[-0.15, 0.5]","[0.15, 0.5]",1,1,,,,,,,,,0,2,2,2,0,2,2,0,,,,,,,,,,,,,,,,,,,,,,,,,,,,,,,,,,,,,,,,,,,,,,,,,,,,,,,473.5962619490001,None,473.5962619490001,None,473.5962619490001,None,c,1,1.0606556500006263,475.1300299779996,None,475.1300299779996,None,475.1300299779996,None,476.2636735420001,None,476.2636735420001,None,476.2636735420001,None,476.2636735420001,None,,,,,,,,,,,,,,,,,,,,,,,,,,,,,,,,,,,,,,,,,,,,001,63,2020_Feb_04_1215,spring_faces,3.1.5,60.04067070957856,
condition files/Stage1_1.xlsx,,B1,T2,c,"['c', 'm']","['Clue', 'Monopoly']","[-0.15, 0.5]","[0.15, 0.5]",1,1,,,,,,,,,0,2,2,2,0,3,3,1,,,,,,,,,,,,,,,,,,,,,,,,,,,,,,,,,,,,,,,,,,,,,,,,,,,,,,,478.213111989,None,478.213111989,None,478.213111989,None,m,0,1.2737578250016668,479.7489493309986,None,479.7489493309986,None,479.7489493309986,None,481.0799807200001,None,481.0799807200001,None,481.0799807200001,None,481.0799807200001,None,,,,,,,,,,,,,,,,,,,,,,,,,,,,,,,,,,,,,,,,,,,,001,63,2020_Feb_04_1215,spring_faces,3.1.5,60.04067070957856,
condition files/Stage1_1.xlsx,,B4,T4,m,"['c', 'm']","['Clue', 'Monopoly']","[-0.15, 0.5]","[0.15, 0.5]",1,1,,,,,,,,,0,2,2,2,0,4,4,7,,,,,,,,,,,,,,,,,,,,,,,,,,,,,,,,,,,,,,,,,,,,,,,,,,,,,,,483.04654396299884,None,483.04654396299884,None,483.04654396299884,None,c,0,1.8332101079995482,484.5814122060001,None,484.5814122060001,None,484.5814122060001,None,486.47936132999894,None,486.47936132999894,None,486.47936132999894,None,486.47936132999894,None,,,,,,,,,,,,,,,,,,,,,,,,,,,,,,,,,,,,,,,,,,,,001,63,2020_Feb_04_1215,spring_faces,3.1.5,60.04067070957856,
condition files/Stage1_1.xlsx,,T3,B4,c,"['c', 'm']","['Clue', 'Monopoly']","[-0.15, 0.5]","[0.15, 0.5]",1,1,,,,,,,,,0,2,2,2,0,5,5,5,,,,,,,,,,,,,,,,,,,,,,,,,,,,,,,,,,,,,,,,,,,,,,,,,,,,,,,488.4464936629993,None,488.4464936629993,None,488.4464936629993,None,m,0,1.666910893000022,489.9796783900001,None,489.9796783900001,None,489.9796783900001,None,491.69906809499844,None,491.69906809499844,None,491.69906809499844,None,491.69906809499844,None,,,,,,,,,,,,,,,,,,,,,,,,,,,,,,,,,,,,,,,,,,,,001,63,2020_Feb_04_1215,spring_faces,3.1.5,60.04067070957856,
condition files/Stage1_1.xlsx,,B2,T1,m,"['c', 'm']","['Clue', 'Monopoly']","[-0.15, 0.5]","[0.15, 0.5]",1,1,,,,,,,,,0,2,2,2,0,6,6,2,,,,,,,,,,,,,,,,,,,,,,,,,,,,,,,,,,,,,,,,,,,,,,,,,,,,,,,493.6629609829997,None,493.6629609829997,None,493.6629609829997,None,m,1,1.457363281000653,495.2132903410002,None,495.2132903410002,None,495.2132903410002,None,496.7463941049991,None,496.7463941049991,None,496.7463941049991,None,496.7463941049991,None,,,,,,,,,,,,,,,,,,,,,,,,,,,,,,,,,,,,,,,,,,,,001,63,2020_Feb_04_1215,spring_faces,3.1.5,60.04067070957856,
condition files/Stage1_1.xlsx,,T4,B3,m,"['c', 'm']","['Clue', 'Monopoly']","[-0.15, 0.5]","[0.15, 0.5]",1,1,,,,,,,,,0,2,2,2,0,7,7,6,,,,,,,,,,,,,,,,,,,,,,,,,,,,,,,,,,,,,,,,,,,,,,,,,,,,,,,498.69609184899855,None,498.69609184899855,None,498.69609184899855,None,c,0,2.9205151530004514,500.2300961769997,None,500.2300961769997,None,500.2300961769997,None,503.21326025599956,None,503.21326025599956,None,503.21326025599956,None,503.21326025599956,None,,,,,,,,,,,,,,,,,,,,,,,,,,,,,,,,,,,,,,,,,,,,001,63,2020_Feb_04_1215,spring_faces,3.1.5,60.04067070957856,
condition files/Stage1_2.xlsx,,B3,T4,m,"['c', 'm']","['Clue', 'Monopoly']","[-0.15, 0.5]","[0.15, 0.5]",1,1,,,,,,,,,0,3,3,3,0,0,0,6,,,,,,,,,,,,,,,,,,,,,,,,,,,,,,,,,,,,,,,,,,,,,,,,,,,,,,,505.1968229659997,None,505.1968229659997,None,505.1968229659997,None,m,1,1.9863455699996848,506.73222898699896,None,506.73222898699896,None,506.73222898699896,None,508.78001862400015,None,508.78001862400015,None,508.78001862400015,None,508.78001862400015,None,,,,,,,,,,,,,,,,,,,,,,,,,,,,,,,,,,,,,,,,,,,,001,63,2020_Feb_04_1215,spring_faces,3.1.5,60.04067070957856,
condition files/Stage1_2.xlsx,,T1,B2,m,"['c', 'm']","['Clue', 'Monopoly']","[-0.15, 0.5]","[0.15, 0.5]",1,1,,,,,,,,,0,3,3,3,0,1,1,2,,,,,,,,,,,,,,,,,,,,,,,,,,,,,,,,,,,,,,,,,,,,,,,,,,,,,,,510.7464990999997,None,510.7464990999997,None,510.7464990999997,None,c,0,2.404244122999444,512.2824380749989,None,512.2824380749989,None,512.2824380749989,None,514.7467803290001,None,514.7467803290001,None,514.7467803290001,None,514.7467803290001,None,,,,,,,,,,,,,,,,,,,,,,,,,,,,,,,,,,,,,,,,,,,,001,63,2020_Feb_04_1215,spring_faces,3.1.5,60.04067070957856,
condition files/Stage1_2.xlsx,,B4,T3,c,"['c', 'm']","['Clue', 'Monopoly']","[-0.15, 0.5]","[0.15, 0.5]",1,1,,,,,,,,,0,3,3,3,0,2,2,5,,,,,,,,,,,,,,,,,,,,,,,,,,,,,,,,,,,,,,,,,,,,,,,,,,,,,,,516.713232692,None,516.713232692,None,516.713232692,None,m,0,1.5738890400007222,518.2488293419992,None,518.2488293419992,None,518.2488293419992,None,519.881627191,None,519.881627191,None,519.881627191,None,519.881627191,None,,,,,,,,,,,,,,,,,,,,,,,,,,,,,,,,,,,,,,,,,,,,001,63,2020_Feb_04_1215,spring_faces,3.1.5,60.04067070957856,
condition files/Stage1_2.xlsx,,B1,T1,c,"['c', 'm']","['Clue', 'Monopoly']","[-0.15, 0.5]","[0.15, 0.5]",1,1,,,,,,,,,0,3,3,3,0,3,3,0,,,,,,,,,,,,,,,,,,,,,,,,,,,,,,,,,,,,,,,,,,,,,,,,,,,,,,,521.8465337389989,None,521.8465337389989,None,521.8465337389989,None,c,1,2.9222262439998303,523.3803618999991,None,523.3803618999991,None,523.3803618999991,None,526.3649763369995,None,526.3649763369995,None,526.3649763369995,None,526.3649763369995,None,,,,,,,,,,,,,,,,,,,,,,,,,,,,,,,,,,,,,,,,,,,,001,63,2020_Feb_04_1215,spring_faces,3.1.5,60.04067070957856,
condition files/Stage1_2.xlsx,,T2,B1,c,"['c', 'm']","['Clue', 'Monopoly']","[-0.15, 0.5]","[0.15, 0.5]",1,1,,,,,,,,,0,3,3,3,0,4,4,1,,,,,,,,,,,,,,,,,,,,,,,,,,,,,,,,,,,,,,,,,,,,,,,,,,,,,,,528.329911114999,None,528.329911114999,None,528.329911114999,None,m,0,0.9827725449995341,529.8798137479989,None,529.8798137479989,None,529.8798137479989,None,530.9129881479985,None,530.9129881479985,None,530.9129881479985,None,530.9129881479985,None,,,,,,,,,,,,,,,,,,,,,,,,,,,,,,,,,,,,,,,,,,,,001,63,2020_Feb_04_1215,spring_faces,3.1.5,60.04067070957856,
condition files/Stage1_2.xlsx,,B2,T2,m,"['c', 'm']","['Clue', 'Monopoly']","[-0.15, 0.5]","[0.15, 0.5]",1,1,,,,,,,,,0,3,3,3,0,5,5,3,,,,,,,,,,,,,,,,,,,,,,,,,,,,,,,,,,,,,,,,,,,,,,,,,,,,,,,532.8798502640002,None,532.8798502640002,None,532.8798502640002,None,c,0,1.3924690269996063,534.4301981529989,None,534.4301981529989,None,534.4301981529989,None,535.896781857,None,535.896781857,None,535.896781857,None,535.896781857,None,,,,,,,,,,,,,,,,,,,,,,,,,,,,,,,,,,,,,,,,,,,,001,63,2020_Feb_04_1215,spring_faces,3.1.5,60.04067070957856,
condition files/Stage1_2.xlsx,,T3,B3,c,"['c', 'm']","['Clue', 'Monopoly']","[-0.15, 0.5]","[0.15, 0.5]",1,1,,,,,,,,,0,3,3,3,0,6,6,4,,,,,,,,,,,,,,,,,,,,,,,,,,,,,,,,,,,,,,,,,,,,,,,,,,,,,,,537.8460357089989,None,537.8460357089989,None,537.8460357089989,None,m,0,1.4344777520000207,539.3800424459987,None,539.3800424459987,None,539.3800424459987,None,540.881569997,None,540.881569997,None,540.881569997,None,540.881569997,None,,,,,,,,,,,,,,,,,,,,,,,,,,,,,,,,,,,,,,,,,,,,001,63,2020_Feb_04_1215,spring_faces,3.1.5,60.04067070957856,
condition files/Stage1_2.xlsx,,T4,B4,m,"['c', 'm']","['Clue', 'Monopoly']","[-0.15, 0.5]","[0.15, 0.5]",1,1,,,,,,,,,0,3,3,3,0,7,7,7,,,,,,,,,,,,,,,,,,,,,,,,,,,,,,,,,,,,,,,,,,,,,,,,,,,,,,,542.8464260359997,None,542.8464260359997,None,542.8464260359997,None,c,0,1.3292470390006201,544.3813612529993,None,544.3813612529993,None,544.3813612529993,None,545.76599799,None,545.76599799,None,545.76599799,None,545.76599799,None,,,,,,,,,,,,,,,,,,,,,,,,,,,,,,,,,,,,,,,,,,,,001,63,2020_Feb_04_1215,spring_faces,3.1.5,60.04067070957856,
condition files/Stage1_1.xlsx,,T3,B4,c,"['c', 'm']","['Clue', 'Monopoly']","[-0.15, 0.5]","[0.15, 0.5]",1,1,,,,,,,,,0,4,4,4,0,0,0,5,,,,,,,,,,,,,,,,,,,,,,,,,,,,,,,,,,,,,,,,,,,,,,,,,,,,,,,547.7461039680002,None,547.7461039680002,None,547.7461039680002,None,m,0,1.6284096780000255,549.2821925219996,None,549.2821925219996,None,549.2821925219996,None,550.9636746689994,None,550.9636746689994,None,550.9636746689994,None,550.9636746689994,None,,,,,,,,,,,,,,,,,,,,,,,,,,,,,,,,,,,,,,,,,,,,001,63,2020_Feb_04_1215,spring_faces,3.1.5,60.04067070957856,
condition files/Stage1_1.xlsx,,B2,T1,m,"['c', 'm']","['Clue', 'Monopoly']","[-0.15, 0.5]","[0.15, 0.5]",1,1,,,,,,,,,0,4,4,4,0,1,1,2,,,,,,,,,,,,,,,,,,,,,,,,,,,,,,,,,,,,,,,,,,,,,,,,,,,,,,,552.9298422379998,None,552.9298422379998,None,552.9298422379998,None,c,0,1.4856886100005795,554.4649294669998,None,554.4649294669998,None,554.4649294669998,None,556.0159310509989,None,556.0159310509989,None,556.0159310509989,None,556.0159310509989,None,,,,,,,,,,,,,,,,,,,,,,,,,,,,,,,,,,,,,,,,,,,,001,63,2020_Feb_04_1215,spring_faces,3.1.5,60.04067070957856,
condition files/Stage1_1.xlsx,,B1,T2,c,"['c', 'm']","['Clue', 'Monopoly']","[-0.15, 0.5]","[0.15, 0.5]",1,1,,,,,,,,,0,4,4,4,0,2,2,1,,,,,,,,,,,,,,,,,,,,,,,,,,,,,,,,,,,,,,,,,,,,,,,,,,,,,,,557.9798907529985,None,557.9798907529985,None,557.9798907529985,None,m,0,2.1015288480011804,559.5130542349998,None,559.5130542349998,None,559.5130542349998,None,561.6827229339997,None,561.6827229339997,None,561.6827229339997,None,561.6827229339997,None,,,,,,,,,,,,,,,,,,,,,,,,,,,,,,,,,,,,,,,,,,,,001,63,2020_Feb_04_1215,spring_faces,3.1.5,60.04067070957856,
condition files/Stage1_1.xlsx,,B4,T4,m,"['c', 'm']","['Clue', 'Monopoly']","[-0.15, 0.5]","[0.15, 0.5]",1,1,,,,,,,,,0,4,4,4,0,3,3,7,,,,,,,,,,,,,,,,,,,,,,,,,,,,,,,,,,,,,,,,,,,,,,,,,,,,,,,563.6466782159987,None,563.6466782159987,None,563.6466782159987,None,c,0,1.650706116000947,565.1798142070002,None,565.1798142070002,None,565.1798142070002,None,566.8972859869991,None,566.8972859869991,None,566.8972859869991,None,566.8972859869991,None,,,,,,,,,,,,,,,,,,,,,,,,,,,,,,,,,,,,,,,,,,,,001,63,2020_Feb_04_1215,spring_faces,3.1.5,60.04067070957856,
condition files/Stage1_1.xlsx,,B3,T3,c,"['c', 'm']","['Clue', 'Monopoly']","[-0.15, 0.5]","[0.15, 0.5]",1,1,,,,,,,,,0,4,4,4,0,4,4,4,,,,,,,,,,,,,,,,,,,,,,,,,,,,,,,,,,,,,,,,,,,,,,,,,,,,,,,568.8632812529995,None,568.8632812529995,None,568.8632812529995,None,c,1,1.71397463699941,570.3966333399985,None,570.3966333399985,None,570.3966333399985,None,572.1653385230002,None,572.1653385230002,None,572.1653385230002,None,572.1653385230002,None,,,,,,,,,,,,,,,,,,,,,,,,,,,,,,,,,,,,,,,,,,,,001,63,2020_Feb_04_1215,spring_faces,3.1.5,60.04067070957856,
condition files/Stage1_1.xlsx,,T1,B1,c,"['c', 'm']","['Clue', 'Monopoly']","[-0.15, 0.5]","[0.15, 0.5]",1,1,,,,,,,,,0,4,4,4,0,5,5,0,,,,,,,,,,,,,,,,,,,,,,,,,,,,,,,,,,,,,,,,,,,,,,,,,,,,,,,574.1300245559996,None,574.1300245559996,None,574.1300245559996,None,c,1,1.918992025000989,575.6636173179995,None,575.6636173179995,None,575.6636173179995,None,577.6464477319987,None,577.6464477319987,None,577.6464477319987,None,577.6464477319987,None,,,,,,,,,,,,,,,,,,,,,,,,,,,,,,,,,,,,,,,,,,,,001,63,2020_Feb_04_1215,spring_faces,3.1.5,60.04067070957856,
condition files/Stage1_1.xlsx,,T2,B2,m,"['c', 'm']","['Clue', 'Monopoly']","[-0.15, 0.5]","[0.15, 0.5]",1,1,,,,,,,,,0,4,4,4,0,6,6,3,,,,,,,,,,,,,,,,,,,,,,,,,,,,,,,,,,,,,,,,,,,,,,,,,,,,,,,579.6129461849996,None,579.6129461849996,None,579.6129461849996,None,m,1,1.8922387929997058,581.1464447069993,None,581.1464447069993,None,581.1464447069993,None,583.1131764879992,None,583.1131764879992,None,583.1131764879992,None,583.1131764879992,None,,,,,,,,,,,,,,,,,,,,,,,,,,,,,,,,,,,,,,,,,,,,001,63,2020_Feb_04_1215,spring_faces,3.1.5,60.04067070957856,
condition files/Stage1_1.xlsx,,T4,B3,m,"['c', 'm']","['Clue', 'Monopoly']","[-0.15, 0.5]","[0.15, 0.5]",1,1,,,,,,,,,0,4,4,4,0,7,7,6,,,,,,,,,,,,,,,,,,,,,,,,,,,,,,,,,,,,,,,,,,,,,,,,,,,,,,,585.0631593069993,None,585.0631593069993,None,585.0631593069993,None,c,0,2.1377321090003534,586.5968829419999,None,586.5968829419999,None,586.5968829419999,None,588.7965414310002,None,588.7965414310002,None,588.7965414310002,None,588.7965414310002,None,,,,,,,,,,,,,,,,,,,,,,,,,,,,,,,,,,,,,,,,,,,,001,63,2020_Feb_04_1215,spring_faces,3.1.5,60.04067070957856,
condition files/Stage1_2.xlsx,,B3,T4,m,"['c', 'm']","['Clue', 'Monopoly']","[-0.15, 0.5]","[0.15, 0.5]",1,1,,,,,,,,,0,5,5,5,0,0,0,6,,,,,,,,,,,,,,,,,,,,,,,,,,,,,,,,,,,,,,,,,,,,,,,,,,,,,,,590.7799760620001,None,590.7799760620001,None,590.7799760620001,None,c,0,2.371009379001407,592.3156756219996,None,592.3156756219996,None,592.3156756219996,None,594.7470441199985,None,594.7470441199985,None,594.7470441199985,None,594.7470441199985,None,,,,,,,,,,,,,,,,,,,,,,,,,,,,,,,,,,,,,,,,,,,,001,63,2020_Feb_04_1215,spring_faces,3.1.5,60.04067070957856,
condition files/Stage1_2.xlsx,,T2,B1,c,"['c', 'm']","['Clue', 'Monopoly']","[-0.15, 0.5]","[0.15, 0.5]",1,1,,,,,,,,,0,5,5,5,0,1,1,1,,,,,,,,,,,,,,,,,,,,,,,,,,,,,,,,,,,,,,,,,,,,,,,,,,,,,,,596.7127785550001,None,596.7127785550001,None,596.7127785550001,None,c,1,2.5838360040015687,598.2467520899991,None,598.2467520899991,None,598.2467520899991,None,600.8963484689993,None,600.8963484689993,None,600.8963484689993,None,600.8963484689993,None,,,,,,,,,,,,,,,,,,,,,,,,,,,,,,,,,,,,,,,,,,,,001,63,2020_Feb_04_1215,spring_faces,3.1.5,60.04067070957856,
condition files/Stage1_2.xlsx,,B4,T3,c,"['c', 'm']","['Clue', 'Monopoly']","[-0.15, 0.5]","[0.15, 0.5]",1,1,,,,,,,,,0,5,5,5,0,2,2,5,,,,,,,,,,,,,,,,,,,,,,,,,,,,,,,,,,,,,,,,,,,,,,,,,,,,,,,602.8635555339988,None,602.8635555339988,None,602.8635555339988,None,m,0,2.2897985509989667,604.3968652679996,None,604.3968652679996,None,604.3968652679996,None,606.7462448329989,None,606.7462448329989,None,606.7462448329989,None,606.7462448329989,None,,,,,,,,,,,,,,,,,,,,,,,,,,,,,,,,,,,,,,,,,,,,001,63,2020_Feb_04_1215,spring_faces,3.1.5,60.04067070957856,
condition files/Stage1_2.xlsx,,B1,T1,c,"['c', 'm']","['Clue', 'Monopoly']","[-0.15, 0.5]","[0.15, 0.5]",1,1,,,,,,,,,0,5,5,5,0,3,3,0,,,,,,,,,,,,,,,,,,,,,,,,,,,,,,,,,,,,,,,,,,,,,,,,,,,,,,,608.7131879099998,None,608.7131879099998,None,608.7131879099998,None,m,0,3.1105769709993183,610.2480362859988,None,610.2480362859988,None,610.2480362859988,None,613.4125893629989,None,613.4125893629989,None,613.4125893629989,None,613.4125893629989,None,,,,,,,,,,,,,,,,,,,,,,,,,,,,,,,,,,,,,,,,,,,,001,63,2020_Feb_04_1215,spring_faces,3.1.5,60.04067070957856,
condition files/Stage1_2.xlsx,,T1,B2,m,"['c', 'm']","['Clue', 'Monopoly']","[-0.15, 0.5]","[0.15, 0.5]",1,1,,,,,,,,,0,5,5,5,0,4,4,2,,,,,,,,,,,,,,,,,,,,,,,,,,,,,,,,,,,,,,,,,,,,,,,,,,,,,,,615.3799357499993,None,615.3799357499993,None,615.3799357499993,None,c,0,1.4205223949993524,616.9300772779989,None,616.9300772779989,None,616.9300772779989,None,618.4152576340002,None,618.4152576340002,None,618.4152576340002,None,618.4152576340002,None,,,,,,,,,,,,,,,,,,,,,,,,,,,,,,,,,,,,,,,,,,,,001,63,2020_Feb_04_1215,spring_faces,3.1.5,60.04067070957856,
condition files/Stage1_2.xlsx,,T3,B3,c,"['c', 'm']","['Clue', 'Monopoly']","[-0.15, 0.5]","[0.15, 0.5]",1,1,,,,,,,,,0,5,5,5,0,5,5,4,,,,,,,,,,,,,,,,,,,,,,,,,,,,,,,,,,,,,,,,,,,,,,,,,,,,,,,620.3798618659985,None,620.3798618659985,None,620.3798618659985,None,c,1,3.108754785000201,621.9299144460001,None,621.9299144460001,None,621.9299144460001,None,625.0986654609987,None,625.0986654609987,None,625.0986654609987,None,625.0986654609987,None,,,,,,,,,,,,,,,,,,,,,,,,,,,,,,,,,,,,,,,,,,,,001,63,2020_Feb_04_1215,spring_faces,3.1.5,60.04067070957856,
condition files/Stage1_2.xlsx,,B2,T2,m,"['c', 'm']","['Clue', 'Monopoly']","[-0.15, 0.5]","[0.15, 0.5]",1,1,,,,,,,,,0,5,5,5,0,6,6,3,,,,,,,,,,,,,,,,,,,,,,,,,,,,,,,,,,,,,,,,,,,,,,,,,,,,,,,627.0631192659985,None,627.0631192659985,None,627.0631192659985,None,c,0,3.8491023179994954,628.5975133489992,None,628.5975133489992,None,628.5975133489992,None,632.5131866299998,None,632.5131866299998,None,632.5131866299998,None,632.5131866299998,None,,,,,,,,,,,,,,,,,,,,,,,,,,,,,,,,,,,,,,,,,,,,001,63,2020_Feb_04_1215,spring_faces,3.1.5,60.04067070957856,
condition files/Stage1_2.xlsx,,T4,B4,m,"['c', 'm']","['Clue', 'Monopoly']","[-0.15, 0.5]","[0.15, 0.5]",1,1,,,,,,,,,0,5,5,5,0,7,7,7,,,,,,,,,,,,,,,,,,,,,,,,,,,,,,,,,,,,,,,,,,,,,,,,,,,,,,,634.4627268479999,None,634.4627268479999,None,634.4627268479999,None,m,1,1.0903063309997378,635.9963558749987,None,635.9963558749987,None,635.9963558749987,None,637.1464556439987,None,637.1464556439987,None,637.1464556439987,None,637.1464556439987,None,,,,,,,,,,,,,,,,,,,,,,,,,,,,,,,,,,,,,,,,,,,,001,63,2020_Feb_04_1215,spring_faces,3.1.5,60.04067070957856,
condition files/Stage1_1.xlsx,,T3,B4,c,"['c', 'm']","['Clue', 'Monopoly']","[-0.15, 0.5]","[0.15, 0.5]",1,1,,,,,,,,,0,6,6,6,0,0,0,5,,,,,,,,,,,,,,,,,,,,,,,,,,,,,,,,,,,,,,,,,,,,,,,,,,,,,,,639.1298275069985,None,639.1298275069985,None,639.1298275069985,None,c,1,1.2851402699998289,640.6654855859997,None,640.6654855859997,None,640.6654855859997,None,642.029388646999,None,642.029388646999,None,642.029388646999,None,642.029388646999,None,,,,,,,,,,,,,,,,,,,,,,,,,,,,,,,,,,,,,,,,,,,,001,63,2020_Feb_04_1215,spring_faces,3.1.5,60.04067070957856,
condition files/Stage1_1.xlsx,,B2,T1,m,"['c', 'm']","['Clue', 'Monopoly']","[-0.15, 0.5]","[0.15, 0.5]",1,1,,,,,,,,,0,6,6,6,0,1,1,2,,,,,,,,,,,,,,,,,,,,,,,,,,,,,,,,,,,,,,,,,,,,,,,,,,,,,,,643.9797986739995,None,643.9797986739995,None,643.9797986739995,None,m,1,1.0438462530000834,645.5147430429988,None,645.5147430429988,None,645.5147430429988,None,646.6152018419998,None,646.6152018419998,None,646.6152018419998,None,646.6152018419998,None,,,,,,,,,,,,,,,,,,,,,,,,,,,,,,,,,,,,,,,,,,,,001,63,2020_Feb_04_1215,spring_faces,3.1.5,60.04067070957856,
condition files/Stage1_1.xlsx,,B1,T2,c,"['c', 'm']","['Clue', 'Monopoly']","[-0.15, 0.5]","[0.15, 0.5]",1,1,,,,,,,,,0,6,6,6,0,2,2,1,,,,,,,,,,,,,,,,,,,,,,,,,,,,,,,,,,,,,,,,,,,,,,,,,,,,,,,648.5798896399992,None,648.5798896399992,None,648.5798896399992,None,c,1,1.0844294260004972,650.1301391849993,None,650.1301391849993,None,650.1301391849993,None,651.2823554899987,None,651.2823554899987,None,651.2823554899987,None,651.2823554899987,None,,,,,,,,,,,,,,,,,,,,,,,,,,,,,,,,,,,,,,,,,,,,001,63,2020_Feb_04_1215,spring_faces,3.1.5,60.04067070957856,
condition files/Stage1_1.xlsx,,T2,B2,m,"['c', 'm']","['Clue', 'Monopoly']","[-0.15, 0.5]","[0.15, 0.5]",1,1,,,,,,,,,0,6,6,6,0,3,3,3,,,,,,,,,,,,,,,,,,,,,,,,,,,,,,,,,,,,,,,,,,,,,,,,,,,,,,,653.2465023749992,None,653.2465023749992,None,653.2465023749992,None,c,0,2.2737897010010784,654.7968748439998,None,654.7968748439998,None,654.7968748439998,None,657.146655004999,None,657.146655004999,None,657.146655004999,None,657.146655004999,None,,,,,,,,,,,,,,,,,,,,,,,,,,,,,,,,,,,,,,,,,,,,001,63,2020_Feb_04_1215,spring_faces,3.1.5,60.04067070957856,
condition files/Stage1_1.xlsx,,T1,B1,c,"['c', 'm']","['Clue', 'Monopoly']","[-0.15, 0.5]","[0.15, 0.5]",1,1,,,,,,,,,0,6,6,6,0,4,4,0,,,,,,,,,,,,,,,,,,,,,,,,,,,,,,,,,,,,,,,,,,,,,,,,,,,,,,,659.0963982129997,None,659.0963982129997,None,659.0963982129997,None,c,1,0.566531517999465,660.6320514729996,None,660.6320514729996,None,660.6320514729996,None,661.2656994239987,None,661.2656994239987,None,661.2656994239987,None,661.2656994239987,None,,,,,,,,,,,,,,,,,,,,,,,,,,,,,,,,,,,,,,,,,,,,001,63,2020_Feb_04_1215,spring_faces,3.1.5,60.04067070957856,
condition files/Stage1_1.xlsx,,T4,B3,m,"['c', 'm']","['Clue', 'Monopoly']","[-0.15, 0.5]","[0.15, 0.5]",1,1,,,,,,,,,0,6,6,6,0,5,5,6,,,,,,,,,,,,,,,,,,,,,,,,,,,,,,,,,,,,,,,,,,,,,,,,,,,,,,,663.2298254599991,None,663.2298254599991,None,663.2298254599991,None,m,1,1.5053315360000852,664.7653540129995,None,664.7653540129995,None,664.7653540129995,None,666.3466919619987,None,666.3466919619987,None,666.3466919619987,None,666.3466919619987,None,,,,,,,,,,,,,,,,,,,,,,,,,,,,,,,,,,,,,,,,,,,,001,63,2020_Feb_04_1215,spring_faces,3.1.5,60.04067070957856,
condition files/Stage1_1.xlsx,,B4,T4,m,"['c', 'm']","['Clue', 'Monopoly']","[-0.15, 0.5]","[0.15, 0.5]",1,1,,,,,,,,,0,6,6,6,0,6,6,7,,,,,,,,,,,,,,,,,,,,,,,,,,,,,,,,,,,,,,,,,,,,,,,,,,,,,,,668.2966699680001,None,668.2966699680001,None,668.2966699680001,None,c,0,0.6149598680003692,669.8316639939985,None,669.8316639939985,None,669.8316639939985,None,670.4965267319985,None,670.4965267319985,None,670.4965267319985,None,670.4965267319985,None,,,,,,,,,,,,,,,,,,,,,,,,,,,,,,,,,,,,,,,,,,,,001,63,2020_Feb_04_1215,spring_faces,3.1.5,60.04067070957856,
condition files/Stage1_1.xlsx,,B3,T3,c,"['c', 'm']","['Clue', 'Monopoly']","[-0.15, 0.5]","[0.15, 0.5]",1,1,,,,,,,,,0,6,6,6,0,7,7,4,,,,,,,,,,,,,,,,,,,,,,,,,,,,,,,,,,,,,,,,,,,,,,,,,,,,,,,672.4628809689984,None,672.4628809689984,None,672.4628809689984,None,m,0,0.7535443649994704,673.9970741969992,None,673.9970741969992,None,673.9970741969992,None,674.8302954819992,None,674.8302954819992,None,674.8302954819992,None,674.8302954819992,None,,,,,,,,,,,,,,,,,,,,,,,,,,,,,,,,,,,,,,,,,,,,001,63,2020_Feb_04_1215,spring_faces,3.1.5,60.04067070957856,
condition files/Stage1_2.xlsx,,T3,B3,c,"['c', 'm']","['Clue', 'Monopoly']","[-0.15, 0.5]","[0.15, 0.5]",1,1,,,,,,,,,0,7,7,7,0,0,0,4,,,,,,,,,,,,,,,,,,,,,,,,,,,,,,,,,,,,,,,,,,,,,,,,,,,,,,,676.7967600470001,None,676.7967600470001,None,676.7967600470001,None,m,0,1.5092787379999208,678.3294142949999,None,678.3294142949999,None,678.3294142949999,None,679.8967891349985,None,679.8967891349985,None,679.8967891349985,None,679.8967891349985,None,,,,,,,,,,,,,,,,,,,,,,,,,,,,,,,,,,,,,,,,,,,,001,63,2020_Feb_04_1215,spring_faces,3.1.5,60.04067070957856,
condition files/Stage1_2.xlsx,,T4,B4,m,"['c', 'm']","['Clue', 'Monopoly']","[-0.15, 0.5]","[0.15, 0.5]",1,1,,,,,,,,,0,7,7,7,0,1,1,7,,,,,,,,,,,,,,,,,,,,,,,,,,,,,,,,,,,,,,,,,,,,,,,,,,,,,,,681.8631923479988,None,681.8631923479988,None,681.8631923479988,None,c,0,2.0104405830006726,683.396214688999,None,683.396214688999,None,683.396214688999,None,685.4640230369987,None,685.4640230369987,None,685.4640230369987,None,685.4640230369987,None,,,,,,,,,,,,,,,,,,,,,,,,,,,,,,,,,,,,,,,,,,,,001,63,2020_Feb_04_1215,spring_faces,3.1.5,60.04067070957856,
condition files/Stage1_2.xlsx,,T2,B1,c,"['c', 'm']","['Clue', 'Monopoly']","[-0.15, 0.5]","[0.15, 0.5]",1,1,,,,,,,,,0,7,7,7,0,2,2,1,,,,,,,,,,,,,,,,,,,,,,,,,,,,,,,,,,,,,,,,,,,,,,,,,,,,,,,687.4296761879996,None,687.4296761879996,None,687.4296761879996,None,c,1,1.3232282919998397,688.9634564049993,None,688.9634564049993,None,688.9634564049993,None,690.3496880089988,None,690.3496880089988,None,690.3496880089988,None,690.3496880089988,None,,,,,,,,,,,,,,,,,,,,,,,,,,,,,,,,,,,,,,,,,,,,001,63,2020_Feb_04_1215,spring_faces,3.1.5,60.04067070957856,
condition files/Stage1_2.xlsx,,T1,B2,m,"['c', 'm']","['Clue', 'Monopoly']","[-0.15, 0.5]","[0.15, 0.5]",1,1,,,,,,,,,0,7,7,7,0,3,3,2,,,,,,,,,,,,,,,,,,,,,,,,,,,,,,,,,,,,,,,,,,,,,,,,,,,,,,,692.3124973710001,None,692.3124973710001,None,692.3124973710001,None,m,1,1.0632160019995354,693.863325889999,None,693.863325889999,None,693.863325889999,None,694.9807858509994,None,694.9807858509994,None,694.9807858509994,None,694.9807858509994,None,,,,,,,,,,,,,,,,,,,,,,,,,,,,,,,,,,,,,,,,,,,,001,63,2020_Feb_04_1215,spring_faces,3.1.5,60.04067070957856,
condition files/Stage1_2.xlsx,,B4,T3,c,"['c', 'm']","['Clue', 'Monopoly']","[-0.15, 0.5]","[0.15, 0.5]",1,1,,,,,,,,,0,7,7,7,0,4,4,5,,,,,,,,,,,,,,,,,,,,,,,,,,,,,,,,,,,,,,,,,,,,,,,,,,,,,,,696.9465507219993,None,696.9465507219993,None,696.9465507219993,None,c,1,1.4361024409990932,698.4824936709992,None,698.4824936709992,None,698.4824936709992,None,699.9792861379992,None,699.9792861379992,None,699.9792861379992,None,699.9792861379992,None,,,,,,,,,,,,,,,,,,,,,,,,,,,,,,,,,,,,,,,,,,,,001,63,2020_Feb_04_1215,spring_faces,3.1.5,60.04067070957856,
condition files/Stage1_2.xlsx,,B2,T2,m,"['c', 'm']","['Clue', 'Monopoly']","[-0.15, 0.5]","[0.15, 0.5]",1,1,,,,,,,,,0,7,7,7,0,5,5,3,,,,,,,,,,,,,,,,,,,,,,,,,,,,,,,,,,,,,,,,,,,,,,,,,,,,,,,701.9467173329995,None,701.9467173329995,None,701.9467173329995,None,m,1,2.2785030779996305,703.4800858449998,None,703.4800858449998,None,703.4800858449998,None,705.8160871769996,None,705.8160871769996,None,705.8160871769996,None,705.8160871769996,None,,,,,,,,,,,,,,,,,,,,,,,,,,,,,,,,,,,,,,,,,,,,001,63,2020_Feb_04_1215,spring_faces,3.1.5,60.04067070957856,
condition files/Stage1_2.xlsx,,B1,T1,c,"['c', 'm']","['Clue', 'Monopoly']","[-0.15, 0.5]","[0.15, 0.5]",1,1,,,,,,,,,0,7,7,7,0,6,6,0,,,,,,,,,,,,,,,,,,,,,,,,,,,,,,,,,,,,,,,,,,,,,,,,,,,,,,,707.7791938390001,None,707.7791938390001,None,707.7791938390001,None,c,1,1.1004334239987656,709.3141746769998,None,709.3141746769998,None,709.3141746769998,None,710.4821831509998,None,710.4821831509998,None,710.4821831509998,None,710.4821831509998,None,,,,,,,,,,,,,,,,,,,,,,,,,,,,,,,,,,,,,,,,,,,,001,63,2020_Feb_04_1215,spring_faces,3.1.5,60.04067070957856,
condition files/Stage1_2.xlsx,,B3,T4,m,"['c', 'm']","['Clue', 'Monopoly']","[-0.15, 0.5]","[0.15, 0.5]",1,1,,,,,,,,,0,7,7,7,0,7,7,6,,,,,,,,,,,,,,,,,,,,,,,,,,,,,,,,,,,,,,,,,,,,,,,,,,,,,,,712.4464522609996,None,712.4464522609996,None,712.4464522609996,None,c,0,1.298181617001319,713.980419726,None,713.980419726,None,713.980419726,None,715.3463087,None,715.3463087,None,715.3463087,None,715.3463087,None,,,,,,,,,,,,,,,,,,,,,,,,,,,,,,,,,,,,,,,,,,,,001,63,2020_Feb_04_1215,spring_faces,3.1.5,60.04067070957856,
condition files/Stage1_1.xlsx,,T2,B2,m,"['c', 'm']","['Clue', 'Monopoly']","[-0.15, 0.5]","[0.15, 0.5]",1,1,,,,,,,,,0,8,8,8,0,0,0,3,,,,,,,,,,,,,,,,,,,,,,,,,,,,,,,,,,,,,,,,,,,,,,,,,,,,,,,717.3134022819995,None,717.3134022819995,None,717.3134022819995,None,c,0,2.046136018998368,718.8484842109992,None,718.8484842109992,None,718.8484842109992,None,720.9462944979987,None,720.9462944979987,None,720.9462944979987,None,720.9462944979987,None,,,,,,,,,,,,,,,,,,,,,,,,,,,,,,,,,,,,,,,,,,,,001,63,2020_Feb_04_1215,spring_faces,3.1.5,60.04067070957856,
condition files/Stage1_1.xlsx,,T3,B4,c,"['c', 'm']","['Clue', 'Monopoly']","[-0.15, 0.5]","[0.15, 0.5]",1,1,,,,,,,,,0,8,8,8,0,1,1,5,,,,,,,,,,,,,,,,,,,,,,,,,,,,,,,,,,,,,,,,,,,,,,,,,,,,,,,722.9131545929995,None,722.9131545929995,None,722.9131545929995,None,m,0,1.6803572419994453,724.4463922439991,None,724.4463922439991,None,724.4463922439991,None,726.1825899340001,None,726.1825899340001,None,726.1825899340001,None,726.1825899340001,None,,,,,,,,,,,,,,,,,,,,,,,,,,,,,,,,,,,,,,,,,,,,001,63,2020_Feb_04_1215,spring_faces,3.1.5,60.04067070957856,
condition files/Stage1_1.xlsx,,B1,T2,c,"['c', 'm']","['Clue', 'Monopoly']","[-0.15, 0.5]","[0.15, 0.5]",1,1,,,,,,,,,0,8,8,8,0,2,2,1,,,,,,,,,,,,,,,,,,,,,,,,,,,,,,,,,,,,,,,,,,,,,,,,,,,,,,,728.1466182219992,None,728.1466182219992,None,728.1466182219992,None,m,0,1.1498912799997925,729.6806752329994,None,729.6806752329994,None,729.6806752329994,None,730.8968918869996,None,730.8968918869996,None,730.8968918869996,None,730.8968918869996,None,,,,,,,,,,,,,,,,,,,,,,,,,,,,,,,,,,,,,,,,,,,,001,63,2020_Feb_04_1215,spring_faces,3.1.5,60.04067070957856,
condition files/Stage1_1.xlsx,,T4,B3,m,"['c', 'm']","['Clue', 'Monopoly']","[-0.15, 0.5]","[0.15, 0.5]",1,1,,,,,,,,,0,8,8,8,0,3,3,6,,,,,,,,,,,,,,,,,,,,,,,,,,,,,,,,,,,,,,,,,,,,,,,,,,,,,,,732.8632735209994,None,732.8632735209994,None,732.8632735209994,None,c,0,1.4583265359997313,734.396345879999,None,734.396345879999,None,734.396345879999,None,735.930205581999,None,735.930205581999,None,735.930205581999,None,735.930205581999,None,,,,,,,,,,,,,,,,,,,,,,,,,,,,,,,,,,,,,,,,,,,,001,63,2020_Feb_04_1215,spring_faces,3.1.5,60.04067070957856,
condition files/Stage1_1.xlsx,,B2,T1,m,"['c', 'm']","['Clue', 'Monopoly']","[-0.15, 0.5]","[0.15, 0.5]",1,1,,,,,,,,,0,8,8,8,0,4,4,2,,,,,,,,,,,,,,,,,,,,,,,,,,,,,,,,,,,,,,,,,,,,,,,,,,,,,,,737.8798129579991,None,737.8798129579991,None,737.8798129579991,None,m,1,1.176683347001017,739.4140011660002,None,739.4140011660002,None,739.4140011660002,None,740.6465959319994,None,740.6465959319994,None,740.6465959319994,None,740.6465959319994,None,,,,,,,,,,,,,,,,,,,,,,,,,,,,,,,,,,,,,,,,,,,,001,63,2020_Feb_04_1215,spring_faces,3.1.5,60.04067070957856,
condition files/Stage1_1.xlsx,,T1,B1,c,"['c', 'm']","['Clue', 'Monopoly']","[-0.15, 0.5]","[0.15, 0.5]",1,1,,,,,,,,,0,8,8,8,0,5,5,0,,,,,,,,,,,,,,,,,,,,,,,,,,,,,,,,,,,,,,,,,,,,,,,,,,,,,,,742.6132590639991,None,742.6132590639991,None,742.6132590639991,None,c,1,1.4518668840009923,744.1467110180001,None,744.1467110180001,None,744.1467110180001,None,745.6650154039999,None,745.6650154039999,None,745.6650154039999,None,745.6650154039999,None,,,,,,,,,,,,,,,,,,,,,,,,,,,,,,,,,,,,,,,,,,,,001,63,2020_Feb_04_1215,spring_faces,3.1.5,60.04067070957856,
condition files/Stage1_1.xlsx,,B3,T3,c,"['c', 'm']","['Clue', 'Monopoly']","[-0.15, 0.5]","[0.15, 0.5]",1,1,,,,,,,,,0,8,8,8,0,6,6,4,,,,,,,,,,,,,,,,,,,,,,,,,,,,,,,,,,,,,,,,,,,,,,,,,,,,,,,747.6299081149991,None,747.6299081149991,None,747.6299081149991,None,m,0,0.6902677819998644,749.164417472999,None,749.164417472999,None,749.164417472999,None,749.9133575750002,None,749.9133575750002,None,749.9133575750002,None,749.9133575750002,None,,,,,,,,,,,,,,,,,,,,,,,,,,,,,,,,,,,,,,,,,,,,001,63,2020_Feb_04_1215,spring_faces,3.1.5,60.04067070957856,
condition files/Stage1_1.xlsx,,B4,T4,m,"['c', 'm']","['Clue', 'Monopoly']","[-0.15, 0.5]","[0.15, 0.5]",1,1,,,,,,,,,0,8,8,8,0,7,7,7,,,,,,,,,,,,,,,,,,,,,,,,,,,,,,,,,,,,,,,,,,,,,,,,,,,,,,,751.8798233689995,None,751.8798233689995,None,751.8798233689995,None,m,1,0.4884855239997705,753.4301086809992,None,753.4301086809992,None,753.4301086809992,None,753.9961727069985,None,753.9961727069985,None,753.9961727069985,None,753.9961727069985,None,,,,,,,,,,,,,,,,,,,,,,,,,,,,,,,,,,,,,,,,,,,,001,63,2020_Feb_04_1215,spring_faces,3.1.5,60.04067070957856,
condition files/Stage1_2.xlsx,,B2,T2,m,"['c', 'm']","['Clue', 'Monopoly']","[-0.15, 0.5]","[0.15, 0.5]",1,1,,,,,,,,,0,9,9,9,0,0,0,3,,,,,,,,,,,,,,,,,,,,,,,,,,,,,,,,,,,,,,,,,,,,,,,,,,,,,,,755.9634473979986,None,755.9634473979986,None,755.9634473979986,None,c,0,1.4608491660001164,757.4977762029994,None,757.4977762029994,None,757.4977762029994,None,759.0133211020002,None,759.0133211020002,None,759.0133211020002,None,759.0133211020002,None,,,,,,,,,,,,,,,,,,,,,,,,,,,,,,,,,,,,,,,,,,,,001,63,2020_Feb_04_1215,spring_faces,3.1.5,60.04067070957856,
condition files/Stage1_2.xlsx,,T4,B4,m,"['c', 'm']","['Clue', 'Monopoly']","[-0.15, 0.5]","[0.15, 0.5]",1,1,,,,,,,,,0,9,9,9,0,1,1,7,,,,,,,,,,,,,,,,,,,,,,,,,,,,,,,,,,,,,,,,,,,,,,,,,,,,,,,760.9800057430002,None,760.9800057430002,None,760.9800057430002,None,m,1,1.4684321910008293,762.5141691270001,None,762.5141691270001,None,762.5141691270001,None,764.0466959959995,None,764.0466959959995,None,764.0466959959995,None,764.0466959959995,None,,,,,,,,,,,,,,,,,,,,,,,,,,,,,,,,,,,,,,,,,,,,001,63,2020_Feb_04_1215,spring_faces,3.1.5,60.04067070957856,
condition files/Stage1_2.xlsx,,T3,B3,c,"['c', 'm']","['Clue', 'Monopoly']","[-0.15, 0.5]","[0.15, 0.5]",1,1,,,,,,,,,0,9,9,9,0,2,2,4,,,,,,,,,,,,,,,,,,,,,,,,,,,,,,,,,,,,,,,,,,,,,,,,,,,,,,,766.012460431999,None,766.012460431999,None,766.012460431999,None,c,1,1.1554208130000916,767.547258487999,None,767.547258487999,None,767.547258487999,None,768.7802582240001,None,768.7802582240001,None,768.7802582240001,None,768.7802582240001,None,,,,,,,,,,,,,,,,,,,,,,,,,,,,,,,,,,,,,,,,,,,,001,63,2020_Feb_04_1215,spring_faces,3.1.5,60.04067070957856,
condition files/Stage1_2.xlsx,,T1,B2,m,"['c', 'm']","['Clue', 'Monopoly']","[-0.15, 0.5]","[0.15, 0.5]",1,1,,,,,,,,,0,9,9,9,0,3,3,2,,,,,,,,,,,,,,,,,,,,,,,,,,,,,,,,,,,,,,,,,,,,,,,,,,,,,,,770.7298981650001,None,770.7298981650001,None,770.7298981650001,None,m,1,0.7252768540001853,772.2654136479996,None,772.2654136479996,None,772.2654136479996,None,773.0482030049989,None,773.0482030049989,None,773.0482030049989,None,773.0482030049989,None,,,,,,,,,,,,,,,,,,,,,,,,,,,,,,,,,,,,,,,,,,,,001,63,2020_Feb_04_1215,spring_faces,3.1.5,60.04067070957856,
condition files/Stage1_2.xlsx,,B1,T1,c,"['c', 'm']","['Clue', 'Monopoly']","[-0.15, 0.5]","[0.15, 0.5]",1,1,,,,,,,,,0,9,9,9,0,4,4,0,,,,,,,,,,,,,,,,,,,,,,,,,,,,,,,,,,,,,,,,,,,,,,,,,,,,,,,775.0127777629987,None,775.0127777629987,None,775.0127777629987,None,c,1,1.4189368650004326,776.5476839659987,None,776.5476839659987,None,776.5476839659987,None,778.0295350460001,None,778.0295350460001,None,778.0295350460001,None,778.0295350460001,None,,,,,,,,,,,,,,,,,,,,,,,,,,,,,,,,,,,,,,,,,,,,001,63,2020_Feb_04_1215,spring_faces,3.1.5,60.04067070957856,
condition files/Stage1_2.xlsx,,B4,T3,c,"['c', 'm']","['Clue', 'Monopoly']","[-0.15, 0.5]","[0.15, 0.5]",1,1,,,,,,,,,0,9,9,9,0,5,5,5,,,,,,,,,,,,,,,,,,,,,,,,,,,,,,,,,,,,,,,,,,,,,,,,,,,,,,,779.9964885279987,None,779.9964885279987,None,779.9964885279987,None,c,1,1.795727667000392,781.5468773359989,None,781.5468773359989,None,781.5468773359989,None,783.3967215419998,None,783.3967215419998,None,783.3967215419998,None,783.3967215419998,None,,,,,,,,,,,,,,,,,,,,,,,,,,,,,,,,,,,,,,,,,,,,001,63,2020_Feb_04_1215,spring_faces,3.1.5,60.04067070957856,
condition files/Stage1_2.xlsx,,T2,B1,c,"['c', 'm']","['Clue', 'Monopoly']","[-0.15, 0.5]","[0.15, 0.5]",1,1,,,,,,,,,0,9,9,9,0,6,6,1,,,,,,,,,,,,,,,,,,,,,,,,,,,,,,,,,,,,,,,,,,,,,,,,,,,,,,,785.362749807,None,785.362749807,None,785.362749807,None,m,0,1.371715891000349,786.8989764079997,None,786.8989764079997,None,786.8989764079997,None,788.3296027199995,None,788.3296027199995,None,788.3296027199995,None,788.3296027199995,None,,,,,,,,,,,,,,,,,,,,,,,,,,,,,,,,,,,,,,,,,,,,001,63,2020_Feb_04_1215,spring_faces,3.1.5,60.04067070957856,
condition files/Stage1_2.xlsx,,B3,T4,m,"['c', 'm']","['Clue', 'Monopoly']","[-0.15, 0.5]","[0.15, 0.5]",1,1,,,,,,,,,0,9,9,9,0,7,7,6,,,,,,,,,,,,,,,,,,,,,,,,,,,,,,,,,,,,,,,,,,,,,,,,,,,,,,,790.2964796359993,None,790.2964796359993,None,790.2964796359993,None,c,0,1.1587254860005487,791.831816300999,None,791.831816300999,None,791.831816300999,None,793.0481881119995,None,793.0481881119995,None,793.0481881119995,None,793.0481881119995,None,,,,,,,,,,,,,,,,,,,,,,,,,,,,,,,,,,,,,,,,,,,,001,63,2020_Feb_04_1215,spring_faces,3.1.5,60.04067070957856,
condition files/Stage1_1.xlsx,,B4,T4,m,"['c', 'm']","['Clue', 'Monopoly']","[-0.15, 0.5]","[0.15, 0.5]",1,1,,,,,,,,,0,10,10,10,0,0,0,7,,,,,,,,,,,,,,,,,,,,,,,,,,,,,,,,,,,,,,,,,,,,,,,,,,,,,,,795.0301465479988,None,795.0301465479988,None,795.0301465479988,None,c,0,2.011889544999576,796.5626885879992,None,796.5626885879992,None,796.5626885879992,None,798.6295433289997,None,798.6295433289997,None,798.6295433289997,None,798.6295433289997,None,,,,,,,,,,,,,,,,,,,,,,,,,,,,,,,,,,,,,,,,,,,,001,63,2020_Feb_04_1215,spring_faces,3.1.5,60.04067070957856,
condition files/Stage1_1.xlsx,,B1,T2,c,"['c', 'm']","['Clue', 'Monopoly']","[-0.15, 0.5]","[0.15, 0.5]",1,1,,,,,,,,,0,10,10,10,0,1,1,1,,,,,,,,,,,,,,,,,,,,,,,,,,,,,,,,,,,,,,,,,,,,,,,,,,,,,,,800.5964436289996,None,800.5964436289996,None,800.5964436289996,None,m,0,1.148444971000572,802.1301747369998,None,802.1301747369998,None,802.1301747369998,None,803.3313357119987,None,803.3313357119987,None,803.3313357119987,None,803.3313357119987,None,,,,,,,,,,,,,,,,,,,,,,,,,,,,,,,,,,,,,,,,,,,,001,63,2020_Feb_04_1215,spring_faces,3.1.5,60.04067070957856,
condition files/Stage1_1.xlsx,,T3,B4,c,"['c', 'm']","['Clue', 'Monopoly']","[-0.15, 0.5]","[0.15, 0.5]",1,1,,,,,,,,,0,10,10,10,0,2,2,5,,,,,,,,,,,,,,,,,,,,,,,,,,,,,,,,,,,,,,,,,,,,,,,,,,,,,,,805.2960798959994,None,805.2960798959994,None,805.2960798959994,None,c,1,0.9426600429997052,806.8319161769996,None,806.8319161769996,None,806.8319161769996,None,807.8298259029998,None,807.8298259029998,None,807.8298259029998,None,807.8298259029998,None,,,,,,,,,,,,,,,,,,,,,,,,,,,,,,,,,,,,,,,,,,,,001,63,2020_Feb_04_1215,spring_faces,3.1.5,60.04067070957856,
condition files/Stage1_1.xlsx,,T4,B3,m,"['c', 'm']","['Clue', 'Monopoly']","[-0.15, 0.5]","[0.15, 0.5]",1,1,,,,,,,,,0,10,10,10,0,3,3,6,,,,,,,,,,,,,,,,,,,,,,,,,,,,,,,,,,,,,,,,,,,,,,,,,,,,,,,809.7963829429991,None,809.7963829429991,None,809.7963829429991,None,c,0,1.1170961130010255,811.329525703999,None,811.329525703999,None,811.329525703999,None,812.5127666019998,None,812.5127666019998,None,812.5127666019998,None,812.5127666019998,None,,,,,,,,,,,,,,,,,,,,,,,,,,,,,,,,,,,,,,,,,,,,001,63,2020_Feb_04_1215,spring_faces,3.1.5,60.04067070957856,
condition files/Stage1_1.xlsx,,B3,T3,c,"['c', 'm']","['Clue', 'Monopoly']","[-0.15, 0.5]","[0.15, 0.5]",1,1,,,,,,,,,0,10,10,10,0,4,4,4,,,,,,,,,,,,,,,,,,,,,,,,,,,,,,,,,,,,,,,,,,,,,,,,,,,,,,,814.4628787109996,None,814.4628787109996,None,814.4628787109996,None,c,1,1.7613040289998025,815.9973156659998,None,815.9973156659998,None,815.9973156659998,None,817.8298154309996,None,817.8298154309996,None,817.8298154309996,None,817.8298154309996,None,,,,,,,,,,,,,,,,,,,,,,,,,,,,,,,,,,,,,,,,,,,,001,63,2020_Feb_04_1215,spring_faces,3.1.5,60.04067070957856,
condition files/Stage1_1.xlsx,,B2,T1,m,"['c', 'm']","['Clue', 'Monopoly']","[-0.15, 0.5]","[0.15, 0.5]",1,1,,,,,,,,,0,10,10,10,0,5,5,2,,,,,,,,,,,,,,,,,,,,,,,,,,,,,,,,,,,,,,,,,,,,,,,,,,,,,,,819.7798672089993,None,819.7798672089993,None,819.7798672089993,None,c,0,2.2207210090000444,821.3298815620001,None,821.3298815620001,None,821.3298815620001,None,823.6153859689985,None,823.6153859689985,None,823.6153859689985,None,823.6153859689985,None,,,,,,,,,,,,,,,,,,,,,,,,,,,,,,,,,,,,,,,,,,,,001,63,2020_Feb_04_1215,spring_faces,3.1.5,60.04067070957856,
condition files/Stage1_1.xlsx,,T1,B1,c,"['c', 'm']","['Clue', 'Monopoly']","[-0.15, 0.5]","[0.15, 0.5]",1,1,,,,,,,,,0,10,10,10,0,6,6,0,,,,,,,,,,,,,,,,,,,,,,,,,,,,,,,,,,,,,,,,,,,,,,,,,,,,,,,825.5797885020002,None,825.5797885020002,None,825.5797885020002,None,c,1,1.4771650210004736,827.1135265989997,None,827.1135265989997,None,827.1135265989997,None,828.6468450039993,None,828.6468450039993,None,828.6468450039993,None,828.6468450039993,None,,,,,,,,,,,,,,,,,,,,,,,,,,,,,,,,,,,,,,,,,,,,001,63,2020_Feb_04_1215,spring_faces,3.1.5,60.04067070957856,
condition files/Stage1_1.xlsx,,T2,B2,m,"['c', 'm']","['Clue', 'Monopoly']","[-0.15, 0.5]","[0.15, 0.5]",1,1,,,,,,,,,0,10,10,10,0,7,7,3,,,,,,,,,,,,,,,,,,,,,,,,,,,,,,,,,,,,,,,,,,,,,,,,,,,,,,,830.6132061419994,None,830.6132061419994,None,830.6132061419994,None,m,1,1.2436903939997137,832.1469980959992,None,832.1469980959992,None,832.1469980959992,None,833.4629949669998,None,833.4629949669998,None,833.4629949669998,None,833.4629949669998,None,,,,,,,,,,,,,,,,,,,,,,,,,,,,,,,,,,,,,,,,,,,,001,63,2020_Feb_04_1215,spring_faces,3.1.5,60.04067070957856,
condition files/Stage1_2.xlsx,,T3,B3,c,"['c', 'm']","['Clue', 'Monopoly']","[-0.15, 0.5]","[0.15, 0.5]",1,1,,,,,,,,,0,11,11,11,0,0,0,4,,,,,,,,,,,,,,,,,,,,,,,,,,,,,,,,,,,,,,,,,,,,,,,,,,,,,,,835.4296399670002,None,835.4296399670002,None,835.4296399670002,None,c,1,1.0191288759997406,836.9794883559989,None,836.9794883559989,None,836.9794883559989,None,838.063407399999,None,838.063407399999,None,838.063407399999,None,838.063407399999,None,,,,,,,,,,,,,,,,,,,,,,,,,,,,,,,,,,,,,,,,,,,,001,63,2020_Feb_04_1215,spring_faces,3.1.5,60.04067070957856,
condition files/Stage1_2.xlsx,,B2,T2,m,"['c', 'm']","['Clue', 'Monopoly']","[-0.15, 0.5]","[0.15, 0.5]",1,1,,,,,,,,,0,11,11,11,0,1,1,3,,,,,,,,,,,,,,,,,,,,,,,,,,,,,,,,,,,,,,,,,,,,,,,,,,,,,,,840.0299111779987,None,840.0299111779987,None,840.0299111779987,None,m,1,1.0423356330011302,841.5643401099987,None,841.5643401099987,None,841.5643401099987,None,842.6800838299987,None,842.6800838299987,None,842.6800838299987,None,842.6800838299987,None,,,,,,,,,,,,,,,,,,,,,,,,,,,,,,,,,,,,,,,,,,,,001,63,2020_Feb_04_1215,spring_faces,3.1.5,60.04067070957856,
condition files/Stage1_2.xlsx,,T1,B2,m,"['c', 'm']","['Clue', 'Monopoly']","[-0.15, 0.5]","[0.15, 0.5]",1,1,,,,,,,,,0,11,11,11,0,2,2,2,,,,,,,,,,,,,,,,,,,,,,,,,,,,,,,,,,,,,,,,,,,,,,,,,,,,,,,844.6298976639991,None,844.6298976639991,None,844.6298976639991,None,c,0,1.161200167998686,846.1654320109992,None,846.1654320109992,None,846.1654320109992,None,847.3796874479995,None,847.3796874479995,None,847.3796874479995,None,847.3796874479995,None,,,,,,,,,,,,,,,,,,,,,,,,,,,,,,,,,,,,,,,,,,,,001,63,2020_Feb_04_1215,spring_faces,3.1.5,60.04067070957856,
condition files/Stage1_2.xlsx,,B4,T3,c,"['c', 'm']","['Clue', 'Monopoly']","[-0.15, 0.5]","[0.15, 0.5]",1,1,,,,,,,,,0,11,11,11,0,3,3,5,,,,,,,,,,,,,,,,,,,,,,,,,,,,,,,,,,,,,,,,,,,,,,,,,,,,,,,849.3462673279992,None,849.3462673279992,None,849.3462673279992,None,m,0,0.9244636519997584,850.8822281389985,None,850.8822281389985,None,850.8822281389985,None,851.8656270020001,None,851.8656270020001,None,851.8656270020001,None,851.8656270020001,None,,,,,,,,,,,,,,,,,,,,,,,,,,,,,,,,,,,,,,,,,,,,001,63,2020_Feb_04_1215,spring_faces,3.1.5,60.04067070957856,
condition files/Stage1_2.xlsx,,B3,T4,m,"['c', 'm']","['Clue', 'Monopoly']","[-0.15, 0.5]","[0.15, 0.5]",1,1,,,,,,,,,0,11,11,11,0,4,4,6,,,,,,,,,,,,,,,,,,,,,,,,,,,,,,,,,,,,,,,,,,,,,,,,,,,,,,,853.8297744329993,None,853.8297744329993,None,853.8297744329993,None,c,0,1.5616030689998297,855.3651463829992,None,855.3651463829992,None,855.3651463829992,None,856.9967909689985,None,856.9967909689985,None,856.9967909689985,None,856.9967909689985,None,,,,,,,,,,,,,,,,,,,,,,,,,,,,,,,,,,,,,,,,,,,,001,63,2020_Feb_04_1215,spring_faces,3.1.5,60.04067070957856,
condition files/Stage1_2.xlsx,,T4,B4,m,"['c', 'm']","['Clue', 'Monopoly']","[-0.15, 0.5]","[0.15, 0.5]",1,1,,,,,,,,,0,11,11,11,0,5,5,7,,,,,,,,,,,,,,,,,,,,,,,,,,,,,,,,,,,,,,,,,,,,,,,,,,,,,,,858.9467618959989,None,858.9467618959989,None,858.9467618959989,None,m,1,1.0048907830005191,860.481798896999,None,860.481798896999,None,860.481798896999,None,861.5464505809996,None,861.5464505809996,None,861.5464505809996,None,861.5464505809996,None,,,,,,,,,,,,,,,,,,,,,,,,,,,,,,,,,,,,,,,,,,,,001,63,2020_Feb_04_1215,spring_faces,3.1.5,60.04067070957856,
condition files/Stage1_2.xlsx,,B1,T1,c,"['c', 'm']","['Clue', 'Monopoly']","[-0.15, 0.5]","[0.15, 0.5]",1,1,,,,,,,,,0,11,11,11,0,6,6,0,,,,,,,,,,,,,,,,,,,,,,,,,,,,,,,,,,,,,,,,,,,,,,,,,,,,,,,863.5132644569985,None,863.5132644569985,None,863.5132644569985,None,m,0,1.528023333999954,865.0465626329988,None,865.0465626329988,None,865.0465626329988,None,866.6325176749997,None,866.6325176749997,None,866.6325176749997,None,866.6325176749997,None,,,,,,,,,,,,,,,,,,,,,,,,,,,,,,,,,,,,,,,,,,,,001,63,2020_Feb_04_1215,spring_faces,3.1.5,60.04067070957856,
condition files/Stage1_2.xlsx,,T2,B1,c,"['c', 'm']","['Clue', 'Monopoly']","[-0.15, 0.5]","[0.15, 0.5]",1,1,,,,,,,,,0,11,11,11,0,7,7,1,,,,,,,,,,,,,,,,,,,,,,,,,,,,,,,,,,,,,,,,,,,,,,,,,,,,,,,868.596483587,None,868.596483587,None,868.596483587,None,c,1,1.3240419369994925,870.1306393300001,None,870.1306393300001,None,870.1306393300001,None,871.5133780409997,None,871.5133780409997,None,871.5133780409997,None,871.5133780409997,None,,,,,,,,,,,,,,,,,,,,,,,,,,,,,,,,,,,,,,,,,,,,001,63,2020_Feb_04_1215,spring_faces,3.1.5,60.04067070957856,
,,,,,,,,,,,,,,,,,,,,,,,,,,,,,,,,,,,,,,,,,,,,,,,,,,,,,,,,,,,,,,,,,,,,,,,,,,,,,,,,,,,,,,,,,,,,,,,,,,,,,,,,,,,,,,,,873.4964975249986,None,space,8.57413430500128,878.4965729879987,None,,,,,,,,,,,,,,,,,,,,,,,,,,,,,,001,63,2020_Feb_04_1215,spring_faces,3.1.5,60.04067070957856,
condition files/Stage2_1.xlsx,,B2,T2,r,"['s', 'r']","['Stratego', 'Risk']","[-0.15, 0.5]","[0.15, 0.5]",1,1,,,,,,,,,,,,,,,,,0,0,0,0,0,0,0,3,,,,,,,,,,,,,,,,,,,,,,,,,,,,,,,,,,,,,,,,,,,,,,,887.1304593559998,None,887.1304593559998,None,887.1304593559998,None,s,0,1.4485280479984795,888.6300876629994,None,888.6300876629994,None,888.6300876629994,None,890.1311502649987,None,890.1311502649987,None,890.1311502649987,None,890.1311502649987,None,,,,,,,,,,,,,,,878.4965729879987,None,,,,,,,,,,,,,,,,,,,,,,,,,,,,001,63,2020_Feb_04_1215,spring_faces,3.1.5,60.04067070957856,
condition files/Stage2_1.xlsx,,B4,T4,r,"['s', 'r']","['Stratego', 'Risk']","[-0.15, 0.5]","[0.15, 0.5]",1,1,,,,,,,,,,,,,,,,,0,0,0,0,0,1,1,5,,,,,,,,,,,,,,,,,,,,,,,,,,,,,,,,,,,,,,,,,,,,,,,892.0966028209987,None,892.0966028209987,None,892.0966028209987,None,r,1,0.9606143979999615,893.6300825159997,None,893.6300825159997,None,893.6300825159997,None,894.6467190179992,None,894.6467190179992,None,894.6467190179992,None,894.6467190179992,None,,,,,,,,,,,,,,,,,,,,,,,,,,,,,,,,,,,,,,,,,,,,001,63,2020_Feb_04_1215,spring_faces,3.1.5,60.04067070957856,
condition files/Stage2_1.xlsx,,T5,B5,s,"['s', 'r']","['Stratego', 'Risk']","[-0.15, 0.5]","[0.15, 0.5]",1,1,,,,,,,,,,,,,,,,,0,0,0,0,0,2,2,0,,,,,,,,,,,,,,,,,,,,,,,,,,,,,,,,,,,,,,,,,,,,,,,896.612541524999,None,896.612541524999,None,896.612541524999,None,s,1,1.2923724170013884,898.1463051709998,None,898.1463051709998,None,898.1463051709998,None,899.4967935389996,None,899.4967935389996,None,899.4967935389996,None,899.4967935389996,None,,,,,,,,,,,,,,,,,,,,,,,,,,,,,,,,,,,,,,,,,,,,001,63,2020_Feb_04_1215,spring_faces,3.1.5,60.04067070957856,
condition files/Stage2_1.xlsx,,T1,B1,s,"['s', 'r']","['Stratego', 'Risk']","[-0.15, 0.5]","[0.15, 0.5]",1,1,,,,,,,,,,,,,,,,,0,0,0,0,0,3,3,2,,,,,,,,,,,,,,,,,,,,,,,,,,,,,,,,,,,,,,,,,,,,,,,901.4628474769997,None,901.4628474769997,None,901.4628474769997,None,r,0,1.2411670460005553,902.9975240349995,None,902.9975240349995,None,902.9975240349995,None,904.2962078989985,None,904.2962078989985,None,904.2962078989985,None,904.2962078989985,None,,,,,,,,,,,,,,,,,,,,,,,,,,,,,,,,,,,,,,,,,,,,001,63,2020_Feb_04_1215,spring_faces,3.1.5,60.04067070957856,
condition files/Stage2_1.xlsx,,T3,B3,s,"['s', 'r']","['Stratego', 'Risk']","[-0.15, 0.5]","[0.15, 0.5]",1,1,,,,,,,,,,,,,,,,,0,0,0,0,0,4,4,4,,,,,,,,,,,,,,,,,,,,,,,,,,,,,,,,,,,,,,,,,,,,,,,906.2628873289996,None,906.2628873289996,None,906.2628873289996,None,r,0,1.289939221000168,907.7967418579992,None,907.7967418579992,None,907.7967418579992,None,909.1464255499995,None,909.1464255499995,None,909.1464255499995,None,909.1464255499995,None,,,,,,,,,,,,,,,,,,,,,,,,,,,,,,,,,,,,,,,,,,,,001,63,2020_Feb_04_1215,spring_faces,3.1.5,60.04067070957856,
condition files/Stage2_1.xlsx,,B6,T6,r,"['s', 'r']","['Stratego', 'Risk']","[-0.15, 0.5]","[0.15, 0.5]",1,1,,,,,,,,,,,,,,,,,0,0,0,0,0,5,5,1,,,,,,,,,,,,,,,,,,,,,,,,,,,,,,,,,,,,,,,,,,,,,,,911.1131566899985,None,911.1131566899985,None,911.1131566899985,None,s,0,1.9434442239999044,912.6472432049995,None,912.6472432049995,None,912.6472432049995,None,914.6487464239999,None,914.6487464239999,None,914.6487464239999,None,914.6487464239999,None,,,,,,,,,,,,,,,,,,,,,,,,,,,,,,,,,,,,,,,,,,,,001,63,2020_Feb_04_1215,spring_faces,3.1.5,60.04067070957856,
condition files/Stage2_2.xlsx,,B5,T5,s,"['s', 'r']","['Stratego', 'Risk']","[-0.15, 0.5]","[0.15, 0.5]",1,1,,,,,,,,,,,,,,,,,0,1,1,1,0,0,0,0,,,,,,,,,,,,,,,,,,,,,,,,,,,,,,,,,,,,,,,,,,,,,,,916.630007030999,None,916.630007030999,None,916.630007030999,None,r,0,2.0279893999995693,918.1626921110001,None,918.1626921110001,None,918.1626921110001,None,920.247802767999,None,920.247802767999,None,920.247802767999,None,920.247802767999,None,,,,,,,,,,,,,,,,,,,,,,,,,,,,,,,,,,,,,,,,,,,,001,63,2020_Feb_04_1215,spring_faces,3.1.5,60.04067070957856,
condition files/Stage2_2.xlsx,,T2,B2,r,"['s', 'r']","['Stratego', 'Risk']","[-0.15, 0.5]","[0.15, 0.5]",1,1,,,,,,,,,,,,,,,,,0,1,1,1,0,1,1,3,,,,,,,,,,,,,,,,,,,,,,,,,,,,,,,,,,,,,,,,,,,,,,,922.2129843940002,None,922.2129843940002,None,922.2129843940002,None,r,1,2.0114248580011918,923.7471895229992,None,923.7471895229992,None,923.7471895229992,None,925.8123374360002,None,925.8123374360002,None,925.8123374360002,None,925.8123374360002,None,,,,,,,,,,,,,,,,,,,,,,,,,,,,,,,,,,,,,,,,,,,,001,63,2020_Feb_04_1215,spring_faces,3.1.5,60.04067070957856,
condition files/Stage2_2.xlsx,,B1,T1,s,"['s', 'r']","['Stratego', 'Risk']","[-0.15, 0.5]","[0.15, 0.5]",1,1,,,,,,,,,,,,,,,,,0,1,1,1,0,2,2,2,,,,,,,,,,,,,,,,,,,,,,,,,,,,,,,,,,,,,,,,,,,,,,,927.779309956999,None,927.779309956999,None,927.779309956999,None,s,1,1.5803728530008812,929.314245001,None,929.314245001,None,929.314245001,None,930.9633513159988,None,930.9633513159988,None,930.9633513159988,None,930.9633513159988,None,,,,,,,,,,,,,,,,,,,,,,,,,,,,,,,,,,,,,,,,,,,,001,63,2020_Feb_04_1215,spring_faces,3.1.5,60.04067070957856,
condition files/Stage2_2.xlsx,,B3,T3,s,"['s', 'r']","['Stratego', 'Risk']","[-0.15, 0.5]","[0.15, 0.5]",1,1,,,,,,,,,,,,,,,,,0,1,1,1,0,3,3,4,,,,,,,,,,,,,,,,,,,,,,,,,,,,,,,,,,,,,,,,,,,,,,,932.912945176,None,932.912945176,None,932.912945176,None,s,1,2.0792620579995855,934.4474303159986,None,934.4474303159986,None,934.4474303159986,None,936.5795617479998,None,936.5795617479998,None,936.5795617479998,None,936.5795617479998,None,,,,,,,,,,,,,,,,,,,,,,,,,,,,,,,,,,,,,,,,,,,,001,63,2020_Feb_04_1215,spring_faces,3.1.5,60.04067070957856,
condition files/Stage2_2.xlsx,,T6,B6,r,"['s', 'r']","['Stratego', 'Risk']","[-0.15, 0.5]","[0.15, 0.5]",1,1,,,,,,,,,,,,,,,,,0,1,1,1,0,4,4,1,,,,,,,,,,,,,,,,,,,,,,,,,,,,,,,,,,,,,,,,,,,,,,,938.5461647419997,None,938.5461647419997,None,938.5461647419997,None,s,0,3.262479091001296,940.0801452039996,None,940.0801452039996,None,940.0801452039996,None,943.3977482539995,None,943.3977482539995,None,943.3977482539995,None,943.3977482539995,None,,,,,,,,,,,,,,,,,,,,,,,,,,,,,,,,,,,,,,,,,,,,001,63,2020_Feb_04_1215,spring_faces,3.1.5,60.04067070957856,
condition files/Stage2_2.xlsx,,T4,B4,r,"['s', 'r']","['Stratego', 'Risk']","[-0.15, 0.5]","[0.15, 0.5]",1,1,,,,,,,,,,,,,,,,,0,1,1,1,0,5,5,5,,,,,,,,,,,,,,,,,,,,,,,,,,,,,,,,,,,,,,,,,,,,,,,945.3631989919995,None,945.3631989919995,None,945.3631989919995,None,r,1,2.0778044819999195,946.8967589619988,None,946.8967589619988,None,946.8967589619988,None,949.0302522860002,None,949.0302522860002,None,949.0302522860002,None,949.0302522860002,None,,,,,,,,,,,,,,,,,,,,,,,,,,,,,,,,,,,,,,,,,,,,001,63,2020_Feb_04_1215,spring_faces,3.1.5,60.04067070957856,
condition files/Stage2_1.xlsx,,B2,T2,r,"['s', 'r']","['Stratego', 'Risk']","[-0.15, 0.5]","[0.15, 0.5]",1,1,,,,,,,,,,,,,,,,,0,2,2,2,0,0,0,3,,,,,,,,,,,,,,,,,,,,,,,,,,,,,,,,,,,,,,,,,,,,,,,951.0126506319993,None,951.0126506319993,None,951.0126506319993,None,s,0,1.9154281350001838,952.5631792240001,None,952.5631792240001,None,952.5631792240001,None,954.5297849439994,None,954.5297849439994,None,954.5297849439994,None,954.5297849439994,None,,,,,,,,,,,,,,,,,,,,,,,,,,,,,,,,,,,,,,,,,,,,001,63,2020_Feb_04_1215,spring_faces,3.1.5,60.04067070957856,
condition files/Stage2_1.xlsx,,B6,T6,r,"['s', 'r']","['Stratego', 'Risk']","[-0.15, 0.5]","[0.15, 0.5]",1,1,,,,,,,,,,,,,,,,,0,2,2,2,0,1,1,1,,,,,,,,,,,,,,,,,,,,,,,,,,,,,,,,,,,,,,,,,,,,,,,956.4964401059988,None,956.4964401059988,None,956.4964401059988,None,r,1,2.5447512560003815,958.0297864849999,None,958.0297864849999,None,958.0297864849999,None,960.6299490459987,None,960.6299490459987,None,960.6299490459987,None,960.6299490459987,None,,,,,,,,,,,,,,,,,,,,,,,,,,,,,,,,,,,,,,,,,,,,001,63,2020_Feb_04_1215,spring_faces,3.1.5,60.04067070957856,
condition files/Stage2_1.xlsx,,T3,B3,s,"['s', 'r']","['Stratego', 'Risk']","[-0.15, 0.5]","[0.15, 0.5]",1,1,,,,,,,,,,,,,,,,,0,2,2,2,0,2,2,4,,,,,,,,,,,,,,,,,,,,,,,,,,,,,,,,,,,,,,,,,,,,,,,962.5965830019995,None,962.5965830019995,None,962.5965830019995,None,s,1,2.3167877930009126,964.1298445339999,None,964.1298445339999,None,964.1298445339999,None,966.4989524089997,None,966.4989524089997,None,966.4989524089997,None,966.4989524089997,None,,,,,,,,,,,,,,,,,,,,,,,,,,,,,,,,,,,,,,,,,,,,001,63,2020_Feb_04_1215,spring_faces,3.1.5,60.04067070957856,
condition files/Stage2_1.xlsx,,T1,B1,s,"['s', 'r']","['Stratego', 'Risk']","[-0.15, 0.5]","[0.15, 0.5]",1,1,,,,,,,,,,,,,,,,,0,2,2,2,0,3,3,2,,,,,,,,,,,,,,,,,,,,,,,,,,,,,,,,,,,,,,,,,,,,,,,968.4631842660001,None,968.4631842660001,None,968.4631842660001,None,s,1,1.5051102500001434,969.9975364080001,None,969.9975364080001,None,969.9975364080001,None,971.5633488259991,None,971.5633488259991,None,971.5633488259991,None,971.5633488259991,None,,,,,,,,,,,,,,,,,,,,,,,,,,,,,,,,,,,,,,,,,,,,001,63,2020_Feb_04_1215,spring_faces,3.1.5,60.04067070957856,
condition files/Stage2_1.xlsx,,B4,T4,r,"['s', 'r']","['Stratego', 'Risk']","[-0.15, 0.5]","[0.15, 0.5]",1,1,,,,,,,,,,,,,,,,,0,2,2,2,0,4,4,5,,,,,,,,,,,,,,,,,,,,,,,,,,,,,,,,,,,,,,,,,,,,,,,973.5294791219985,None,973.5294791219985,None,973.5294791219985,None,r,1,1.59193647200118,975.0627536269985,None,975.0627536269985,None,975.0627536269985,None,976.7149869679997,None,976.7149869679997,None,976.7149869679997,None,976.7149869679997,None,,,,,,,,,,,,,,,,,,,,,,,,,,,,,,,,,,,,,,,,,,,,001,63,2020_Feb_04_1215,spring_faces,3.1.5,60.04067070957856,
condition files/Stage2_1.xlsx,,T5,B5,s,"['s', 'r']","['Stratego', 'Risk']","[-0.15, 0.5]","[0.15, 0.5]",1,1,,,,,,,,,,,,,,,,,0,2,2,2,0,5,5,0,,,,,,,,,,,,,,,,,,,,,,,,,,,,,,,,,,,,,,,,,,,,,,,978.6795198039999,None,978.6795198039999,None,978.6795198039999,None,r,0,1.5777274390002276,980.2129756489994,None,980.2129756489994,None,980.2129756489994,None,981.8476431359995,None,981.8476431359995,None,981.8476431359995,None,981.8476431359995,None,,,,,,,,,,,,,,,,,,,,,,,,,,,,,,,,,,,,,,,,,,,,001,63,2020_Feb_04_1215,spring_faces,3.1.5,60.04067070957856,
condition files/Stage2_2.xlsx,,T6,B6,r,"['s', 'r']","['Stratego', 'Risk']","[-0.15, 0.5]","[0.15, 0.5]",1,1,,,,,,,,,,,,,,,,,0,3,3,3,0,0,0,1,,,,,,,,,,,,,,,,,,,,,,,,,,,,,,,,,,,,,,,,,,,,,,,983.830013449,None,983.830013449,None,983.830013449,None,s,0,2.0888569359995017,985.3658441199987,None,985.3658441199987,None,985.3658441199987,None,987.5159787129996,None,987.5159787129996,None,987.5159787129996,None,987.5159787129996,None,,,,,,,,,,,,,,,,,,,,,,,,,,,,,,,,,,,,,,,,,,,,001,63,2020_Feb_04_1215,spring_faces,3.1.5,60.04067070957856,
condition files/Stage2_2.xlsx,,B5,T5,s,"['s', 'r']","['Stratego', 'Risk']","[-0.15, 0.5]","[0.15, 0.5]",1,1,,,,,,,,,,,,,,,,,0,3,3,3,0,1,1,0,,,,,,,,,,,,,,,,,,,,,,,,,,,,,,,,,,,,,,,,,,,,,,,989.4795019659996,None,989.4795019659996,None,989.4795019659996,None,s,1,1.863228918000459,991.0153899389989,None,991.0153899389989,None,991.0153899389989,None,992.9328983889991,None,992.9328983889991,None,992.9328983889991,None,992.9328983889991,None,,,,,,,,,,,,,,,,,,,,,,,,,,,,,,,,,,,,,,,,,,,,001,63,2020_Feb_04_1215,spring_faces,3.1.5,60.04067070957856,
condition files/Stage2_2.xlsx,,T2,B2,r,"['s', 'r']","['Stratego', 'Risk']","[-0.15, 0.5]","[0.15, 0.5]",1,1,,,,,,,,,,,,,,,,,0,3,3,3,0,2,2,3,,,,,,,,,,,,,,,,,,,,,,,,,,,,,,,,,,,,,,,,,,,,,,,994.8965023849996,None,994.8965023849996,None,994.8965023849996,None,s,0,1.4881944749995455,996.4464216319993,None,996.4464216319993,None,996.4464216319993,None,998.0131690889993,None,998.0131690889993,None,998.0131690889993,None,998.0131690889993,None,,,,,,,,,,,,,,,,,,,,,,,,,,,,,,,,,,,,,,,,,,,,001,63,2020_Feb_04_1215,spring_faces,3.1.5,60.04067070957856,
condition files/Stage2_2.xlsx,,T4,B4,r,"['s', 'r']","['Stratego', 'Risk']","[-0.15, 0.5]","[0.15, 0.5]",1,1,,,,,,,,,,,,,,,,,0,3,3,3,0,3,3,5,,,,,,,,,,,,,,,,,,,,,,,,,,,,,,,,,,,,,,,,,,,,,,,999.963201569999,None,999.963201569999,None,999.963201569999,None,s,0,1.4762656740003877,1001.4983562259986,None,1001.4983562259986,None,1001.4983562259986,None,1003.0299847759998,None,1003.0299847759998,None,1003.0299847759998,None,1003.0299847759998,None,,,,,,,,,,,,,,,,,,,,,,,,,,,,,,,,,,,,,,,,,,,,001,63,2020_Feb_04_1215,spring_faces,3.1.5,60.04067070957856,
condition files/Stage2_2.xlsx,,B1,T1,s,"['s', 'r']","['Stratego', 'Risk']","[-0.15, 0.5]","[0.15, 0.5]",1,1,,,,,,,,,,,,,,,,,0,3,3,3,0,4,4,2,,,,,,,,,,,,,,,,,,,,,,,,,,,,,,,,,,,,,,,,,,,,,,,1004.9965273339985,None,1004.9965273339985,None,1004.9965273339985,None,r,0,1.6760293480001565,1006.530658325999,None,1006.530658325999,None,1006.530658325999,None,1008.2640301020001,None,1008.2640301020001,None,1008.2640301020001,None,1008.2640301020001,None,,,,,,,,,,,,,,,,,,,,,,,,,,,,,,,,,,,,,,,,,,,,001,63,2020_Feb_04_1215,spring_faces,3.1.5,60.04067070957856,
condition files/Stage2_2.xlsx,,B3,T3,s,"['s', 'r']","['Stratego', 'Risk']","[-0.15, 0.5]","[0.15, 0.5]",1,1,,,,,,,,,,,,,,,,,0,3,3,3,0,5,5,4,,,,,,,,,,,,,,,,,,,,,,,,,,,,,,,,,,,,,,,,,,,,,,,1010.2293351560002,None,1010.2293351560002,None,1010.2293351560002,None,s,1,1.2909438280003087,1011.7637467610002,None,1011.7637467610002,None,1011.7637467610002,None,1013.1137836469989,None,1013.1137836469989,None,1013.1137836469989,None,1013.1137836469989,None,,,,,,,,,,,,,,,,,,,,,,,,,,,,,,,,,,,,,,,,,,,,001,63,2020_Feb_04_1215,spring_faces,3.1.5,60.04067070957856,
condition files/Stage2_1.xlsx,,B6,T6,r,"['s', 'r']","['Stratego', 'Risk']","[-0.15, 0.5]","[0.15, 0.5]",1,1,,,,,,,,,,,,,,,,,0,4,4,4,0,0,0,1,,,,,,,,,,,,,,,,,,,,,,,,,,,,,,,,,,,,,,,,,,,,,,,1015.096543538999,None,1015.096543538999,None,1015.096543538999,None,s,0,3.2407464739990246,1016.6299557399998,None,1016.6299557399998,None,1016.6299557399998,None,1019.9291687699988,None,1019.9291687699988,None,1019.9291687699988,None,1019.9291687699988,None,,,,,,,,,,,,,,,,,,,,,,,,,,,,,,,,,,,,,,,,,,,,001,63,2020_Feb_04_1215,spring_faces,3.1.5,60.04067070957856,
condition files/Stage2_1.xlsx,,T3,B3,s,"['s', 'r']","['Stratego', 'Risk']","[-0.15, 0.5]","[0.15, 0.5]",1,1,,,,,,,,,,,,,,,,,0,4,4,4,0,1,1,4,,,,,,,,,,,,,,,,,,,,,,,,,,,,,,,,,,,,,,,,,,,,,,,1021.8964254279999,None,1021.8964254279999,None,1021.8964254279999,None,s,1,1.1124126779996004,1023.4462033499985,None,1023.4462033499985,None,1023.4462033499985,None,1024.6299322489995,None,1024.6299322489995,None,1024.6299322489995,None,1024.6299322489995,None,,,,,,,,,,,,,,,,,,,,,,,,,,,,,,,,,,,,,,,,,,,,001,63,2020_Feb_04_1215,spring_faces,3.1.5,60.04067070957856,
condition files/Stage2_1.xlsx,,B2,T2,r,"['s', 'r']","['Stratego', 'Risk']","[-0.15, 0.5]","[0.15, 0.5]",1,1,,,,,,,,,,,,,,,,,0,4,4,4,0,2,2,3,,,,,,,,,,,,,,,,,,,,,,,,,,,,,,,,,,,,,,,,,,,,,,,1026.5793161269994,None,1026.5793161269994,None,1026.5793161269994,None,r,1,2.539516069000456,1028.1311604869989,None,1028.1311604869989,None,1028.1311604869989,None,1030.7322744599987,None,1030.7322744599987,None,1030.7322744599987,None,1030.7322744599987,None,,,,,,,,,,,,,,,,,,,,,,,,,,,,,,,,,,,,,,,,,,,,001,63,2020_Feb_04_1215,spring_faces,3.1.5,60.04067070957856,
condition files/Stage2_1.xlsx,,T1,B1,s,"['s', 'r']","['Stratego', 'Risk']","[-0.15, 0.5]","[0.15, 0.5]",1,1,,,,,,,,,,,,,,,,,0,4,4,4,0,3,3,2,,,,,,,,,,,,,,,,,,,,,,,,,,,,,,,,,,,,,,,,,,,,,,,1032.6962883609995,None,1032.6962883609995,None,1032.6962883609995,None,r,0,2.008788999000899,1034.2299010759998,None,1034.2299010759998,None,1034.2299010759998,None,1036.297709086999,None,1036.297709086999,None,1036.297709086999,None,1036.297709086999,None,,,,,,,,,,,,,,,,,,,,,,,,,,,,,,,,,,,,,,,,,,,,001,63,2020_Feb_04_1215,spring_faces,3.1.5,60.04067070957856,
