condsFile,subStage,cue1,cue2,correct,responseKeys,responseNames,cue1Position,cue2Position,cue1Opacity,cue2Opacity,stageLoop0.thisRepN,stageLoop0.thisTrialN,stageLoop0.thisN,stageLoop0.thisIndex,blockLoop0.thisRepN,blockLoop0.thisTrialN,blockLoop0.thisN,blockLoop0.thisIndex,stage1Loop.thisRepN,stage1Loop.thisTrialN,stage1Loop.thisN,stage1Loop.thisIndex,blockLoop1.thisRepN,blockLoop1.thisTrialN,blockLoop1.thisN,blockLoop1.thisIndex,stage2Loop.thisRepN,stage2Loop.thisTrialN,stage2Loop.thisN,stage2Loop.thisIndex,blockLoop2.thisRepN,blockLoop2.thisTrialN,blockLoop2.thisN,blockLoop2.thisIndex,testLoop.thisRepN,testLoop.thisTrialN,testLoop.thisN,testLoop.thisIndex,blockLoopTest.thisRepN,blockLoopTest.thisTrialN,blockLoopTest.thisN,blockLoopTest.thisIndex,cuePics,id_instr_text.started,id_instr_text.stopped,space_to_continue_2.started,space_to_continue_2.stopped,end_instructions_resp_3.keys,end_instructions_resp_3.rt,end_instructions_resp_3.started,end_instructions_resp_3.stopped,id_input_instr.started,id_input_instr.stopped,id_input_rect.started,id_input_rect.stopped,id_input_resp.keys,id_input_resp.rt,id_input_resp.started,id_input_resp.stopped,sonaID,id_input_text.started,id_input_text.stopped,final_text.started,final_text.stopped,instructions.started,instructions.stopped,end_instructions_resp.keys,end_instructions_resp.rt,end_instructions_resp.started,end_instructions_resp.stopped,space_to_continue.started,space_to_continue.stopped,instructions_stage0.started,instructions_stage0.stopped,end_instructions_resp_stage0.keys,end_instructions_resp_stage0.rt,end_instructions_resp_stage0.started,end_instructions_resp_stage0.stopped,space_to_continue_stage0.started,space_to_continue_stage0.stopped,text.started,text.stopped,resp_text1.started,resp_text1.stopped,resp_text2.started,resp_text2.stopped,trial_resp.keys,trial_resp.corr,trial_resp.rt,trial_resp.started,trial_resp.stopped,cue1Image.started,cue1Image.stopped,cue2Image.started,cue2Image.stopped,cue1Image_fb.started,cue1Image_fb.stopped,cue2Image_fb.started,cue2Image_fb.stopped,fb_text_answer.started,fb_text_answer.stopped,feedback_image.started,feedback_image.stopped,instructions_stage1.started,instructions_stage1.stopped,end_instructions_resp_stage1.keys,end_instructions_resp_stage1.rt,end_instructions_resp_stage1.started,end_instructions_resp_stage1.stopped,space_to_continue_stage1.started,space_to_continue_stage1.stopped,instructions_2.started,instructions_2.stopped,end_instructions_resp_2.keys,end_instructions_resp_2.rt,end_instructions_resp_2.started,end_instructions_resp_2.stopped,press_space_to_continue_stage2.started,press_space_to_continue_stage2.stopped,instructions_testStage1.started,instructions_testStage1.stopped,end_instructions_resp_test1.keys,end_instructions_resp_test1.rt,end_instructions_resp_test1.started,end_instructions_resp_test1.stopped,press_space_to_continue_test1.started,press_space_to_continue_test1.stopped,cue1Image_testChoice.started,cue1Image_testChoice.stopped,cue2Image_testChoice.started,cue2Image_testChoice.stopped,test_resp.keys,test_resp.corr,test_resp.rt,test_resp.started,test_resp.stopped,cue1Image_testConf.started,cue1Image_testConf.stopped,cue2Image_testConf.started,cue2Image_testConf.stopped,conf_reminder.started,conf_reminder.stopped,conf_rating.response,conf_rating.rt,conf_rating.started,conf_rating.stopped,session,participant,date,expName,psychopyVersion,frameRate,
,,,,,,,,,,,,,,,,,,,,,,,,,,,,,,,,,,,,,,,,,,,"{'none': 'pictures/20M_AN_C.png', 'alpha': 'pictures/SHINEd_apple.png', 'beta': 'pictures/SHINEd_pear.png', 'theta': 'pictures/SHINEd_pepper.png', 'phi': 'pictures/SHINEd_melon.png', 'T1': 'pictures/33M_AN_C.png', 'T2': 'pictures/38M_AN_C.png', 'T3': 'pictures/23M_AN_C.png', 'T4': 'pictures/37M_AN_C.png', 'T5': 'pictures/25M_AN_C.png', 'T6': 'pictures/26M_AN_C.png', 'B1': 'pictures/20M_NE_C.png', 'B2': 'pictures/22M_NE_C.png', 'B3': 'pictures/31M_NE_C.png', 'B4': 'pictures/36M_NE_C.png', 'B5': 'pictures/32M_NE_C.png', 'B6': 'pictures/34M_NE_C.png'}",17.268610819999594,None,22.269179881999662,None,space,11.957423738998841,22.269179881999662,None,,,,,,,,,,,,,,,,,,,,,,,,,,,,,,,,,,,,,,,,,,,,,,,,,,,,,,,,,,,,,,,,,,,,,,,,,,,,,,,,,,,,,,,,,,,,,,,,001,66,2020_Feb_04_1401,spring_faces,3.1.5,60.0373911672121,
,,,,,,,,,,,,,,,,,,,,,,,,,,,,,,,,,,,,,,,,,,,,,,,,,,,,34.60457067399875,None,34.60457067399875,None,"['0', '7', '1', '7', 'b', 'o', 'm', 'i', 'u', 'backspace', '0', '7', '1', '7', 'b', 'o', 'm', 'o', 'u']","[16.40604147799968, 16.533966840001085, 25.717979842000204, 25.797944914000254, 33.70198074700056, 33.78194697099934, 41.110006912000244, 41.238023070000054, 41.49397499800034, 42.34204083000077, 50.00603751200106, 50.10196600500058, 54.869978136999634, 54.93397312900015, 57.845971583999926, 57.89394140100012, 60.94992220200038, 61.71797957600029, 62.565946710999924]",34.60457067399875,None,,,,,,,,,,,,,,,,,,,,,,,,,,,,,,,,,,,,,,,,,,,,,,,,,,,,,,,,,,,,,,,,,,,,,,,,,,,,,,,,,,,,,,,,001,66,2020_Feb_04_1401,spring_faces,3.1.5,60.0373911672121,
,,,,,,,,,,,,,,,,,,,,,,,,,,,,,,,,,,,,,,,,,,,,,,,,,,,,,,,,,,,,0717bomou,34.60457067399875,None,34.60457067399875,None,102.25288391199865,None,space,1.518062588000248,107.25243026099997,None,,,,,,,,,,,,,,,,,,,,,,,,,,,,,,,,,,,,,,,,,,,,,,,,,,,,,,,,,,,,,,,,,,,,,,,,,,,,,001,66,2020_Feb_04_1401,spring_faces,3.1.5,60.0373911672121,
,,,,,,,,,,,,,,,,,,,,,,,,,,,,,,,,,,,,,,,,,,,,,,,,,,,,,,,,,,,,,,,,,,,,,,,107.25243026099997,None,108.81933658999878,None,space,7.095072575999438,113.81946534899907,None,,,,,,,,,,,,,,,,,,,,,,,,,,,,,,,,,,,,,,,,,,,,,,,,,,,,,,,,,,,,,,,,,,,,,001,66,2020_Feb_04_1401,spring_faces,3.1.5,60.0373911672121,
condition files/Stage0a.xlsx,0a,alpha,none,h,"['h', 'g']","['Chess', 'Go']","[0, 0.5]","[0, 0]",1,0,0,0,0,0,0,0,0,0,,,,,,,,,,,,,,,,,,,,,,,,,,,,,,,,,,,,,,,,,,,,,,,,,,,,,,,,,,,,,113.81946534899907,None,121.01934474100017,None,121.01934474100017,None,121.01934474100017,None,h,1,5.417877810999926,122.55263314199874,None,122.55263314199874,None,122.55263314199874,None,128.05209228700005,None,128.05209228700005,None,128.05209228700005,None,128.05209228700005,None,,,,,,,,,,,,,,,,,,,,,,,,,,,,,,,,,,,,,,,,,,,,001,66,2020_Feb_04_1401,spring_faces,3.1.5,60.0373911672121,
condition files/Stage0a.xlsx,0a,beta,none,g,"['h', 'g']","['Chess', 'Go']","[0, 0.5]","[0, 0]",1,0,0,0,0,0,0,1,1,1,,,,,,,,,,,,,,,,,,,,,,,,,,,,,,,,,,,,,,,,,,,,,,,,,,,,,,,,,,,,,,,130.0024548349993,None,130.0024548349993,None,130.0024548349993,None,h,0,2.5933754520010552,131.55323417499858,None,131.55323417499858,None,131.55323417499858,None,134.20209301499926,None,134.20209301499926,None,134.20209301499926,None,134.20209301499926,None,,,,,,,,,,,,,,,,,,,,,,,,,,,,,,,,,,,,,,,,,,,,001,66,2020_Feb_04_1401,spring_faces,3.1.5,60.0373911672121,
condition files/Stage0a.xlsx,0a,beta,none,g,"['h', 'g']","['Chess', 'Go']","[0, 0.5]","[0, 0]",1,0,0,1,1,1,0,0,0,1,,,,,,,,,,,,,,,,,,,,,,,,,,,,,,,,,,,,,,,,,,,,,,,,,,,,,,,,,,,,,,,136.18595283099967,None,136.18595283099967,None,136.18595283099967,None,h,0,3.0834013059993595,137.7190922209993,None,137.7190922209993,None,137.7190922209993,None,140.8693165829991,None,140.8693165829991,None,140.8693165829991,None,140.8693165829991,None,,,,,,,,,,,,,,,,,,,,,,,,,,,,,,,,,,,,,,,,,,,,001,66,2020_Feb_04_1401,spring_faces,3.1.5,60.0373911672121,
condition files/Stage0a.xlsx,0a,alpha,none,h,"['h', 'g']","['Chess', 'Go']","[0, 0.5]","[0, 0]",1,0,0,1,1,1,0,1,1,0,,,,,,,,,,,,,,,,,,,,,,,,,,,,,,,,,,,,,,,,,,,,,,,,,,,,,,,,,,,,,,,142.83551784299925,None,142.83551784299925,None,142.83551784299925,None,h,1,1.47378134200153,144.36879737699928,None,144.36879737699928,None,144.36879737699928,None,145.90206770300028,None,145.90206770300028,None,145.90206770300028,None,145.90206770300028,None,,,,,,,,,,,,,,,,,,,,,,,,,,,,,,,,,,,,,,,,,,,,001,66,2020_Feb_04_1401,spring_faces,3.1.5,60.0373911672121,
condition files/Stage0a.xlsx,0a,alpha,none,h,"['h', 'g']","['Chess', 'Go']","[0, 0.5]","[0, 0]",1,0,0,2,2,2,0,0,0,0,,,,,,,,,,,,,,,,,,,,,,,,,,,,,,,,,,,,,,,,,,,,,,,,,,,,,,,,,,,,,,,147.88590964799914,None,147.88590964799914,None,147.88590964799914,None,h,1,1.3192255009998917,149.41931234000003,None,149.41931234000003,None,149.41931234000003,None,150.80240903399863,None,150.80240903399863,None,150.80240903399863,None,150.80240903399863,None,,,,,,,,,,,,,,,,,,,,,,,,,,,,,,,,,,,,,,,,,,,,001,66,2020_Feb_04_1401,spring_faces,3.1.5,60.0373911672121,
condition files/Stage0a.xlsx,0a,beta,none,g,"['h', 'g']","['Chess', 'Go']","[0, 0.5]","[0, 0]",1,0,0,2,2,2,0,1,1,1,,,,,,,,,,,,,,,,,,,,,,,,,,,,,,,,,,,,,,,,,,,,,,,,,,,,,,,,,,,,,,,152.76896394699907,None,152.76896394699907,None,152.76896394699907,None,g,1,0.7082417110013921,154.30235729299966,None,154.30235729299966,None,154.30235729299966,None,155.06899744200018,None,155.06899744200018,None,155.06899744200018,None,155.06899744200018,None,,,,,,,,,,,,,,,,,,,,,,,,,,,,,,,,,,,,,,,,,,,,001,66,2020_Feb_04_1401,spring_faces,3.1.5,60.0373911672121,
condition files/Stage0a.xlsx,0a,beta,none,g,"['h', 'g']","['Chess', 'Go']","[0, 0.5]","[0, 0]",1,0,0,3,3,3,0,0,0,1,,,,,,,,,,,,,,,,,,,,,,,,,,,,,,,,,,,,,,,,,,,,,,,,,,,,,,,,,,,,,,,157.05241204699996,None,157.05241204699996,None,157.05241204699996,None,g,1,0.6331436760010547,158.58538625899928,None,158.58538625899928,None,158.58538625899928,None,159.26917600199886,None,159.26917600199886,None,159.26917600199886,None,159.26917600199886,None,,,,,,,,,,,,,,,,,,,,,,,,,,,,,,,,,,,,,,,,,,,,001,66,2020_Feb_04_1401,spring_faces,3.1.5,60.0373911672121,
condition files/Stage0a.xlsx,0a,alpha,none,h,"['h', 'g']","['Chess', 'Go']","[0, 0.5]","[0, 0]",1,0,0,3,3,3,0,1,1,0,,,,,,,,,,,,,,,,,,,,,,,,,,,,,,,,,,,,,,,,,,,,,,,,,,,,,,,,,,,,,,,161.23549513999933,None,161.23549513999933,None,161.23549513999933,None,h,1,0.7374043420004455,162.7691326160002,None,162.7691326160002,None,162.7691326160002,None,163.56936611699894,None,163.56936611699894,None,163.56936611699894,None,163.56936611699894,None,,,,,,,,,,,,,,,,,,,,,,,,,,,,,,,,,,,,,,,,,,,,001,66,2020_Feb_04_1401,spring_faces,3.1.5,60.0373911672121,
condition files/Stage0a.xlsx,0a,alpha,none,h,"['h', 'g']","['Chess', 'Go']","[0, 0.5]","[0, 0]",1,0,0,4,4,4,0,0,0,0,,,,,,,,,,,,,,,,,,,,,,,,,,,,,,,,,,,,,,,,,,,,,,,,,,,,,,,,,,,,,,,165.5522746379993,None,165.5522746379993,None,165.5522746379993,None,g,0,1.2847525689994654,167.08576562099915,None,167.08576562099915,None,167.08576562099915,None,168.43597129299997,None,168.43597129299997,None,168.43597129299997,None,168.43597129299997,None,,,,,,,,,,,,,,,,,,,,,,,,,,,,,,,,,,,,,,,,,,,,001,66,2020_Feb_04_1401,spring_faces,3.1.5,60.0373911672121,
condition files/Stage0a.xlsx,0a,beta,none,g,"['h', 'g']","['Chess', 'Go']","[0, 0.5]","[0, 0]",1,0,0,4,4,4,0,1,1,1,,,,,,,,,,,,,,,,,,,,,,,,,,,,,,,,,,,,,,,,,,,,,,,,,,,,,,,,,,,,,,,170.4023003379989,None,170.4023003379989,None,170.4023003379989,None,g,1,1.18731708300038,171.93521535499895,None,171.93521535499895,None,171.93521535499895,None,173.18570364100015,None,173.18570364100015,None,173.18570364100015,None,173.18570364100015,None,,,,,,,,,,,,,,,,,,,,,,,,,,,,,,,,,,,,,,,,,,,,001,66,2020_Feb_04_1401,spring_faces,3.1.5,60.0373911672121,
condition files/Stage0a.xlsx,0a,alpha,none,h,"['h', 'g']","['Chess', 'Go']","[0, 0.5]","[0, 0]",1,0,0,5,5,5,0,0,0,0,,,,,,,,,,,,,,,,,,,,,,,,,,,,,,,,,,,,,,,,,,,,,,,,,,,,,,,,,,,,,,,175.16935531499985,None,175.16935531499985,None,175.16935531499985,None,h,1,0.9477931710007397,176.70274253299976,None,176.70274253299976,None,176.70274253299976,None,177.7023286269996,None,177.7023286269996,None,177.7023286269996,None,177.7023286269996,None,,,,,,,,,,,,,,,,,,,,,,,,,,,,,,,,,,,,,,,,,,,,001,66,2020_Feb_04_1401,spring_faces,3.1.5,60.0373911672121,
condition files/Stage0a.xlsx,0a,beta,none,g,"['h', 'g']","['Chess', 'Go']","[0, 0.5]","[0, 0]",1,0,0,5,5,5,0,1,1,1,,,,,,,,,,,,,,,,,,,,,,,,,,,,,,,,,,,,,,,,,,,,,,,,,,,,,,,,,,,,,,,179.6688307429995,None,179.6688307429995,None,179.6688307429995,None,g,1,0.7522787189991504,181.20225127799858,None,181.20225127799858,None,181.20225127799858,None,182.01852247500028,None,182.01852247500028,None,182.01852247500028,None,182.01852247500028,None,,,,,,,,,,,,,,,,,,,,,,,,,,,,,,,,,,,,,,,,,,,,001,66,2020_Feb_04_1401,spring_faces,3.1.5,60.0373911672121,
condition files/Stage0b_1.xlsx,0b,alpha,none,h,"['h', 'g']","['Chess', 'Go']","[-0.15, 0.5]","[0.15, 0.5]",1,0,0,6,6,6,0,0,0,0,,,,,,,,,,,,,,,,,,,,,,,,,,,,,,,,,,,,,,,,,,,,,,,,,,,,,,,,,,,,,,,184.00250210800004,None,184.00250210800004,None,184.00250210800004,None,h,1,3.89065184699939,185.53595771300024,None,185.53595771300024,None,185.53595771300024,None,189.4856483980002,None,189.4856483980002,None,189.4856483980002,None,189.4856483980002,None,,,,,,,,,,,,,,,,,,,,,,,,,,,,,,,,,,,,,,,,,,,,001,66,2020_Feb_04_1401,spring_faces,3.1.5,60.0373911672121,
condition files/Stage0b_1.xlsx,0b,none,beta,g,"['h', 'g']","['Chess', 'Go']","[-0.15, 0.5]","[0.15, 0.5]",0,1,0,6,6,6,0,1,1,1,,,,,,,,,,,,,,,,,,,,,,,,,,,,,,,,,,,,,,,,,,,,,,,,,,,,,,,,,,,,,,,191.4520660369999,None,191.4520660369999,None,191.4520660369999,None,g,1,1.0319396520008013,193.00258842199946,None,193.00258842199946,None,193.00258842199946,None,194.0910300229989,None,194.0910300229989,None,194.0910300229989,None,194.0910300229989,None,,,,,,,,,,,,,,,,,,,,,,,,,,,,,,,,,,,,,,,,,,,,001,66,2020_Feb_04_1401,spring_faces,3.1.5,60.0373911672121,
condition files/Stage0b_2.xlsx,0b,beta,none,g,"['h', 'g']","['Chess', 'Go']","[-0.15, 0.5]","[0.15, 0.5]",1,0,0,7,7,7,0,0,0,1,,,,,,,,,,,,,,,,,,,,,,,,,,,,,,,,,,,,,,,,,,,,,,,,,,,,,,,,,,,,,,,196.06906868799888,None,196.06906868799888,None,196.06906868799888,None,g,1,3.2791334419998748,197.61941462699906,None,197.61941462699906,None,197.61941462699906,None,200.95256145999883,None,200.95256145999883,None,200.95256145999883,None,200.95256145999883,None,,,,,,,,,,,,,,,,,,,,,,,,,,,,,,,,,,,,,,,,,,,,001,66,2020_Feb_04_1401,spring_faces,3.1.5,60.0373911672121,
condition files/Stage0b_2.xlsx,0b,none,alpha,h,"['h', 'g']","['Chess', 'Go']","[-0.15, 0.5]","[0.15, 0.5]",0,1,0,7,7,7,0,1,1,0,,,,,,,,,,,,,,,,,,,,,,,,,,,,,,,,,,,,,,,,,,,,,,,,,,,,,,,,,,,,,,,202.91904600700036,None,202.91904600700036,None,202.91904600700036,None,h,1,1.1795318610002141,204.4550120040003,None,204.4550120040003,None,204.4550120040003,None,205.6875256129988,None,205.6875256129988,None,205.6875256129988,None,205.6875256129988,None,,,,,,,,,,,,,,,,,,,,,,,,,,,,,,,,,,,,,,,,,,,,001,66,2020_Feb_04_1401,spring_faces,3.1.5,60.0373911672121,
condition files/Stage0b_1.xlsx,0b,alpha,none,h,"['h', 'g']","['Chess', 'Go']","[-0.15, 0.5]","[0.15, 0.5]",1,0,0,8,8,8,0,0,0,0,,,,,,,,,,,,,,,,,,,,,,,,,,,,,,,,,,,,,,,,,,,,,,,,,,,,,,,,,,,,,,,207.66851604399926,None,207.66851604399926,None,207.66851604399926,None,h,1,0.589588298000308,209.2050335269996,None,209.2050335269996,None,209.2050335269996,None,209.85256870099875,None,209.85256870099875,None,209.85256870099875,None,209.85256870099875,None,,,,,,,,,,,,,,,,,,,,,,,,,,,,,,,,,,,,,,,,,,,,001,66,2020_Feb_04_1401,spring_faces,3.1.5,60.0373911672121,
condition files/Stage0b_1.xlsx,0b,none,beta,g,"['h', 'g']","['Chess', 'Go']","[-0.15, 0.5]","[0.15, 0.5]",0,1,0,8,8,8,0,1,1,1,,,,,,,,,,,,,,,,,,,,,,,,,,,,,,,,,,,,,,,,,,,,,,,,,,,,,,,,,,,,,,,211.81905738999922,None,211.81905738999922,None,211.81905738999922,None,g,1,1.0810374169996066,213.35350145600023,None,213.35350145600023,None,213.35350145600023,None,214.486702917,None,214.486702917,None,214.486702917,None,214.486702917,None,,,,,,,,,,,,,,,,,,,,,,,,,,,,,,,,,,,,,,,,,,,,001,66,2020_Feb_04_1401,spring_faces,3.1.5,60.0373911672121,
condition files/Stage0b_2.xlsx,0b,beta,none,g,"['h', 'g']","['Chess', 'Go']","[-0.15, 0.5]","[0.15, 0.5]",1,0,0,9,9,9,0,0,0,1,,,,,,,,,,,,,,,,,,,,,,,,,,,,,,,,,,,,,,,,,,,,,,,,,,,,,,,,,,,,,,,216.46937476499988,None,216.46937476499988,None,216.46937476499988,None,g,1,0.6233189859995036,218.019279868,None,218.019279868,None,218.019279868,None,218.70262542699857,None,218.70262542699857,None,218.70262542699857,None,218.70262542699857,None,,,,,,,,,,,,,,,,,,,,,,,,,,,,,,,,,,,,,,,,,,,,001,66,2020_Feb_04_1401,spring_faces,3.1.5,60.0373911672121,
condition files/Stage0b_2.xlsx,0b,none,alpha,h,"['h', 'g']","['Chess', 'Go']","[-0.15, 0.5]","[0.15, 0.5]",0,1,0,9,9,9,0,1,1,0,,,,,,,,,,,,,,,,,,,,,,,,,,,,,,,,,,,,,,,,,,,,,,,,,,,,,,,,,,,,,,,220.66904072099896,None,220.66904072099896,None,220.66904072099896,None,h,1,1.686585756999193,222.20396612900004,None,222.20396612900004,None,222.20396612900004,None,223.9542952949996,None,223.9542952949996,None,223.9542952949996,None,223.9542952949996,None,,,,,,,,,,,,,,,,,,,,,,,,,,,,,,,,,,,,,,,,,,,,001,66,2020_Feb_04_1401,spring_faces,3.1.5,60.0373911672121,
condition files/Stage0b_1.xlsx,0b,none,beta,g,"['h', 'g']","['Chess', 'Go']","[-0.15, 0.5]","[0.15, 0.5]",0,1,0,10,10,10,0,0,0,1,,,,,,,,,,,,,,,,,,,,,,,,,,,,,,,,,,,,,,,,,,,,,,,,,,,,,,,,,,,,,,,225.93614412500028,None,225.93614412500028,None,225.93614412500028,None,g,1,0.6139559999992343,227.46870442999898,None,227.46870442999898,None,227.46870442999898,None,228.13581063799938,None,228.13581063799938,None,228.13581063799938,None,228.13581063799938,None,,,,,,,,,,,,,,,,,,,,,,,,,,,,,,,,,,,,,,,,,,,,001,66,2020_Feb_04_1401,spring_faces,3.1.5,60.0373911672121,
condition files/Stage0b_1.xlsx,0b,alpha,none,h,"['h', 'g']","['Chess', 'Go']","[-0.15, 0.5]","[0.15, 0.5]",1,0,0,10,10,10,0,1,1,0,,,,,,,,,,,,,,,,,,,,,,,,,,,,,,,,,,,,,,,,,,,,,,,,,,,,,,,,,,,,,,,230.10232203899977,None,230.10232203899977,None,230.10232203899977,None,h,1,0.8250407460000133,231.64150683200023,None,231.64150683200023,None,231.64150683200023,None,232.52297954799906,None,232.52297954799906,None,232.52297954799906,None,232.52297954799906,None,,,,,,,,,,,,,,,,,,,,,,,,,,,,,,,,,,,,,,,,,,,,001,66,2020_Feb_04_1401,spring_faces,3.1.5,60.0373911672121,
condition files/Stage0b_2.xlsx,0b,beta,none,g,"['h', 'g']","['Chess', 'Go']","[-0.15, 0.5]","[0.15, 0.5]",1,0,0,11,11,11,0,0,0,1,,,,,,,,,,,,,,,,,,,,,,,,,,,,,,,,,,,,,,,,,,,,,,,,,,,,,,,,,,,,,,,234.50265812999896,None,234.50265812999896,None,234.50265812999896,None,g,1,0.7672745939999004,236.0352727059999,None,236.0352727059999,None,236.0352727059999,None,236.8525376839989,None,236.8525376839989,None,236.8525376839989,None,236.8525376839989,None,,,,,,,,,,,,,,,,,,,,,,,,,,,,,,,,,,,,,,,,,,,,001,66,2020_Feb_04_1401,spring_faces,3.1.5,60.0373911672121,
condition files/Stage0b_2.xlsx,0b,none,alpha,h,"['h', 'g']","['Chess', 'Go']","[-0.15, 0.5]","[0.15, 0.5]",0,1,0,11,11,11,0,1,1,0,,,,,,,,,,,,,,,,,,,,,,,,,,,,,,,,,,,,,,,,,,,,,,,,,,,,,,,,,,,,,,,238.81891818300028,None,238.81891818300028,None,238.81891818300028,None,h,1,0.8624729729999672,240.35606842199923,None,240.35606842199923,None,240.35606842199923,None,241.28610924900022,None,241.28610924900022,None,241.28610924900022,None,241.28610924900022,None,,,,,,,,,,,,,,,,,,,,,,,,,,,,,,,,,,,,,,,,,,,,001,66,2020_Feb_04_1401,spring_faces,3.1.5,60.0373911672121,
condition files/Stage0c_1.xlsx,0c,theta,alpha,h,"['h', 'g']","['Chess', 'Go']","[-0.15, 0.5]","[0.15, 0.5]",1,1,0,12,12,12,0,0,0,0,,,,,,,,,,,,,,,,,,,,,,,,,,,,,,,,,,,,,,,,,,,,,,,,,,,,,,,,,,,,,,,243.25260430900016,None,243.25260430900016,None,243.25260430900016,None,h,1,7.024874826000087,244.78573447899907,None,244.78573447899907,None,244.78573447899907,None,251.869206207999,None,251.869206207999,None,251.869206207999,None,251.869206207999,None,,,,,,,,,,,,,,,,,,,,,,,,,,,,,,,,,,,,,,,,,,,,001,66,2020_Feb_04_1401,spring_faces,3.1.5,60.0373911672121,
condition files/Stage0c_1.xlsx,0c,beta,theta,g,"['h', 'g']","['Chess', 'Go']","[-0.15, 0.5]","[0.15, 0.5]",1,1,0,12,12,12,0,1,1,2,,,,,,,,,,,,,,,,,,,,,,,,,,,,,,,,,,,,,,,,,,,,,,,,,,,,,,,,,,,,,,,253.8355848629999,None,253.8355848629999,None,253.8355848629999,None,g,1,1.0332837049991213,255.36924455499866,None,255.36924455499866,None,255.36924455499866,None,256.4524959720002,None,256.4524959720002,None,256.4524959720002,None,256.4524959720002,None,,,,,,,,,,,,,,,,,,,,,,,,,,,,,,,,,,,,,,,,,,,,001,66,2020_Feb_04_1401,spring_faces,3.1.5,60.0373911672121,
condition files/Stage0c_1.xlsx,0c,phi,beta,g,"['h', 'g']","['Chess', 'Go']","[-0.15, 0.5]","[0.15, 0.5]",1,1,0,12,12,12,0,2,2,3,,,,,,,,,,,,,,,,,,,,,,,,,,,,,,,,,,,,,,,,,,,,,,,,,,,,,,,,,,,,,,,258.4191195809999,None,258.4191195809999,None,258.4191195809999,None,g,1,0.6422341970010166,259.95236442999885,None,259.95236442999885,None,259.95236442999885,None,260.6519301339995,None,260.6519301339995,None,260.6519301339995,None,260.6519301339995,None,,,,,,,,,,,,,,,,,,,,,,,,,,,,,,,,,,,,,,,,,,,,001,66,2020_Feb_04_1401,spring_faces,3.1.5,60.0373911672121,
condition files/Stage0c_1.xlsx,0c,alpha,phi,h,"['h', 'g']","['Chess', 'Go']","[-0.15, 0.5]","[0.15, 0.5]",1,1,0,12,12,12,0,3,3,1,,,,,,,,,,,,,,,,,,,,,,,,,,,,,,,,,,,,,,,,,,,,,,,,,,,,,,,,,,,,,,,262.61914674699983,None,262.61914674699983,None,262.61914674699983,None,h,1,1.1300865430002887,264.15255386900026,None,264.15255386900026,None,264.15255386900026,None,265.3360694849998,None,265.3360694849998,None,265.3360694849998,None,265.3360694849998,None,,,,,,,,,,,,,,,,,,,,,,,,,,,,,,,,,,,,,,,,,,,,001,66,2020_Feb_04_1401,spring_faces,3.1.5,60.0373911672121,
condition files/Stage0c_2.xlsx,0c,alpha,theta,h,"['h', 'g']","['Chess', 'Go']","[-0.15, 0.5]","[0.15, 0.5]",1,1,0,13,13,13,0,0,0,0,,,,,,,,,,,,,,,,,,,,,,,,,,,,,,,,,,,,,,,,,,,,,,,,,,,,,,,,,,,,,,,267.31881357199927,None,267.31881357199927,None,267.31881357199927,None,h,1,0.8138300760001584,268.8527010919988,None,268.8527010919988,None,268.8527010919988,None,269.7033586460002,None,269.7033586460002,None,269.7033586460002,None,269.7033586460002,None,,,,,,,,,,,,,,,,,,,,,,,,,,,,,,,,,,,,,,,,,,,,001,66,2020_Feb_04_1401,spring_faces,3.1.5,60.0373911672121,
condition files/Stage0c_2.xlsx,0c,beta,phi,g,"['h', 'g']","['Chess', 'Go']","[-0.15, 0.5]","[0.15, 0.5]",1,1,0,13,13,13,0,1,1,3,,,,,,,,,,,,,,,,,,,,,,,,,,,,,,,,,,,,,,,,,,,,,,,,,,,,,,,,,,,,,,,271.6858253289993,None,271.6858253289993,None,271.6858253289993,None,g,1,0.7034904009997263,273.2189800289998,None,273.2189800289998,None,273.2189800289998,None,273.9857443159999,None,273.9857443159999,None,273.9857443159999,None,273.9857443159999,None,,,,,,,,,,,,,,,,,,,,,,,,,,,,,,,,,,,,,,,,,,,,001,66,2020_Feb_04_1401,spring_faces,3.1.5,60.0373911672121,
condition files/Stage0c_2.xlsx,0c,theta,beta,g,"['h', 'g']","['Chess', 'Go']","[-0.15, 0.5]","[0.15, 0.5]",1,1,0,13,13,13,0,2,2,2,,,,,,,,,,,,,,,,,,,,,,,,,,,,,,,,,,,,,,,,,,,,,,,,,,,,,,,,,,,,,,,275.95242541900006,None,275.95242541900006,None,275.95242541900006,None,g,1,1.0130128149994562,277.4854868829989,None,277.4854868829989,None,277.4854868829989,None,278.5392330049999,None,278.5392330049999,None,278.5392330049999,None,278.5392330049999,None,,,,,,,,,,,,,,,,,,,,,,,,,,,,,,,,,,,,,,,,,,,,001,66,2020_Feb_04_1401,spring_faces,3.1.5,60.0373911672121,
condition files/Stage0c_2.xlsx,0c,phi,alpha,h,"['h', 'g']","['Chess', 'Go']","[-0.15, 0.5]","[0.15, 0.5]",1,1,0,13,13,13,0,3,3,1,,,,,,,,,,,,,,,,,,,,,,,,,,,,,,,,,,,,,,,,,,,,,,,,,,,,,,,,,,,,,,,280.519017573999,None,280.519017573999,None,280.519017573999,None,h,1,0.7344160820011894,282.05208866999965,None,282.05208866999965,None,282.05208866999965,None,282.8518804919986,None,282.8518804919986,None,282.8518804919986,None,282.8518804919986,None,,,,,,,,,,,,,,,,,,,,,,,,,,,,,,,,,,,,,,,,,,,,001,66,2020_Feb_04_1401,spring_faces,3.1.5,60.0373911672121,
condition files/Stage0c_1.xlsx,0c,theta,alpha,h,"['h', 'g']","['Chess', 'Go']","[-0.15, 0.5]","[0.15, 0.5]",1,1,0,14,14,14,0,0,0,0,,,,,,,,,,,,,,,,,,,,,,,,,,,,,,,,,,,,,,,,,,,,,,,,,,,,,,,,,,,,,,,284.83621473899984,None,284.83621473899984,None,284.83621473899984,None,h,1,1.6492830639999738,286.36925487999906,None,286.36925487999906,None,286.36925487999906,None,288.054064078,None,288.054064078,None,288.054064078,None,288.054064078,None,,,,,,,,,,,,,,,,,,,,,,,,,,,,,,,,,,,,,,,,,,,,001,66,2020_Feb_04_1401,spring_faces,3.1.5,60.0373911672121,
condition files/Stage0c_1.xlsx,0c,beta,theta,g,"['h', 'g']","['Chess', 'Go']","[-0.15, 0.5]","[0.15, 0.5]",1,1,0,14,14,14,0,1,1,2,,,,,,,,,,,,,,,,,,,,,,,,,,,,,,,,,,,,,,,,,,,,,,,,,,,,,,,,,,,,,,,290.03569343100025,None,290.03569343100025,None,290.03569343100025,None,g,1,1.0732731450007122,291.5692572549997,None,291.5692572549997,None,291.5692572549997,None,292.70178696199946,None,292.70178696199946,None,292.70178696199946,None,292.70178696199946,None,,,,,,,,,,,,,,,,,,,,,,,,,,,,,,,,,,,,,,,,,,,,001,66,2020_Feb_04_1401,spring_faces,3.1.5,60.0373911672121,
condition files/Stage0c_1.xlsx,0c,alpha,phi,h,"['h', 'g']","['Chess', 'Go']","[-0.15, 0.5]","[0.15, 0.5]",1,1,0,14,14,14,0,2,2,1,,,,,,,,,,,,,,,,,,,,,,,,,,,,,,,,,,,,,,,,,,,,,,,,,,,,,,,,,,,,,,,294.66907184499905,None,294.66907184499905,None,294.66907184499905,None,h,1,1.1601409100003366,296.20244548499977,None,296.20244548499977,None,296.20244548499977,None,297.41916200800006,None,297.41916200800006,None,297.41916200800006,None,297.41916200800006,None,,,,,,,,,,,,,,,,,,,,,,,,,,,,,,,,,,,,,,,,,,,,001,66,2020_Feb_04_1401,spring_faces,3.1.5,60.0373911672121,
condition files/Stage0c_1.xlsx,0c,phi,beta,g,"['h', 'g']","['Chess', 'Go']","[-0.15, 0.5]","[0.15, 0.5]",1,1,0,14,14,14,0,3,3,3,,,,,,,,,,,,,,,,,,,,,,,,,,,,,,,,,,,,,,,,,,,,,,,,,,,,,,,,,,,,,,,299.38742255099896,None,299.38742255099896,None,299.38742255099896,None,g,1,0.8596510659990599,300.9189736110002,None,300.9189736110002,None,300.9189736110002,None,301.83591908999915,None,301.83591908999915,None,301.83591908999915,None,301.83591908999915,None,,,,,,,,,,,,,,,,,,,,,,,,,,,,,,,,,,,,,,,,,,,,001,66,2020_Feb_04_1401,spring_faces,3.1.5,60.0373911672121,
condition files/Stage0c_2.xlsx,0c,alpha,theta,h,"['h', 'g']","['Chess', 'Go']","[-0.15, 0.5]","[0.15, 0.5]",1,1,0,15,15,15,0,0,0,0,,,,,,,,,,,,,,,,,,,,,,,,,,,,,,,,,,,,,,,,,,,,,,,,,,,,,,,,,,,,,,,303.81950444099857,None,303.81950444099857,None,303.81950444099857,None,h,1,1.3698819290002575,305.35266948699973,None,305.35266948699973,None,305.35266948699973,None,306.7855192959996,None,306.7855192959996,None,306.7855192959996,None,306.7855192959996,None,,,,,,,,,,,,,,,,,,,,,,,,,,,,,,,,,,,,,,,,,,,,001,66,2020_Feb_04_1401,spring_faces,3.1.5,60.0373911672121,
condition files/Stage0c_2.xlsx,0c,theta,beta,g,"['h', 'g']","['Chess', 'Go']","[-0.15, 0.5]","[0.15, 0.5]",1,1,0,15,15,15,0,1,1,2,,,,,,,,,,,,,,,,,,,,,,,,,,,,,,,,,,,,,,,,,,,,,,,,,,,,,,,,,,,,,,,308.75235144900034,None,308.75235144900034,None,308.75235144900034,None,g,1,0.916630558000179,310.2859022779994,None,310.2859022779994,None,310.2859022779994,None,311.25261641499856,None,311.25261641499856,None,311.25261641499856,None,311.25261641499856,None,,,,,,,,,,,,,,,,,,,,,,,,,,,,,,,,,,,,,,,,,,,,001,66,2020_Feb_04_1401,spring_faces,3.1.5,60.0373911672121,
condition files/Stage0c_2.xlsx,0c,phi,alpha,h,"['h', 'g']","['Chess', 'Go']","[-0.15, 0.5]","[0.15, 0.5]",1,1,0,15,15,15,0,2,2,1,,,,,,,,,,,,,,,,,,,,,,,,,,,,,,,,,,,,,,,,,,,,,,,,,,,,,,,,,,,,,,,313.219472539,None,313.219472539,None,313.219472539,None,h,1,0.8819259949996194,314.75264662299924,None,314.75264662299924,None,314.75264662299924,None,315.68607794299896,None,315.68607794299896,None,315.68607794299896,None,315.68607794299896,None,,,,,,,,,,,,,,,,,,,,,,,,,,,,,,,,,,,,,,,,,,,,001,66,2020_Feb_04_1401,spring_faces,3.1.5,60.0373911672121,
condition files/Stage0c_2.xlsx,0c,beta,phi,g,"['h', 'g']","['Chess', 'Go']","[-0.15, 0.5]","[0.15, 0.5]",1,1,0,15,15,15,0,3,3,3,,,,,,,,,,,,,,,,,,,,,,,,,,,,,,,,,,,,,,,,,,,,,,,,,,,,,,,,,,,,,,,317.65239222299897,None,317.65239222299897,None,317.65239222299897,None,g,1,0.8328375599994615,319.18568494099964,None,319.18568494099964,None,319.18568494099964,None,320.0690336480002,None,320.0690336480002,None,320.0690336480002,None,320.0690336480002,None,,,,,,,,,,,,,,,,,,,,,,,,,,,,,,,,,,,,,,,,,,,,001,66,2020_Feb_04_1401,spring_faces,3.1.5,60.0373911672121,
condition files/Stage0c_1.xlsx,0c,phi,beta,g,"['h', 'g']","['Chess', 'Go']","[-0.15, 0.5]","[0.15, 0.5]",1,1,0,16,16,16,0,0,0,3,,,,,,,,,,,,,,,,,,,,,,,,,,,,,,,,,,,,,,,,,,,,,,,,,,,,,,,,,,,,,,,322.052444343999,None,322.052444343999,None,322.052444343999,None,g,1,1.8886363029996573,323.58590804099913,None,323.58590804099913,None,323.58590804099913,None,325.52009777999956,None,325.52009777999956,None,325.52009777999956,None,325.52009777999956,None,,,,,,,,,,,,,,,,,,,,,,,,,,,,,,,,,,,,,,,,,,,,001,66,2020_Feb_04_1401,spring_faces,3.1.5,60.0373911672121,
condition files/Stage0c_1.xlsx,0c,theta,alpha,h,"['h', 'g']","['Chess', 'Go']","[-0.15, 0.5]","[0.15, 0.5]",1,1,0,16,16,16,0,1,1,0,,,,,,,,,,,,,,,,,,,,,,,,,,,,,,,,,,,,,,,,,,,,,,,,,,,,,,,,,,,,,,,327.5024011160003,None,327.5024011160003,None,327.5024011160003,None,h,1,0.7744157339984667,329.0361785309997,None,329.0361785309997,None,329.0361785309997,None,329.8686287820001,None,329.8686287820001,None,329.8686287820001,None,329.8686287820001,None,,,,,,,,,,,,,,,,,,,,,,,,,,,,,,,,,,,,,,,,,,,,001,66,2020_Feb_04_1401,spring_faces,3.1.5,60.0373911672121,
condition files/Stage0c_1.xlsx,0c,alpha,phi,h,"['h', 'g']","['Chess', 'Go']","[-0.15, 0.5]","[0.15, 0.5]",1,1,0,16,16,16,0,2,2,1,,,,,,,,,,,,,,,,,,,,,,,,,,,,,,,,,,,,,,,,,,,,,,,,,,,,,,,,,,,,,,,331.83571538700016,None,331.83571538700016,None,331.83571538700016,None,h,1,0.93719980700007,333.36932624399924,None,333.36932624399924,None,333.36932624399924,None,334.3523561309994,None,334.3523561309994,None,334.3523561309994,None,334.3523561309994,None,,,,,,,,,,,,,,,,,,,,,,,,,,,,,,,,,,,,,,,,,,,,001,66,2020_Feb_04_1401,spring_faces,3.1.5,60.0373911672121,
condition files/Stage0c_1.xlsx,0c,beta,theta,g,"['h', 'g']","['Chess', 'Go']","[-0.15, 0.5]","[0.15, 0.5]",1,1,0,16,16,16,0,3,3,2,,,,,,,,,,,,,,,,,,,,,,,,,,,,,,,,,,,,,,,,,,,,,,,,,,,,,,,,,,,,,,,336.33562759599954,None,336.33562759599954,None,336.33562759599954,None,g,1,1.4612949460006348,337.86922090199914,None,337.86922090199914,None,337.86922090199914,None,339.38597066500006,None,339.38597066500006,None,339.38597066500006,None,339.38597066500006,None,,,,,,,,,,,,,,,,,,,,,,,,,,,,,,,,,,,,,,,,,,,,001,66,2020_Feb_04_1401,spring_faces,3.1.5,60.0373911672121,
condition files/Stage0c_2.xlsx,0c,theta,beta,g,"['h', 'g']","['Chess', 'Go']","[-0.15, 0.5]","[0.15, 0.5]",1,1,0,17,17,17,0,0,0,2,,,,,,,,,,,,,,,,,,,,,,,,,,,,,,,,,,,,,,,,,,,,,,,,,,,,,,,,,,,,,,,341.3686523670003,None,341.3686523670003,None,341.3686523670003,None,g,1,0.8765757080000185,342.9020564549992,None,342.9020564549992,None,342.9020564549992,None,343.81987828399906,None,343.81987828399906,None,343.81987828399906,None,343.81987828399906,None,,,,,,,,,,,,,,,,,,,,,,,,,,,,,,,,,,,,,,,,,,,,001,66,2020_Feb_04_1401,spring_faces,3.1.5,60.0373911672121,
condition files/Stage0c_2.xlsx,0c,phi,alpha,h,"['h', 'g']","['Chess', 'Go']","[-0.15, 0.5]","[0.15, 0.5]",1,1,0,17,17,17,0,1,1,1,,,,,,,,,,,,,,,,,,,,,,,,,,,,,,,,,,,,,,,,,,,,,,,,,,,,,,,,,,,,,,,345.8023395459986,None,345.8023395459986,None,345.8023395459986,None,h,1,0.6664752019987645,347.336057126,None,347.336057126,None,347.336057126,None,348.05258885999865,None,348.05258885999865,None,348.05258885999865,None,348.05258885999865,None,,,,,,,,,,,,,,,,,,,,,,,,,,,,,,,,,,,,,,,,,,,,001,66,2020_Feb_04_1401,spring_faces,3.1.5,60.0373911672121,
condition files/Stage0c_2.xlsx,0c,beta,phi,g,"['h', 'g']","['Chess', 'Go']","[-0.15, 0.5]","[0.15, 0.5]",1,1,0,17,17,17,0,2,2,3,,,,,,,,,,,,,,,,,,,,,,,,,,,,,,,,,,,,,,,,,,,,,,,,,,,,,,,,,,,,,,,350.0201903929992,None,350.0201903929992,None,350.0201903929992,None,g,1,0.7701262869995844,351.55241163499886,None,351.55241163499886,None,351.55241163499886,None,352.38574658299876,None,352.38574658299876,None,352.38574658299876,None,352.38574658299876,None,,,,,,,,,,,,,,,,,,,,,,,,,,,,,,,,,,,,,,,,,,,,001,66,2020_Feb_04_1401,spring_faces,3.1.5,60.0373911672121,
condition files/Stage0c_2.xlsx,0c,alpha,theta,h,"['h', 'g']","['Chess', 'Go']","[-0.15, 0.5]","[0.15, 0.5]",1,1,0,17,17,17,0,3,3,0,,,,,,,,,,,,,,,,,,,,,,,,,,,,,,,,,,,,,,,,,,,,,,,,,,,,,,,,,,,,,,,354.3523542919993,None,354.3523542919993,None,354.3523542919993,None,h,1,0.9805385049985489,355.8859878559997,None,355.8859878559997,None,355.8859878559997,None,356.91929477099984,None,356.91929477099984,None,356.91929477099984,None,356.91929477099984,None,,,,,,,,,,,,,,,,,,,,,,,,,,,,,,,,,,,,,,,,,,,,001,66,2020_Feb_04_1401,spring_faces,3.1.5,60.0373911672121,
,,,,,,,,,,,,,,,,,,,,,,,,,,,,,,,,,,,,,,,,,,,,,,,,,,,,,,,,,,,,,,,,,,,,,,,,,,,,,,,,,,,,,,,,,,,,,,,,,,,,,,,,358.9025805299989,None,space,4.164110734998758,363.9024321249999,None,,,,,,,,,,,,,,,,,,,,,,,,,,,,,,,,,,,,,,001,66,2020_Feb_04_1401,spring_faces,3.1.5,60.0373911672121,
condition files/Stage1_1.xlsx,,T1,B1,c,"['c', 'm']","['Clue', 'Monopoly']","[-0.15, 0.5]","[0.15, 0.5]",1,1,,,,,,,,,0,0,0,0,0,0,0,0,,,,,,,,,,,,,,,,,,,,,,,,,,,,,,,,,,,,,,,,,,,,,,,,,,,,,,,368.11921713599986,None,368.11921713599986,None,368.11921713599986,None,c,1,6.733939661999102,369.6525778319992,None,369.6525778319992,None,369.6525778319992,None,376.4701199249994,None,376.4701199249994,None,376.4701199249994,None,376.4701199249994,None,,,,,,,363.9024321249999,None,,,,,,,,,,,,,,,,,,,,,,,,,,,,,,,,,,,,001,66,2020_Feb_04_1401,spring_faces,3.1.5,60.0373911672121,
condition files/Stage1_1.xlsx,,T3,B4,c,"['c', 'm']","['Clue', 'Monopoly']","[-0.15, 0.5]","[0.15, 0.5]",1,1,,,,,,,,,0,0,0,0,0,1,1,5,,,,,,,,,,,,,,,,,,,,,,,,,,,,,,,,,,,,,,,,,,,,,,,,,,,,,,,378.41913369599934,None,378.41913369599934,None,378.41913369599934,None,m,0,1.2813733039984072,379.9531735519995,None,379.9531735519995,None,379.9531735519995,None,381.28597804200035,None,381.28597804200035,None,381.28597804200035,None,381.28597804200035,None,,,,,,,,,,,,,,,,,,,,,,,,,,,,,,,,,,,,,,,,,,,,001,66,2020_Feb_04_1401,spring_faces,3.1.5,60.0373911672121,
condition files/Stage1_1.xlsx,,T2,B2,m,"['c', 'm']","['Clue', 'Monopoly']","[-0.15, 0.5]","[0.15, 0.5]",1,1,,,,,,,,,0,0,0,0,0,2,2,3,,,,,,,,,,,,,,,,,,,,,,,,,,,,,,,,,,,,,,,,,,,,,,,,,,,,,,,383.252406272999,None,383.252406272999,None,383.252406272999,None,c,0,0.9764333309994981,384.78615379799885,None,384.78615379799885,None,384.78615379799885,None,385.90228202899925,None,385.90228202899925,None,385.90228202899925,None,385.90228202899925,None,,,,,,,,,,,,,,,,,,,,,,,,,,,,,,,,,,,,,,,,,,,,001,66,2020_Feb_04_1401,spring_faces,3.1.5,60.0373911672121,
condition files/Stage1_1.xlsx,,B2,T1,m,"['c', 'm']","['Clue', 'Monopoly']","[-0.15, 0.5]","[0.15, 0.5]",1,1,,,,,,,,,0,0,0,0,0,3,3,2,,,,,,,,,,,,,,,,,,,,,,,,,,,,,,,,,,,,,,,,,,,,,,,,,,,,,,,387.7855711840002,None,387.7855711840002,None,387.7855711840002,None,c,0,2.6677314410007966,389.31878388599944,None,389.31878388599944,None,389.31878388599944,None,392.05258834099914,None,392.05258834099914,None,392.05258834099914,None,392.05258834099914,None,,,,,,,,,,,,,,,,,,,,,,,,,,,,,,,,,,,,,,,,,,,,001,66,2020_Feb_04_1401,spring_faces,3.1.5,60.0373911672121,
condition files/Stage1_1.xlsx,,B4,T4,m,"['c', 'm']","['Clue', 'Monopoly']","[-0.15, 0.5]","[0.15, 0.5]",1,1,,,,,,,,,0,0,0,0,0,4,4,7,,,,,,,,,,,,,,,,,,,,,,,,,,,,,,,,,,,,,,,,,,,,,,,,,,,,,,,394.0185162589987,None,394.0185162589987,None,394.0185162589987,None,m,1,2.513174230000004,395.569451112,None,395.569451112,None,395.569451112,None,398.13625729999876,None,398.13625729999876,None,398.13625729999876,None,398.13625729999876,None,,,,,,,,,,,,,,,,,,,,,,,,,,,,,,,,,,,,,,,,,,,,001,66,2020_Feb_04_1401,spring_faces,3.1.5,60.0373911672121,
condition files/Stage1_1.xlsx,,B3,T3,c,"['c', 'm']","['Clue', 'Monopoly']","[-0.15, 0.5]","[0.15, 0.5]",1,1,,,,,,,,,0,0,0,0,0,5,5,4,,,,,,,,,,,,,,,,,,,,,,,,,,,,,,,,,,,,,,,,,,,,,,,,,,,,,,,400.1025031959998,None,400.1025031959998,None,400.1025031959998,None,m,0,1.9984396180007025,401.6361113419989,None,401.6361113419989,None,401.6361113419989,None,403.686263906,None,403.686263906,None,403.686263906,None,403.686263906,None,,,,,,,,,,,,,,,,,,,,,,,,,,,,,,,,,,,,,,,,,,,,001,66,2020_Feb_04_1401,spring_faces,3.1.5,60.0373911672121,
condition files/Stage1_1.xlsx,,B1,T2,c,"['c', 'm']","['Clue', 'Monopoly']","[-0.15, 0.5]","[0.15, 0.5]",1,1,,,,,,,,,0,0,0,0,0,6,6,1,,,,,,,,,,,,,,,,,,,,,,,,,,,,,,,,,,,,,,,,,,,,,,,,,,,,,,,405.6525162429989,None,405.6525162429989,None,405.6525162429989,None,c,1,5.984700727000018,407.1857849549997,None,407.1857849549997,None,407.1857849549997,None,413.2351998659997,None,413.2351998659997,None,413.2351998659997,None,413.2351998659997,None,,,,,,,,,,,,,,,,,,,,,,,,,,,,,,,,,,,,,,,,,,,,001,66,2020_Feb_04_1401,spring_faces,3.1.5,60.0373911672121,
condition files/Stage1_1.xlsx,,T4,B3,m,"['c', 'm']","['Clue', 'Monopoly']","[-0.15, 0.5]","[0.15, 0.5]",1,1,,,,,,,,,0,0,0,0,0,7,7,6,,,,,,,,,,,,,,,,,,,,,,,,,,,,,,,,,,,,,,,,,,,,,,,,,,,,,,,415.20184182499906,None,415.20184182499906,None,415.20184182499906,None,m,1,1.0104810879984143,416.7361335360001,None,416.7361335360001,None,416.7361335360001,None,417.8046414089986,None,417.8046414089986,None,417.8046414089986,None,417.8046414089986,None,,,,,,,,,,,,,,,,,,,,,,,,,,,,,,,,,,,,,,,,,,,,001,66,2020_Feb_04_1401,spring_faces,3.1.5,60.0373911672121,
condition files/Stage1_2.xlsx,,T3,B3,c,"['c', 'm']","['Clue', 'Monopoly']","[-0.15, 0.5]","[0.15, 0.5]",1,1,,,,,,,,,0,1,1,1,0,0,0,4,,,,,,,,,,,,,,,,,,,,,,,,,,,,,,,,,,,,,,,,,,,,,,,,,,,,,,,419.7858493999993,None,419.7858493999993,None,419.7858493999993,None,m,0,1.1470675230011693,421.31948653499967,None,421.31948653499967,None,421.31948653499967,None,422.5217874609989,None,422.5217874609989,None,422.5217874609989,None,422.5217874609989,None,,,,,,,,,,,,,,,,,,,,,,,,,,,,,,,,,,,,,,,,,,,,001,66,2020_Feb_04_1401,spring_faces,3.1.5,60.0373911672121,
condition files/Stage1_2.xlsx,,B1,T1,c,"['c', 'm']","['Clue', 'Monopoly']","[-0.15, 0.5]","[0.15, 0.5]",1,1,,,,,,,,,0,1,1,1,0,1,1,0,,,,,,,,,,,,,,,,,,,,,,,,,,,,,,,,,,,,,,,,,,,,,,,,,,,,,,,424.48622656399857,None,424.48622656399857,None,424.48622656399857,None,m,0,2.3192169109988754,426.0193363689996,None,426.0193363689996,None,426.0193363689996,None,428.40263554800003,None,428.40263554800003,None,428.40263554800003,None,428.40263554800003,None,,,,,,,,,,,,,,,,,,,,,,,,,,,,,,,,,,,,,,,,,,,,001,66,2020_Feb_04_1401,spring_faces,3.1.5,60.0373911672121,
condition files/Stage1_2.xlsx,,B3,T4,m,"['c', 'm']","['Clue', 'Monopoly']","[-0.15, 0.5]","[0.15, 0.5]",1,1,,,,,,,,,0,1,1,1,0,2,2,6,,,,,,,,,,,,,,,,,,,,,,,,,,,,,,,,,,,,,,,,,,,,,,,,,,,,,,,430.3688935760001,None,430.3688935760001,None,430.3688935760001,None,m,1,4.676010496999879,431.90262319199974,None,431.90262319199974,None,431.90262319199974,None,436.6383351819986,None,436.6383351819986,None,436.6383351819986,None,436.6383351819986,None,,,,,,,,,,,,,,,,,,,,,,,,,,,,,,,,,,,,,,,,,,,,001,66,2020_Feb_04_1401,spring_faces,3.1.5,60.0373911672121,
condition files/Stage1_2.xlsx,,T4,B4,m,"['c', 'm']","['Clue', 'Monopoly']","[-0.15, 0.5]","[0.15, 0.5]",1,1,,,,,,,,,0,1,1,1,0,3,3,7,,,,,,,,,,,,,,,,,,,,,,,,,,,,,,,,,,,,,,,,,,,,,,,,,,,,,,,438.6025185719991,None,438.6025185719991,None,438.6025185719991,None,m,1,0.9531542459990305,440.1374050859995,None,440.1374050859995,None,440.1374050859995,None,441.15234543099905,None,441.15234543099905,None,441.15234543099905,None,441.15234543099905,None,,,,,,,,,,,,,,,,,,,,,,,,,,,,,,,,,,,,,,,,,,,,001,66,2020_Feb_04_1401,spring_faces,3.1.5,60.0373911672121,
condition files/Stage1_2.xlsx,,B2,T2,m,"['c', 'm']","['Clue', 'Monopoly']","[-0.15, 0.5]","[0.15, 0.5]",1,1,,,,,,,,,0,1,1,1,0,4,4,3,,,,,,,,,,,,,,,,,,,,,,,,,,,,,,,,,,,,,,,,,,,,,,,,,,,,,,,443.1192504949995,None,443.1192504949995,None,443.1192504949995,None,c,0,0.933440402000997,444.6690899360001,None,444.6690899360001,None,444.6690899360001,None,445.65274104200034,None,445.65274104200034,None,445.65274104200034,None,445.65274104200034,None,,,,,,,,,,,,,,,,,,,,,,,,,,,,,,,,,,,,,,,,,,,,001,66,2020_Feb_04_1401,spring_faces,3.1.5,60.0373911672121,
condition files/Stage1_2.xlsx,,T1,B2,m,"['c', 'm']","['Clue', 'Monopoly']","[-0.15, 0.5]","[0.15, 0.5]",1,1,,,,,,,,,0,1,1,1,0,5,5,2,,,,,,,,,,,,,,,,,,,,,,,,,,,,,,,,,,,,,,,,,,,,,,,,,,,,,,,447.6190646319992,None,447.6190646319992,None,447.6190646319992,None,m,1,1.522363812000549,449.15217765799935,None,449.15217765799935,None,449.15217765799935,None,450.7357681029989,None,450.7357681029989,None,450.7357681029989,None,450.7357681029989,None,,,,,,,,,,,,,,,,,,,,,,,,,,,,,,,,,,,,,,,,,,,,001,66,2020_Feb_04_1401,spring_faces,3.1.5,60.0373911672121,
condition files/Stage1_2.xlsx,,T2,B1,c,"['c', 'm']","['Clue', 'Monopoly']","[-0.15, 0.5]","[0.15, 0.5]",1,1,,,,,,,,,0,1,1,1,0,6,6,1,,,,,,,,,,,,,,,,,,,,,,,,,,,,,,,,,,,,,,,,,,,,,,,,,,,,,,,452.7024459280001,None,452.7024459280001,None,452.7024459280001,None,m,0,1.9424072729998443,454.23622547800005,None,454.23622547800005,None,454.23622547800005,None,456.23610582199944,None,456.23610582199944,None,456.23610582199944,None,456.23610582199944,None,,,,,,,,,,,,,,,,,,,,,,,,,,,,,,,,,,,,,,,,,,,,001,66,2020_Feb_04_1401,spring_faces,3.1.5,60.0373911672121,
condition files/Stage1_2.xlsx,,B4,T3,c,"['c', 'm']","['Clue', 'Monopoly']","[-0.15, 0.5]","[0.15, 0.5]",1,1,,,,,,,,,0,1,1,1,0,7,7,5,,,,,,,,,,,,,,,,,,,,,,,,,,,,,,,,,,,,,,,,,,,,,,,,,,,,,,,458.2017573129997,None,458.2017573129997,None,458.2017573129997,None,m,0,1.4658569530001841,459.75266769299924,None,459.75266769299924,None,459.75266769299924,None,461.26926753800035,None,461.26926753800035,None,461.26926753800035,None,461.26926753800035,None,,,,,,,,,,,,,,,,,,,,,,,,,,,,,,,,,,,,,,,,,,,,001,66,2020_Feb_04_1401,spring_faces,3.1.5,60.0373911672121,
condition files/Stage1_1.xlsx,,T3,B4,c,"['c', 'm']","['Clue', 'Monopoly']","[-0.15, 0.5]","[0.15, 0.5]",1,1,,,,,,,,,0,2,2,2,0,0,0,5,,,,,,,,,,,,,,,,,,,,,,,,,,,,,,,,,,,,,,,,,,,,,,,,,,,,,,,463.25289500599865,None,463.25289500599865,None,463.25289500599865,None,m,0,3.0571744310000213,464.78545568699883,None,464.78545568699883,None,464.78545568699883,None,467.90272424499926,None,467.90272424499926,None,467.90272424499926,None,467.90272424499926,None,,,,,,,,,,,,,,,,,,,,,,,,,,,,,,,,,,,,,,,,,,,,001,66,2020_Feb_04_1401,spring_faces,3.1.5,60.0373911672121,
condition files/Stage1_1.xlsx,,B2,T1,m,"['c', 'm']","['Clue', 'Monopoly']","[-0.15, 0.5]","[0.15, 0.5]",1,1,,,,,,,,,0,2,2,2,0,1,1,2,,,,,,,,,,,,,,,,,,,,,,,,,,,,,,,,,,,,,,,,,,,,,,,,,,,,,,,469.8690384949987,None,469.8690384949987,None,469.8690384949987,None,m,1,1.784668944999794,471.4018470989995,None,471.4018470989995,None,471.4018470989995,None,473.2520892859993,None,473.2520892859993,None,473.2520892859993,None,473.2520892859993,None,,,,,,,,,,,,,,,,,,,,,,,,,,,,,,,,,,,,,,,,,,,,001,66,2020_Feb_04_1401,spring_faces,3.1.5,60.0373911672121,
condition files/Stage1_1.xlsx,,T2,B2,m,"['c', 'm']","['Clue', 'Monopoly']","[-0.15, 0.5]","[0.15, 0.5]",1,1,,,,,,,,,0,2,2,2,0,2,2,3,,,,,,,,,,,,,,,,,,,,,,,,,,,,,,,,,,,,,,,,,,,,,,,,,,,,,,,475.21910038900023,None,475.21910038900023,None,475.21910038900023,None,c,0,1.9542248790003214,476.75234015299975,None,476.75234015299975,None,476.75234015299975,None,478.7692776879994,None,478.7692776879994,None,478.7692776879994,None,478.7692776879994,None,,,,,,,,,,,,,,,,,,,,,,,,,,,,,,,,,,,,,,,,,,,,001,66,2020_Feb_04_1401,spring_faces,3.1.5,60.0373911672121,
condition files/Stage1_1.xlsx,,B3,T3,c,"['c', 'm']","['Clue', 'Monopoly']","[-0.15, 0.5]","[0.15, 0.5]",1,1,,,,,,,,,0,2,2,2,0,3,3,4,,,,,,,,,,,,,,,,,,,,,,,,,,,,,,,,,,,,,,,,,,,,,,,,,,,,,,,480.735705744999,None,480.735705744999,None,480.735705744999,None,m,0,1.3016329239999322,482.26887528299994,None,482.26887528299994,None,482.26887528299994,None,483.65247926399934,None,483.65247926399934,None,483.65247926399934,None,483.65247926399934,None,,,,,,,,,,,,,,,,,,,,,,,,,,,,,,,,,,,,,,,,,,,,001,66,2020_Feb_04_1401,spring_faces,3.1.5,60.0373911672121,
condition files/Stage1_1.xlsx,,B1,T2,c,"['c', 'm']","['Clue', 'Monopoly']","[-0.15, 0.5]","[0.15, 0.5]",1,1,,,,,,,,,0,2,2,2,0,4,4,1,,,,,,,,,,,,,,,,,,,,,,,,,,,,,,,,,,,,,,,,,,,,,,,,,,,,,,,485.60183020600016,None,485.60183020600016,None,485.60183020600016,None,c,1,1.6485655429987673,487.1379623189987,None,487.1379623189987,None,487.1379623189987,None,488.8529270479994,None,488.8529270479994,None,488.8529270479994,None,488.8529270479994,None,,,,,,,,,,,,,,,,,,,,,,,,,,,,,,,,,,,,,,,,,,,,001,66,2020_Feb_04_1401,spring_faces,3.1.5,60.0373911672121,
condition files/Stage1_1.xlsx,,B4,T4,m,"['c', 'm']","['Clue', 'Monopoly']","[-0.15, 0.5]","[0.15, 0.5]",1,1,,,,,,,,,0,2,2,2,0,5,5,7,,,,,,,,,,,,,,,,,,,,,,,,,,,,,,,,,,,,,,,,,,,,,,,,,,,,,,,490.81912817899865,None,490.81912817899865,None,490.81912817899865,None,c,0,1.4101806100006797,492.35243429599905,None,492.35243429599905,None,492.35243429599905,None,493.82040847999997,None,493.82040847999997,None,493.82040847999997,None,493.82040847999997,None,,,,,,,,,,,,,,,,,,,,,,,,,,,,,,,,,,,,,,,,,,,,001,66,2020_Feb_04_1401,spring_faces,3.1.5,60.0373911672121,
condition files/Stage1_1.xlsx,,T4,B3,m,"['c', 'm']","['Clue', 'Monopoly']","[-0.15, 0.5]","[0.15, 0.5]",1,1,,,,,,,,,0,2,2,2,0,6,6,6,,,,,,,,,,,,,,,,,,,,,,,,,,,,,,,,,,,,,,,,,,,,,,,,,,,,,,,495.78573044899895,None,495.78573044899895,None,495.78573044899895,None,c,0,1.2911752309992153,497.33543821700005,None,497.33543821700005,None,497.33543821700005,None,498.68540376799865,None,498.68540376799865,None,498.68540376799865,None,498.68540376799865,None,,,,,,,,,,,,,,,,,,,,,,,,,,,,,,,,,,,,,,,,,,,,001,66,2020_Feb_04_1401,spring_faces,3.1.5,60.0373911672121,
condition files/Stage1_1.xlsx,,T1,B1,c,"['c', 'm']","['Clue', 'Monopoly']","[-0.15, 0.5]","[0.15, 0.5]",1,1,,,,,,,,,0,2,2,2,0,7,7,0,,,,,,,,,,,,,,,,,,,,,,,,,,,,,,,,,,,,,,,,,,,,,,,,,,,,,,,500.6523796799993,None,500.6523796799993,None,500.6523796799993,None,c,1,5.513157199000489,502.1854057069995,None,502.1854057069995,None,502.1854057069995,None,507.75317199500023,None,507.75317199500023,None,507.75317199500023,None,507.75317199500023,None,,,,,,,,,,,,,,,,,,,,,,,,,,,,,,,,,,,,,,,,,,,,001,66,2020_Feb_04_1401,spring_faces,3.1.5,60.0373911672121,
condition files/Stage1_2.xlsx,,B3,T4,m,"['c', 'm']","['Clue', 'Monopoly']","[-0.15, 0.5]","[0.15, 0.5]",1,1,,,,,,,,,0,3,3,3,0,0,0,6,,,,,,,,,,,,,,,,,,,,,,,,,,,,,,,,,,,,,,,,,,,,,,,,,,,,,,,509.73594131699974,None,509.73594131699974,None,509.73594131699974,None,c,0,1.3572090470006515,511.2854114109996,None,511.2854114109996,None,511.2854114109996,None,512.7041777429986,None,512.7041777429986,None,512.7041777429986,None,512.7041777429986,None,,,,,,,,,,,,,,,,,,,,,,,,,,,,,,,,,,,,,,,,,,,,001,66,2020_Feb_04_1401,spring_faces,3.1.5,60.0373911672121,
condition files/Stage1_2.xlsx,,T1,B2,m,"['c', 'm']","['Clue', 'Monopoly']","[-0.15, 0.5]","[0.15, 0.5]",1,1,,,,,,,,,0,3,3,3,0,1,1,2,,,,,,,,,,,,,,,,,,,,,,,,,,,,,,,,,,,,,,,,,,,,,,,,,,,,,,,514.6690074529997,None,514.6690074529997,None,514.6690074529997,None,c,0,0.968390862999513,516.2020950489987,None,516.2020950489987,None,516.2020950489987,None,517.2353326819994,None,517.2353326819994,None,517.2353326819994,None,517.2353326819994,None,,,,,,,,,,,,,,,,,,,,,,,,,,,,,,,,,,,,,,,,,,,,001,66,2020_Feb_04_1401,spring_faces,3.1.5,60.0373911672121,
condition files/Stage1_2.xlsx,,T3,B3,c,"['c', 'm']","['Clue', 'Monopoly']","[-0.15, 0.5]","[0.15, 0.5]",1,1,,,,,,,,,0,3,3,3,0,2,2,4,,,,,,,,,,,,,,,,,,,,,,,,,,,,,,,,,,,,,,,,,,,,,,,,,,,,,,,519.202420104999,None,519.202420104999,None,519.202420104999,None,c,1,1.763166304999686,520.7353911509999,None,520.7353911509999,None,520.7353911509999,None,522.5547502879999,None,522.5547502879999,None,522.5547502879999,None,522.5547502879999,None,,,,,,,,,,,,,,,,,,,,,,,,,,,,,,,,,,,,,,,,,,,,001,66,2020_Feb_04_1401,spring_faces,3.1.5,60.0373911672121,
condition files/Stage1_2.xlsx,,B4,T3,c,"['c', 'm']","['Clue', 'Monopoly']","[-0.15, 0.5]","[0.15, 0.5]",1,1,,,,,,,,,0,3,3,3,0,3,3,5,,,,,,,,,,,,,,,,,,,,,,,,,,,,,,,,,,,,,,,,,,,,,,,,,,,,,,,524.5190685279995,None,524.5190685279995,None,524.5190685279995,None,m,0,1.6295410969996738,526.0529794969989,None,526.0529794969989,None,526.0529794969989,None,527.736026221999,None,527.736026221999,None,527.736026221999,None,527.736026221999,None,,,,,,,,,,,,,,,,,,,,,,,,,,,,,,,,,,,,,,,,,,,,001,66,2020_Feb_04_1401,spring_faces,3.1.5,60.0373911672121,
condition files/Stage1_2.xlsx,,B1,T1,c,"['c', 'm']","['Clue', 'Monopoly']","[-0.15, 0.5]","[0.15, 0.5]",1,1,,,,,,,,,0,3,3,3,0,4,4,0,,,,,,,,,,,,,,,,,,,,,,,,,,,,,,,,,,,,,,,,,,,,,,,,,,,,,,,529.7024605669994,None,529.7024605669994,None,529.7024605669994,None,m,0,0.9408991189993685,531.2377464499987,None,531.2377464499987,None,531.2377464499987,None,532.235991517,None,532.235991517,None,532.235991517,None,532.235991517,None,,,,,,,,,,,,,,,,,,,,,,,,,,,,,,,,,,,,,,,,,,,,001,66,2020_Feb_04_1401,spring_faces,3.1.5,60.0373911672121,
condition files/Stage1_2.xlsx,,T2,B1,c,"['c', 'm']","['Clue', 'Monopoly']","[-0.15, 0.5]","[0.15, 0.5]",1,1,,,,,,,,,0,3,3,3,0,5,5,1,,,,,,,,,,,,,,,,,,,,,,,,,,,,,,,,,,,,,,,,,,,,,,,,,,,,,,,534.201857561,None,534.201857561,None,534.201857561,None,m,0,0.2829052489996684,535.7356476929999,None,535.7356476929999,None,535.7356476929999,None,536.0689455789998,None,536.0689455789998,None,536.0689455789998,None,536.0689455789998,None,,,,,,,,,,,,,,,,,,,,,,,,,,,,,,,,,,,,,,,,,,,,001,66,2020_Feb_04_1401,spring_faces,3.1.5,60.0373911672121,
condition files/Stage1_2.xlsx,,T4,B4,m,"['c', 'm']","['Clue', 'Monopoly']","[-0.15, 0.5]","[0.15, 0.5]",1,1,,,,,,,,,0,3,3,3,0,6,6,7,,,,,,,,,,,,,,,,,,,,,,,,,,,,,,,,,,,,,,,,,,,,,,,,,,,,,,,538.0352704939996,None,538.0352704939996,None,538.0352704939996,None,m,1,0.19144275000144262,539.5711749319998,None,539.5711749319998,None,539.5711749319998,None,539.8200221059997,None,539.8200221059997,None,539.8200221059997,None,539.8200221059997,None,,,,,,,,,,,,,,,,,,,,,,,,,,,,,,,,,,,,,,,,,,,,001,66,2020_Feb_04_1401,spring_faces,3.1.5,60.0373911672121,
condition files/Stage1_2.xlsx,,B2,T2,m,"['c', 'm']","['Clue', 'Monopoly']","[-0.15, 0.5]","[0.15, 0.5]",1,1,,,,,,,,,0,3,3,3,0,7,7,3,,,,,,,,,,,,,,,,,,,,,,,,,,,,,,,,,,,,,,,,,,,,,,,,,,,,,,,541.7856541579986,None,541.7856541579986,None,541.7856541579986,None,m,1,1.1783794240000134,543.3201746599989,None,543.3201746599989,None,543.3201746599989,None,544.5527378569986,None,544.5527378569986,None,544.5527378569986,None,544.5527378569986,None,,,,,,,,,,,,,,,,,,,,,,,,,,,,,,,,,,,,,,,,,,,,001,66,2020_Feb_04_1401,spring_faces,3.1.5,60.0373911672121,
condition files/Stage1_1.xlsx,,T1,B1,c,"['c', 'm']","['Clue', 'Monopoly']","[-0.15, 0.5]","[0.15, 0.5]",1,1,,,,,,,,,0,4,4,4,0,0,0,0,,,,,,,,,,,,,,,,,,,,,,,,,,,,,,,,,,,,,,,,,,,,,,,,,,,,,,,546.5356388769997,None,546.5356388769997,None,546.5356388769997,None,c,1,8.828178718000345,548.070383757,None,548.070383757,None,548.070383757,None,556.9528453969997,None,556.9528453969997,None,556.9528453969997,None,556.9528453969997,None,,,,,,,,,,,,,,,,,,,,,,,,,,,,,,,,,,,,,,,,,,,,001,66,2020_Feb_04_1401,spring_faces,3.1.5,60.0373911672121,
condition files/Stage1_1.xlsx,,T3,B4,c,"['c', 'm']","['Clue', 'Monopoly']","[-0.15, 0.5]","[0.15, 0.5]",1,1,,,,,,,,,0,4,4,4,0,1,1,5,,,,,,,,,,,,,,,,,,,,,,,,,,,,,,,,,,,,,,,,,,,,,,,,,,,,,,,558.9190413420001,None,558.9190413420001,None,558.9190413420001,None,c,1,1.982175497998469,560.4523636769991,None,560.4523636769991,None,560.4523636769991,None,562.486112610999,None,562.486112610999,None,562.486112610999,None,562.486112610999,None,,,,,,,,,,,,,,,,,,,,,,,,,,,,,,,,,,,,,,,,,,,,001,66,2020_Feb_04_1401,spring_faces,3.1.5,60.0373911672121,
condition files/Stage1_1.xlsx,,B1,T2,c,"['c', 'm']","['Clue', 'Monopoly']","[-0.15, 0.5]","[0.15, 0.5]",1,1,,,,,,,,,0,4,4,4,0,2,2,1,,,,,,,,,,,,,,,,,,,,,,,,,,,,,,,,,,,,,,,,,,,,,,,,,,,,,,,564.4525962970001,None,564.4525962970001,None,564.4525962970001,None,m,0,2.160589996001363,566.0020069740003,None,566.0020069740003,None,566.0020069740003,None,568.219119035999,None,568.219119035999,None,568.219119035999,None,568.219119035999,None,,,,,,,,,,,,,,,,,,,,,,,,,,,,,,,,,,,,,,,,,,,,001,66,2020_Feb_04_1401,spring_faces,3.1.5,60.0373911672121,
condition files/Stage1_1.xlsx,,B4,T4,m,"['c', 'm']","['Clue', 'Monopoly']","[-0.15, 0.5]","[0.15, 0.5]",1,1,,,,,,,,,0,4,4,4,0,3,3,7,,,,,,,,,,,,,,,,,,,,,,,,,,,,,,,,,,,,,,,,,,,,,,,,,,,,,,,570.1855742600001,None,570.1855742600001,None,570.1855742600001,None,m,1,1.6746237659990584,571.735973380999,None,571.735973380999,None,571.735973380999,None,573.4708808300002,None,573.4708808300002,None,573.4708808300002,None,573.4708808300002,None,,,,,,,,,,,,,,,,,,,,,,,,,,,,,,,,,,,,,,,,,,,,001,66,2020_Feb_04_1401,spring_faces,3.1.5,60.0373911672121,
condition files/Stage1_1.xlsx,,B3,T3,c,"['c', 'm']","['Clue', 'Monopoly']","[-0.15, 0.5]","[0.15, 0.5]",1,1,,,,,,,,,0,4,4,4,0,4,4,4,,,,,,,,,,,,,,,,,,,,,,,,,,,,,,,,,,,,,,,,,,,,,,,,,,,,,,,575.4356951249993,None,575.4356951249993,None,575.4356951249993,None,m,0,2.344711873000051,576.9698046060003,None,576.9698046060003,None,576.9698046060003,None,579.3688829499988,None,579.3688829499988,None,579.3688829499988,None,579.3688829499988,None,,,,,,,,,,,,,,,,,,,,,,,,,,,,,,,,,,,,,,,,,,,,001,66,2020_Feb_04_1401,spring_faces,3.1.5,60.0373911672121,
condition files/Stage1_1.xlsx,,T2,B2,m,"['c', 'm']","['Clue', 'Monopoly']","[-0.15, 0.5]","[0.15, 0.5]",1,1,,,,,,,,,0,4,4,4,0,5,5,3,,,,,,,,,,,,,,,,,,,,,,,,,,,,,,,,,,,,,,,,,,,,,,,,,,,,,,,581.3356707269995,None,581.3356707269995,None,581.3356707269995,None,m,1,2.093393350000042,582.8691998609993,None,582.8691998609993,None,582.8691998609993,None,585.0358608339993,None,585.0358608339993,None,585.0358608339993,None,585.0358608339993,None,,,,,,,,,,,,,,,,,,,,,,,,,,,,,,,,,,,,,,,,,,,,001,66,2020_Feb_04_1401,spring_faces,3.1.5,60.0373911672121,
condition files/Stage1_1.xlsx,,B2,T1,m,"['c', 'm']","['Clue', 'Monopoly']","[-0.15, 0.5]","[0.15, 0.5]",1,1,,,,,,,,,0,4,4,4,0,6,6,2,,,,,,,,,,,,,,,,,,,,,,,,,,,,,,,,,,,,,,,,,,,,,,,,,,,,,,,586.9859156769999,None,586.9859156769999,None,586.9859156769999,None,c,0,1.4515937449996272,588.518937031,None,588.518937031,None,588.518937031,None,590.035961313999,None,590.035961313999,None,590.035961313999,None,590.035961313999,None,,,,,,,,,,,,,,,,,,,,,,,,,,,,,,,,,,,,,,,,,,,,001,66,2020_Feb_04_1401,spring_faces,3.1.5,60.0373911672121,
condition files/Stage1_1.xlsx,,T4,B3,m,"['c', 'm']","['Clue', 'Monopoly']","[-0.15, 0.5]","[0.15, 0.5]",1,1,,,,,,,,,0,4,4,4,0,7,7,6,,,,,,,,,,,,,,,,,,,,,,,,,,,,,,,,,,,,,,,,,,,,,,,,,,,,,,,592.0023401639992,None,592.0023401639992,None,592.0023401639992,None,m,1,1.7457428079997044,593.5527971189986,None,593.5527971189986,None,593.5527971189986,None,595.3524882149995,None,595.3524882149995,None,595.3524882149995,None,595.3524882149995,None,,,,,,,,,,,,,,,,,,,,,,,,,,,,,,,,,,,,,,,,,,,,001,66,2020_Feb_04_1401,spring_faces,3.1.5,60.0373911672121,
condition files/Stage1_2.xlsx,,T3,B3,c,"['c', 'm']","['Clue', 'Monopoly']","[-0.15, 0.5]","[0.15, 0.5]",1,1,,,,,,,,,0,5,5,5,0,0,0,4,,,,,,,,,,,,,,,,,,,,,,,,,,,,,,,,,,,,,,,,,,,,,,,,,,,,,,,597.3358182259981,None,597.3358182259981,None,597.3358182259981,None,m,0,1.181606969999848,598.8689396109985,None,598.8689396109985,None,598.8689396109985,None,600.1037409540004,None,600.1037409540004,None,600.1037409540004,None,600.1037409540004,None,,,,,,,,,,,,,,,,,,,,,,,,,,,,,,,,,,,,,,,,,,,,001,66,2020_Feb_04_1401,spring_faces,3.1.5,60.0373911672121,
condition files/Stage1_2.xlsx,,B1,T1,c,"['c', 'm']","['Clue', 'Monopoly']","[-0.15, 0.5]","[0.15, 0.5]",1,1,,,,,,,,,0,5,5,5,0,1,1,0,,,,,,,,,,,,,,,,,,,,,,,,,,,,,,,,,,,,,,,,,,,,,,,,,,,,,,,602.0690633869999,None,602.0690633869999,None,602.0690633869999,None,c,1,1.407318376997864,603.6032995739988,None,603.6032995739988,None,603.6032995739988,None,605.0691994849985,None,605.0691994849985,None,605.0691994849985,None,605.0691994849985,None,,,,,,,,,,,,,,,,,,,,,,,,,,,,,,,,,,,,,,,,,,,,001,66,2020_Feb_04_1401,spring_faces,3.1.5,60.0373911672121,
condition files/Stage1_2.xlsx,,T2,B1,c,"['c', 'm']","['Clue', 'Monopoly']","[-0.15, 0.5]","[0.15, 0.5]",1,1,,,,,,,,,0,5,5,5,0,2,2,1,,,,,,,,,,,,,,,,,,,,,,,,,,,,,,,,,,,,,,,,,,,,,,,,,,,,,,,607.0352292959979,None,607.0352292959979,None,607.0352292959979,None,c,1,0.905911459998606,608.5686353829988,None,608.5686353829988,None,608.5686353829988,None,609.5354699849995,None,609.5354699849995,None,609.5354699849995,None,609.5354699849995,None,,,,,,,,,,,,,,,,,,,,,,,,,,,,,,,,,,,,,,,,,,,,001,66,2020_Feb_04_1401,spring_faces,3.1.5,60.0373911672121,
condition files/Stage1_2.xlsx,,T4,B4,m,"['c', 'm']","['Clue', 'Monopoly']","[-0.15, 0.5]","[0.15, 0.5]",1,1,,,,,,,,,0,5,5,5,0,3,3,7,,,,,,,,,,,,,,,,,,,,,,,,,,,,,,,,,,,,,,,,,,,,,,,,,,,,,,,611.5025076889979,None,611.5025076889979,None,611.5025076889979,None,m,1,1.0284596210003656,613.0380892479989,None,613.0380892479989,None,613.0380892479989,None,614.1353323069998,None,614.1353323069998,None,614.1353323069998,None,614.1353323069998,None,,,,,,,,,,,,,,,,,,,,,,,,,,,,,,,,,,,,,,,,,,,,001,66,2020_Feb_04_1401,spring_faces,3.1.5,60.0373911672121,
condition files/Stage1_2.xlsx,,T1,B2,m,"['c', 'm']","['Clue', 'Monopoly']","[-0.15, 0.5]","[0.15, 0.5]",1,1,,,,,,,,,0,5,5,5,0,4,4,2,,,,,,,,,,,,,,,,,,,,,,,,,,,,,,,,,,,,,,,,,,,,,,,,,,,,,,,616.0857110500001,None,616.0857110500001,None,616.0857110500001,None,m,1,0.9756868959993881,617.618946300001,None,617.618946300001,None,617.618946300001,None,618.6525850709986,None,618.6525850709986,None,618.6525850709986,None,618.6525850709986,None,,,,,,,,,,,,,,,,,,,,,,,,,,,,,,,,,,,,,,,,,,,,001,66,2020_Feb_04_1401,spring_faces,3.1.5,60.0373911672121,
condition files/Stage1_2.xlsx,,B3,T4,m,"['c', 'm']","['Clue', 'Monopoly']","[-0.15, 0.5]","[0.15, 0.5]",1,1,,,,,,,,,0,5,5,5,0,5,5,6,,,,,,,,,,,,,,,,,,,,,,,,,,,,,,,,,,,,,,,,,,,,,,,,,,,,,,,620.618837733,None,620.618837733,None,620.618837733,None,m,1,0.6339143279983546,622.1526113869986,None,622.1526113869986,None,622.1526113869986,None,622.8522577399999,None,622.8522577399999,None,622.8522577399999,None,622.8522577399999,None,,,,,,,,,,,,,,,,,,,,,,,,,,,,,,,,,,,,,,,,,,,,001,66,2020_Feb_04_1401,spring_faces,3.1.5,60.0373911672121,
condition files/Stage1_2.xlsx,,B2,T2,m,"['c', 'm']","['Clue', 'Monopoly']","[-0.15, 0.5]","[0.15, 0.5]",1,1,,,,,,,,,0,5,5,5,0,6,6,3,,,,,,,,,,,,,,,,,,,,,,,,,,,,,,,,,,,,,,,,,,,,,,,,,,,,,,,624.8191979759977,None,624.8191979759977,None,624.8191979759977,None,c,0,0.30655584600026486,626.3520543119994,None,626.3520543119994,None,626.3520543119994,None,626.7189648309977,None,626.7189648309977,None,626.7189648309977,None,626.7189648309977,None,,,,,,,,,,,,,,,,,,,,,,,,,,,,,,,,,,,,,,,,,,,,001,66,2020_Feb_04_1401,spring_faces,3.1.5,60.0373911672121,
condition files/Stage1_2.xlsx,,B4,T3,c,"['c', 'm']","['Clue', 'Monopoly']","[-0.15, 0.5]","[0.15, 0.5]",1,1,,,,,,,,,0,5,5,5,0,7,7,5,,,,,,,,,,,,,,,,,,,,,,,,,,,,,,,,,,,,,,,,,,,,,,,,,,,,,,,628.6858157589995,None,628.6858157589995,None,628.6858157589995,None,c,1,0.32565895299921976,630.2209800189994,None,630.2209800189994,None,630.2209800189994,None,630.6194158100006,None,630.6194158100006,None,630.6194158100006,None,630.6194158100006,None,,,,,,,,,,,,,,,,,,,,,,,,,,,,,,,,,,,,,,,,,,,,001,66,2020_Feb_04_1401,spring_faces,3.1.5,60.0373911672121,
condition files/Stage1_1.xlsx,,T2,B2,m,"['c', 'm']","['Clue', 'Monopoly']","[-0.15, 0.5]","[0.15, 0.5]",1,1,,,,,,,,,0,6,6,6,0,0,0,3,,,,,,,,,,,,,,,,,,,,,,,,,,,,,,,,,,,,,,,,,,,,,,,,,,,,,,,632.5858056289981,None,632.5858056289981,None,632.5858056289981,None,c,0,0.5394149309977365,634.1191079880009,None,634.1191079880009,None,634.1191079880009,None,634.7355046880002,None,634.7355046880002,None,634.7355046880002,None,634.7355046880002,None,,,,,,,,,,,,,,,,,,,,,,,,,,,,,,,,,,,,,,,,,,,,001,66,2020_Feb_04_1401,spring_faces,3.1.5,60.0373911672121,
condition files/Stage1_1.xlsx,,B4,T4,m,"['c', 'm']","['Clue', 'Monopoly']","[-0.15, 0.5]","[0.15, 0.5]",1,1,,,,,,,,,0,6,6,6,0,1,1,7,,,,,,,,,,,,,,,,,,,,,,,,,,,,,,,,,,,,,,,,,,,,,,,,,,,,,,,636.6856981909987,None,636.6856981909987,None,636.6856981909987,None,m,1,1.1423398219994851,638.2202690980012,None,638.2202690980012,None,638.2202690980012,None,639.4194677829983,None,639.4194677829983,None,639.4194677829983,None,639.4194677829983,None,,,,,,,,,,,,,,,,,,,,,,,,,,,,,,,,,,,,,,,,,,,,001,66,2020_Feb_04_1401,spring_faces,3.1.5,60.0373911672121,
condition files/Stage1_1.xlsx,,T3,B4,c,"['c', 'm']","['Clue', 'Monopoly']","[-0.15, 0.5]","[0.15, 0.5]",1,1,,,,,,,,,0,6,6,6,0,2,2,5,,,,,,,,,,,,,,,,,,,,,,,,,,,,,,,,,,,,,,,,,,,,,,,,,,,,,,,641.3857729089978,None,641.3857729089978,None,641.3857729089978,None,c,1,1.4343904519992066,642.9201137620003,None,642.9201137620003,None,642.9201137620003,None,644.4207661639994,None,644.4207661639994,None,644.4207661639994,None,644.4207661639994,None,,,,,,,,,,,,,,,,,,,,,,,,,,,,,,,,,,,,,,,,,,,,001,66,2020_Feb_04_1401,spring_faces,3.1.5,60.0373911672121,
condition files/Stage1_1.xlsx,,B2,T1,m,"['c', 'm']","['Clue', 'Monopoly']","[-0.15, 0.5]","[0.15, 0.5]",1,1,,,,,,,,,0,6,6,6,0,3,3,2,,,,,,,,,,,,,,,,,,,,,,,,,,,,,,,,,,,,,,,,,,,,,,,,,,,,,,,646.3858013940007,None,646.3858013940007,None,646.3858013940007,None,c,0,1.53860135099967,647.9359369259982,None,647.9359369259982,None,647.9359369259982,None,649.5357814769995,None,649.5357814769995,None,649.5357814769995,None,649.5357814769995,None,,,,,,,,,,,,,,,,,,,,,,,,,,,,,,,,,,,,,,,,,,,,001,66,2020_Feb_04_1401,spring_faces,3.1.5,60.0373911672121,
condition files/Stage1_1.xlsx,,B3,T3,c,"['c', 'm']","['Clue', 'Monopoly']","[-0.15, 0.5]","[0.15, 0.5]",1,1,,,,,,,,,0,6,6,6,0,4,4,4,,,,,,,,,,,,,,,,,,,,,,,,,,,,,,,,,,,,,,,,,,,,,,,,,,,,,,,651.5024499840001,None,651.5024499840001,None,651.5024499840001,None,m,0,1.7663740790012525,653.0361773990007,None,653.0361773990007,None,653.0361773990007,None,654.8524152259997,None,654.8524152259997,None,654.8524152259997,None,654.8524152259997,None,,,,,,,,,,,,,,,,,,,,,,,,,,,,,,,,,,,,,,,,,,,,001,66,2020_Feb_04_1401,spring_faces,3.1.5,60.0373911672121,
condition files/Stage1_1.xlsx,,T4,B3,m,"['c', 'm']","['Clue', 'Monopoly']","[-0.15, 0.5]","[0.15, 0.5]",1,1,,,,,,,,,0,6,6,6,0,5,5,6,,,,,,,,,,,,,,,,,,,,,,,,,,,,,,,,,,,,,,,,,,,,,,,,,,,,,,,656.8188481750003,None,656.8188481750003,None,656.8188481750003,None,m,1,1.4098109460028354,658.3527919410008,None,658.3527919410008,None,658.3527919410008,None,659.8353710209994,None,659.8353710209994,None,659.8353710209994,None,659.8353710209994,None,,,,,,,,,,,,,,,,,,,,,,,,,,,,,,,,,,,,,,,,,,,,001,66,2020_Feb_04_1401,spring_faces,3.1.5,60.0373911672121,
condition files/Stage1_1.xlsx,,B1,T2,c,"['c', 'm']","['Clue', 'Monopoly']","[-0.15, 0.5]","[0.15, 0.5]",1,1,,,,,,,,,0,6,6,6,0,6,6,1,,,,,,,,,,,,,,,,,,,,,,,,,,,,,,,,,,,,,,,,,,,,,,,,,,,,,,,661.7855825359984,None,661.7855825359984,None,661.7855825359984,None,c,1,3.1628835609990347,663.3197715370006,None,663.3197715370006,None,663.3197715370006,None,666.538307431998,None,666.538307431998,None,666.538307431998,None,666.538307431998,None,,,,,,,,,,,,,,,,,,,,,,,,,,,,,,,,,,,,,,,,,,,,001,66,2020_Feb_04_1401,spring_faces,3.1.5,60.0373911672121,
condition files/Stage1_1.xlsx,,T1,B1,c,"['c', 'm']","['Clue', 'Monopoly']","[-0.15, 0.5]","[0.15, 0.5]",1,1,,,,,,,,,0,6,6,6,0,7,7,0,,,,,,,,,,,,,,,,,,,,,,,,,,,,,,,,,,,,,,,,,,,,,,,,,,,,,,,668.502402135,None,668.502402135,None,668.502402135,None,m,0,1.5646083030005684,670.037900796,None,670.037900796,None,670.037900796,None,671.6526189420001,None,671.6526189420001,None,671.6526189420001,None,671.6526189420001,None,,,,,,,,,,,,,,,,,,,,,,,,,,,,,,,,,,,,,,,,,,,,001,66,2020_Feb_04_1401,spring_faces,3.1.5,60.0373911672121,
condition files/Stage1_2.xlsx,,B4,T3,c,"['c', 'm']","['Clue', 'Monopoly']","[-0.15, 0.5]","[0.15, 0.5]",1,1,,,,,,,,,0,7,7,7,0,0,0,5,,,,,,,,,,,,,,,,,,,,,,,,,,,,,,,,,,,,,,,,,,,,,,,,,,,,,,,673.6362757019997,None,673.6362757019997,None,673.6362757019997,None,c,1,4.048634225000569,675.1859161339999,None,675.1859161339999,None,675.1859161339999,None,679.2858215689994,None,679.2858215689994,None,679.2858215689994,None,679.2858215689994,None,,,,,,,,,,,,,,,,,,,,,,,,,,,,,,,,,,,,,,,,,,,,001,66,2020_Feb_04_1401,spring_faces,3.1.5,60.0373911672121,
condition files/Stage1_2.xlsx,,T2,B1,c,"['c', 'm']","['Clue', 'Monopoly']","[-0.15, 0.5]","[0.15, 0.5]",1,1,,,,,,,,,0,7,7,7,0,1,1,1,,,,,,,,,,,,,,,,,,,,,,,,,,,,,,,,,,,,,,,,,,,,,,,,,,,,,,,681.2524242069994,None,681.2524242069994,None,681.2524242069994,None,m,0,0.9603747179971833,682.8022192190001,None,682.8022192190001,None,682.8022192190001,None,683.8192686170005,None,683.8192686170005,None,683.8192686170005,None,683.8192686170005,None,,,,,,,,,,,,,,,,,,,,,,,,,,,,,,,,,,,,,,,,,,,,001,66,2020_Feb_04_1401,spring_faces,3.1.5,60.0373911672121,
condition files/Stage1_2.xlsx,,B3,T4,m,"['c', 'm']","['Clue', 'Monopoly']","[-0.15, 0.5]","[0.15, 0.5]",1,1,,,,,,,,,0,7,7,7,0,2,2,6,,,,,,,,,,,,,,,,,,,,,,,,,,,,,,,,,,,,,,,,,,,,,,,,,,,,,,,685.7853382100002,None,685.7853382100002,None,685.7853382100002,None,c,0,1.8487730560009368,687.3217397349981,None,687.3217397349981,None,687.3217397349981,None,689.2368088759977,None,689.2368088759977,None,689.2368088759977,None,689.2368088759977,None,,,,,,,,,,,,,,,,,,,,,,,,,,,,,,,,,,,,,,,,,,,,001,66,2020_Feb_04_1401,spring_faces,3.1.5,60.0373911672121,
condition files/Stage1_2.xlsx,,B2,T2,m,"['c', 'm']","['Clue', 'Monopoly']","[-0.15, 0.5]","[0.15, 0.5]",1,1,,,,,,,,,0,7,7,7,0,3,3,3,,,,,,,,,,,,,,,,,,,,,,,,,,,,,,,,,,,,,,,,,,,,,,,,,,,,,,,691.2023736529991,None,691.2023736529991,None,691.2023736529991,None,c,0,1.536516420001135,692.7380400740003,None,692.7380400740003,None,692.7380400740003,None,694.335962950001,None,694.335962950001,None,694.335962950001,None,694.335962950001,None,,,,,,,,,,,,,,,,,,,,,,,,,,,,,,,,,,,,,,,,,,,,001,66,2020_Feb_04_1401,spring_faces,3.1.5,60.0373911672121,
condition files/Stage1_2.xlsx,,T4,B4,m,"['c', 'm']","['Clue', 'Monopoly']","[-0.15, 0.5]","[0.15, 0.5]",1,1,,,,,,,,,0,7,7,7,0,4,4,7,,,,,,,,,,,,,,,,,,,,,,,,,,,,,,,,,,,,,,,,,,,,,,,,,,,,,,,696.3023201489996,None,696.3023201489996,None,696.3023201489996,None,m,1,1.4463758700003382,697.8521716440009,None,697.8521716440009,None,697.8521716440009,None,699.3523796019981,None,699.3523796019981,None,699.3523796019981,None,699.3523796019981,None,,,,,,,,,,,,,,,,,,,,,,,,,,,,,,,,,,,,,,,,,,,,001,66,2020_Feb_04_1401,spring_faces,3.1.5,60.0373911672121,
condition files/Stage1_2.xlsx,,T3,B3,c,"['c', 'm']","['Clue', 'Monopoly']","[-0.15, 0.5]","[0.15, 0.5]",1,1,,,,,,,,,0,7,7,7,0,5,5,4,,,,,,,,,,,,,,,,,,,,,,,,,,,,,,,,,,,,,,,,,,,,,,,,,,,,,,,701.3188920879984,None,701.3188920879984,None,701.3188920879984,None,m,0,1.8698213589996158,702.8527369199983,None,702.8527369199983,None,702.8527369199983,None,704.7871940849982,None,704.7871940849982,None,704.7871940849982,None,704.7871940849982,None,,,,,,,,,,,,,,,,,,,,,,,,,,,,,,,,,,,,,,,,,,,,001,66,2020_Feb_04_1401,spring_faces,3.1.5,60.0373911672121,
condition files/Stage1_2.xlsx,,B1,T1,c,"['c', 'm']","['Clue', 'Monopoly']","[-0.15, 0.5]","[0.15, 0.5]",1,1,,,,,,,,,0,7,7,7,0,6,6,0,,,,,,,,,,,,,,,,,,,,,,,,,,,,,,,,,,,,,,,,,,,,,,,,,,,,,,,706.7523930259995,None,706.7523930259995,None,706.7523930259995,None,m,0,1.3487323350018414,708.2858190049992,None,708.2858190049992,None,708.2858190049992,None,709.6860872979996,None,709.6860872979996,None,709.6860872979996,None,709.6860872979996,None,,,,,,,,,,,,,,,,,,,,,,,,,,,,,,,,,,,,,,,,,,,,001,66,2020_Feb_04_1401,spring_faces,3.1.5,60.0373911672121,
condition files/Stage1_2.xlsx,,T1,B2,m,"['c', 'm']","['Clue', 'Monopoly']","[-0.15, 0.5]","[0.15, 0.5]",1,1,,,,,,,,,0,7,7,7,0,7,7,2,,,,,,,,,,,,,,,,,,,,,,,,,,,,,,,,,,,,,,,,,,,,,,,,,,,,,,,711.6524149139987,None,711.6524149139987,None,711.6524149139987,None,m,1,0.8158709279996401,713.1866405859982,None,713.1866405859982,None,713.1866405859982,None,714.0689314980009,None,714.0689314980009,None,714.0689314980009,None,714.0689314980009,None,,,,,,,,,,,,,,,,,,,,,,,,,,,,,,,,,,,,,,,,,,,,001,66,2020_Feb_04_1401,spring_faces,3.1.5,60.0373911672121,
condition files/Stage1_1.xlsx,,T1,B1,c,"['c', 'm']","['Clue', 'Monopoly']","[-0.15, 0.5]","[0.15, 0.5]",1,1,,,,,,,,,0,8,8,8,0,0,0,0,,,,,,,,,,,,,,,,,,,,,,,,,,,,,,,,,,,,,,,,,,,,,,,,,,,,,,,716.0356514819978,None,716.0356514819978,None,716.0356514819978,None,c,1,5.3617004600018845,717.5688034209998,None,717.5688034209998,None,717.5688034209998,None,722.9855693799982,None,722.9855693799982,None,722.9855693799982,None,722.9855693799982,None,,,,,,,,,,,,,,,,,,,,,,,,,,,,,,,,,,,,,,,,,,,,001,66,2020_Feb_04_1401,spring_faces,3.1.5,60.0373911672121,
condition files/Stage1_1.xlsx,,B2,T1,m,"['c', 'm']","['Clue', 'Monopoly']","[-0.15, 0.5]","[0.15, 0.5]",1,1,,,,,,,,,0,8,8,8,0,1,1,2,,,,,,,,,,,,,,,,,,,,,,,,,,,,,,,,,,,,,,,,,,,,,,,,,,,,,,,724.952445171999,None,724.952445171999,None,724.952445171999,None,m,1,1.3720695779993548,726.4865659399984,None,726.4865659399984,None,726.4865659399984,None,727.9220465510007,None,727.9220465510007,None,727.9220465510007,None,727.9220465510007,None,,,,,,,,,,,,,,,,,,,,,,,,,,,,,,,,,,,,,,,,,,,,001,66,2020_Feb_04_1401,spring_faces,3.1.5,60.0373911672121,
condition files/Stage1_1.xlsx,,T2,B2,m,"['c', 'm']","['Clue', 'Monopoly']","[-0.15, 0.5]","[0.15, 0.5]",1,1,,,,,,,,,0,8,8,8,0,2,2,3,,,,,,,,,,,,,,,,,,,,,,,,,,,,,,,,,,,,,,,,,,,,,,,,,,,,,,,729.8857113119993,None,729.8857113119993,None,729.8857113119993,None,m,1,1.1760857560002478,731.4185228419992,None,731.4185228419992,None,731.4185228419992,None,732.6519362250001,None,732.6519362250001,None,732.6519362250001,None,732.6519362250001,None,,,,,,,,,,,,,,,,,,,,,,,,,,,,,,,,,,,,,,,,,,,,001,66,2020_Feb_04_1401,spring_faces,3.1.5,60.0373911672121,
condition files/Stage1_1.xlsx,,T4,B3,m,"['c', 'm']","['Clue', 'Monopoly']","[-0.15, 0.5]","[0.15, 0.5]",1,1,,,,,,,,,0,8,8,8,0,3,3,6,,,,,,,,,,,,,,,,,,,,,,,,,,,,,,,,,,,,,,,,,,,,,,,,,,,,,,,734.6190070679986,None,734.6190070679986,None,734.6190070679986,None,m,1,0.8403506119975646,736.1542800629977,None,736.1542800629977,None,736.1542800629977,None,737.0527189569984,None,737.0527189569984,None,737.0527189569984,None,737.0527189569984,None,,,,,,,,,,,,,,,,,,,,,,,,,,,,,,,,,,,,,,,,,,,,001,66,2020_Feb_04_1401,spring_faces,3.1.5,60.0373911672121,
condition files/Stage1_1.xlsx,,B1,T2,c,"['c', 'm']","['Clue', 'Monopoly']","[-0.15, 0.5]","[0.15, 0.5]",1,1,,,,,,,,,0,8,8,8,0,4,4,1,,,,,,,,,,,,,,,,,,,,,,,,,,,,,,,,,,,,,,,,,,,,,,,,,,,,,,,739.0184451950008,None,739.0184451950008,None,739.0184451950008,None,m,0,1.2583225179987494,740.5523056579987,None,740.5523056579987,None,740.5523056579987,None,741.869667084,None,741.869667084,None,741.869667084,None,741.869667084,None,,,,,,,,,,,,,,,,,,,,,,,,,,,,,,,,,,,,,,,,,,,,001,66,2020_Feb_04_1401,spring_faces,3.1.5,60.0373911672121,
condition files/Stage1_1.xlsx,,B3,T3,c,"['c', 'm']","['Clue', 'Monopoly']","[-0.15, 0.5]","[0.15, 0.5]",1,1,,,,,,,,,0,8,8,8,0,5,5,4,,,,,,,,,,,,,,,,,,,,,,,,,,,,,,,,,,,,,,,,,,,,,,,,,,,,,,,743.8357297129987,None,743.8357297129987,None,743.8357297129987,None,m,0,3.033686568000121,745.3688231470005,None,745.3688231470005,None,745.3688231470005,None,748.4525602789981,None,748.4525602789981,None,748.4525602789981,None,748.4525602789981,None,,,,,,,,,,,,,,,,,,,,,,,,,,,,,,,,,,,,,,,,,,,,001,66,2020_Feb_04_1401,spring_faces,3.1.5,60.0373911672121,
condition files/Stage1_1.xlsx,,B4,T4,m,"['c', 'm']","['Clue', 'Monopoly']","[-0.15, 0.5]","[0.15, 0.5]",1,1,,,,,,,,,0,8,8,8,0,6,6,7,,,,,,,,,,,,,,,,,,,,,,,,,,,,,,,,,,,,,,,,,,,,,,,,,,,,,,,750.4191797540007,None,750.4191797540007,None,750.4191797540007,None,m,1,1.3457421660023101,751.9528145139993,None,751.9528145139993,None,751.9528145139993,None,753.3686199340009,None,753.3686199340009,None,753.3686199340009,None,753.3686199340009,None,,,,,,,,,,,,,,,,,,,,,,,,,,,,,,,,,,,,,,,,,,,,001,66,2020_Feb_04_1401,spring_faces,3.1.5,60.0373911672121,
condition files/Stage1_1.xlsx,,T3,B4,c,"['c', 'm']","['Clue', 'Monopoly']","[-0.15, 0.5]","[0.15, 0.5]",1,1,,,,,,,,,0,8,8,8,0,7,7,5,,,,,,,,,,,,,,,,,,,,,,,,,,,,,,,,,,,,,,,,,,,,,,,,,,,,,,,755.3191341370002,None,755.3191341370002,None,755.3191341370002,None,c,1,0.7815794559974165,756.852971807999,None,756.852971807999,None,756.852971807999,None,757.6860449679989,None,757.6860449679989,None,757.6860449679989,None,757.6860449679989,None,,,,,,,,,,,,,,,,,,,,,,,,,,,,,,,,,,,,,,,,,,,,001,66,2020_Feb_04_1401,spring_faces,3.1.5,60.0373911672121,
condition files/Stage1_2.xlsx,,T3,B3,c,"['c', 'm']","['Clue', 'Monopoly']","[-0.15, 0.5]","[0.15, 0.5]",1,1,,,,,,,,,0,9,9,9,0,0,0,4,,,,,,,,,,,,,,,,,,,,,,,,,,,,,,,,,,,,,,,,,,,,,,,,,,,,,,,759.6695399009986,None,759.6695399009986,None,759.6695399009986,None,c,1,0.943581177998567,761.2030645509985,None,761.2030645509985,None,761.2030645509985,None,762.2028401360003,None,762.2028401360003,None,762.2028401360003,None,762.2028401360003,None,,,,,,,,,,,,,,,,,,,,,,,,,,,,,,,,,,,,,,,,,,,,001,66,2020_Feb_04_1401,spring_faces,3.1.5,60.0373911672121,
condition files/Stage1_2.xlsx,,B3,T4,m,"['c', 'm']","['Clue', 'Monopoly']","[-0.15, 0.5]","[0.15, 0.5]",1,1,,,,,,,,,0,9,9,9,0,1,1,6,,,,,,,,,,,,,,,,,,,,,,,,,,,,,,,,,,,,,,,,,,,,,,,,,,,,,,,764.1687971249994,None,764.1687971249994,None,764.1687971249994,None,m,1,0.5872606359989732,765.703311614001,None,765.703311614001,None,765.703311614001,None,766.3549488460012,None,766.3549488460012,None,766.3549488460012,None,766.3549488460012,None,,,,,,,,,,,,,,,,,,,,,,,,,,,,,,,,,,,,,,,,,,,,001,66,2020_Feb_04_1401,spring_faces,3.1.5,60.0373911672121,
condition files/Stage1_2.xlsx,,B4,T3,c,"['c', 'm']","['Clue', 'Monopoly']","[-0.15, 0.5]","[0.15, 0.5]",1,1,,,,,,,,,0,9,9,9,0,2,2,5,,,,,,,,,,,,,,,,,,,,,,,,,,,,,,,,,,,,,,,,,,,,,,,,,,,,,,,768.3190527199986,None,768.3190527199986,None,768.3190527199986,None,m,0,0.8212974980015133,769.8692480210011,None,769.8692480210011,None,769.8692480210011,None,770.7540922320004,None,770.7540922320004,None,770.7540922320004,None,770.7540922320004,None,,,,,,,,,,,,,,,,,,,,,,,,,,,,,,,,,,,,,,,,,,,,001,66,2020_Feb_04_1401,spring_faces,3.1.5,60.0373911672121,
condition files/Stage1_2.xlsx,,B1,T1,c,"['c', 'm']","['Clue', 'Monopoly']","[-0.15, 0.5]","[0.15, 0.5]",1,1,,,,,,,,,0,9,9,9,0,3,3,0,,,,,,,,,,,,,,,,,,,,,,,,,,,,,,,,,,,,,,,,,,,,,,,,,,,,,,,772.7189673159992,None,772.7189673159992,None,772.7189673159992,None,m,0,1.2379383469997265,774.252628719998,None,774.252628719998,None,774.252628719998,None,775.5527182309997,None,775.5527182309997,None,775.5527182309997,None,775.5527182309997,None,,,,,,,,,,,,,,,,,,,,,,,,,,,,,,,,,,,,,,,,,,,,001,66,2020_Feb_04_1401,spring_faces,3.1.5,60.0373911672121,
condition files/Stage1_2.xlsx,,T4,B4,m,"['c', 'm']","['Clue', 'Monopoly']","[-0.15, 0.5]","[0.15, 0.5]",1,1,,,,,,,,,0,9,9,9,0,4,4,7,,,,,,,,,,,,,,,,,,,,,,,,,,,,,,,,,,,,,,,,,,,,,,,,,,,,,,,777.5188379409992,None,777.5188379409992,None,777.5188379409992,None,c,0,1.012238923998666,779.054306820999,None,779.054306820999,None,779.054306820999,None,780.1221933950001,None,780.1221933950001,None,780.1221933950001,None,780.1221933950001,None,,,,,,,,,,,,,,,,,,,,,,,,,,,,,,,,,,,,,,,,,,,,001,66,2020_Feb_04_1401,spring_faces,3.1.5,60.0373911672121,
condition files/Stage1_2.xlsx,,T2,B1,c,"['c', 'm']","['Clue', 'Monopoly']","[-0.15, 0.5]","[0.15, 0.5]",1,1,,,,,,,,,0,9,9,9,0,5,5,1,,,,,,,,,,,,,,,,,,,,,,,,,,,,,,,,,,,,,,,,,,,,,,,,,,,,,,,782.0857489929986,None,782.0857489929986,None,782.0857489929986,None,c,1,1.3088244729988219,783.6217227609995,None,783.6217227609995,None,783.6217227609995,None,784.986517854999,None,784.986517854999,None,784.986517854999,None,784.986517854999,None,,,,,,,,,,,,,,,,,,,,,,,,,,,,,,,,,,,,,,,,,,,,001,66,2020_Feb_04_1401,spring_faces,3.1.5,60.0373911672121,
condition files/Stage1_2.xlsx,,B2,T2,m,"['c', 'm']","['Clue', 'Monopoly']","[-0.15, 0.5]","[0.15, 0.5]",1,1,,,,,,,,,0,9,9,9,0,6,6,3,,,,,,,,,,,,,,,,,,,,,,,,,,,,,,,,,,,,,,,,,,,,,,,,,,,,,,,786.9524666809994,None,786.9524666809994,None,786.9524666809994,None,m,1,1.53308296799878,788.4854074440009,None,788.4854074440009,None,788.4854074440009,None,790.0714106300002,None,790.0714106300002,None,790.0714106300002,None,790.0714106300002,None,,,,,,,,,,,,,,,,,,,,,,,,,,,,,,,,,,,,,,,,,,,,001,66,2020_Feb_04_1401,spring_faces,3.1.5,60.0373911672121,
condition files/Stage1_2.xlsx,,T1,B2,m,"['c', 'm']","['Clue', 'Monopoly']","[-0.15, 0.5]","[0.15, 0.5]",1,1,,,,,,,,,0,9,9,9,0,7,7,2,,,,,,,,,,,,,,,,,,,,,,,,,,,,,,,,,,,,,,,,,,,,,,,,,,,,,,,792.0356175419984,None,792.0356175419984,None,792.0356175419984,None,m,1,2.192932710997411,793.5696736690006,None,793.5696736690006,None,793.5696736690006,None,795.8191960660006,None,795.8191960660006,None,795.8191960660006,None,795.8191960660006,None,,,,,,,,,,,,,,,,,,,,,,,,,,,,,,,,,,,,,,,,,,,,001,66,2020_Feb_04_1401,spring_faces,3.1.5,60.0373911672121,
condition files/Stage1_1.xlsx,,T1,B1,c,"['c', 'm']","['Clue', 'Monopoly']","[-0.15, 0.5]","[0.15, 0.5]",1,1,,,,,,,,,0,10,10,10,0,0,0,0,,,,,,,,,,,,,,,,,,,,,,,,,,,,,,,,,,,,,,,,,,,,,,,,,,,,,,,797.8020257440003,None,797.8020257440003,None,797.8020257440003,None,m,0,0.9546630410004582,799.3358816079999,None,799.3358816079999,None,799.3358816079999,None,800.3543103909979,None,800.3543103909979,None,800.3543103909979,None,800.3543103909979,None,,,,,,,,,,,,,,,,,,,,,,,,,,,,,,,,,,,,,,,,,,,,001,66,2020_Feb_04_1401,spring_faces,3.1.5,60.0373911672121,
condition files/Stage1_1.xlsx,,B2,T1,m,"['c', 'm']","['Clue', 'Monopoly']","[-0.15, 0.5]","[0.15, 0.5]",1,1,,,,,,,,,0,10,10,10,0,1,1,2,,,,,,,,,,,,,,,,,,,,,,,,,,,,,,,,,,,,,,,,,,,,,,,,,,,,,,,802.3192117260005,None,802.3192117260005,None,802.3192117260005,None,c,0,1.1585517739986244,803.8520782179985,None,803.8520782179985,None,803.8520782179985,None,805.0699354139979,None,805.0699354139979,None,805.0699354139979,None,805.0699354139979,None,,,,,,,,,,,,,,,,,,,,,,,,,,,,,,,,,,,,,,,,,,,,001,66,2020_Feb_04_1401,spring_faces,3.1.5,60.0373911672121,
condition files/Stage1_1.xlsx,,T2,B2,m,"['c', 'm']","['Clue', 'Monopoly']","[-0.15, 0.5]","[0.15, 0.5]",1,1,,,,,,,,,0,10,10,10,0,2,2,3,,,,,,,,,,,,,,,,,,,,,,,,,,,,,,,,,,,,,,,,,,,,,,,,,,,,,,,807.0358152879999,None,807.0358152879999,None,807.0358152879999,None,m,1,1.8319097509993298,808.5706543179986,None,808.5706543179986,None,808.5706543179986,None,810.4524443269984,None,810.4524443269984,None,810.4524443269984,None,810.4524443269984,None,,,,,,,,,,,,,,,,,,,,,,,,,,,,,,,,,,,,,,,,,,,,001,66,2020_Feb_04_1401,spring_faces,3.1.5,60.0373911672121,
condition files/Stage1_1.xlsx,,B3,T3,c,"['c', 'm']","['Clue', 'Monopoly']","[-0.15, 0.5]","[0.15, 0.5]",1,1,,,,,,,,,0,10,10,10,0,3,3,4,,,,,,,,,,,,,,,,,,,,,,,,,,,,,,,,,,,,,,,,,,,,,,,,,,,,,,,812.4188357200001,None,812.4188357200001,None,812.4188357200001,None,c,1,2.001928781002789,813.9526403599994,None,813.9526403599994,None,813.9526403599994,None,816.022092504998,None,816.022092504998,None,816.022092504998,None,816.022092504998,None,,,,,,,,,,,,,,,,,,,,,,,,,,,,,,,,,,,,,,,,,,,,001,66,2020_Feb_04_1401,spring_faces,3.1.5,60.0373911672121,
condition files/Stage1_1.xlsx,,T3,B4,c,"['c', 'm']","['Clue', 'Monopoly']","[-0.15, 0.5]","[0.15, 0.5]",1,1,,,,,,,,,0,10,10,10,0,4,4,5,,,,,,,,,,,,,,,,,,,,,,,,,,,,,,,,,,,,,,,,,,,,,,,,,,,,,,,817.9858293670004,None,817.9858293670004,None,817.9858293670004,None,c,1,1.4904526389982493,819.5361547329994,None,819.5361547329994,None,819.5361547329994,None,821.0859483729982,None,821.0859483729982,None,821.0859483729982,None,821.0859483729982,None,,,,,,,,,,,,,,,,,,,,,,,,,,,,,,,,,,,,,,,,,,,,001,66,2020_Feb_04_1401,spring_faces,3.1.5,60.0373911672121,
condition files/Stage1_1.xlsx,,T4,B3,m,"['c', 'm']","['Clue', 'Monopoly']","[-0.15, 0.5]","[0.15, 0.5]",1,1,,,,,,,,,0,10,10,10,0,5,5,6,,,,,,,,,,,,,,,,,,,,,,,,,,,,,,,,,,,,,,,,,,,,,,,,,,,,,,,823.0523833029984,None,823.0523833029984,None,823.0523833029984,None,c,0,2.08779447300185,824.5867821309985,None,824.5867821309985,None,824.5867821309985,None,826.7365349760003,None,826.7365349760003,None,826.7365349760003,None,826.7365349760003,None,,,,,,,,,,,,,,,,,,,,,,,,,,,,,,,,,,,,,,,,,,,,001,66,2020_Feb_04_1401,spring_faces,3.1.5,60.0373911672121,
condition files/Stage1_1.xlsx,,B1,T2,c,"['c', 'm']","['Clue', 'Monopoly']","[-0.15, 0.5]","[0.15, 0.5]",1,1,,,,,,,,,0,10,10,10,0,6,6,1,,,,,,,,,,,,,,,,,,,,,,,,,,,,,,,,,,,,,,,,,,,,,,,,,,,,,,,828.702259163998,None,828.702259163998,None,828.702259163998,None,m,0,1.2699959160017897,830.2365629019987,None,830.2365629019987,None,830.2365629019987,None,831.5696034709981,None,831.5696034709981,None,831.5696034709981,None,831.5696034709981,None,,,,,,,,,,,,,,,,,,,,,,,,,,,,,,,,,,,,,,,,,,,,001,66,2020_Feb_04_1401,spring_faces,3.1.5,60.0373911672121,
condition files/Stage1_1.xlsx,,B4,T4,m,"['c', 'm']","['Clue', 'Monopoly']","[-0.15, 0.5]","[0.15, 0.5]",1,1,,,,,,,,,0,10,10,10,0,7,7,7,,,,,,,,,,,,,,,,,,,,,,,,,,,,,,,,,,,,,,,,,,,,,,,,,,,,,,,833.535497326,None,833.535497326,None,833.535497326,None,c,0,8.325281244000507,835.0693321959989,None,835.0693321959989,None,835.0693321959989,None,843.4528864860004,None,843.4528864860004,None,843.4528864860004,None,843.4528864860004,None,,,,,,,,,,,,,,,,,,,,,,,,,,,,,,,,,,,,,,,,,,,,001,66,2020_Feb_04_1401,spring_faces,3.1.5,60.0373911672121,
condition files/Stage1_2.xlsx,,T4,B4,m,"['c', 'm']","['Clue', 'Monopoly']","[-0.15, 0.5]","[0.15, 0.5]",1,1,,,,,,,,,0,11,11,11,0,0,0,7,,,,,,,,,,,,,,,,,,,,,,,,,,,,,,,,,,,,,,,,,,,,,,,,,,,,,,,845.4358761119984,None,845.4358761119984,None,845.4358761119984,None,c,0,3.1284417590031808,846.9861354889981,None,846.9861354889981,None,846.9861354889981,None,850.1687324449995,None,850.1687324449995,None,850.1687324449995,None,850.1687324449995,None,,,,,,,,,,,,,,,,,,,,,,,,,,,,,,,,,,,,,,,,,,,,001,66,2020_Feb_04_1401,spring_faces,3.1.5,60.0373911672121,
condition files/Stage1_2.xlsx,,T3,B3,c,"['c', 'm']","['Clue', 'Monopoly']","[-0.15, 0.5]","[0.15, 0.5]",1,1,,,,,,,,,0,11,11,11,0,1,1,4,,,,,,,,,,,,,,,,,,,,,,,,,,,,,,,,,,,,,,,,,,,,,,,,,,,,,,,852.1357074599982,None,852.1357074599982,None,852.1357074599982,None,m,0,5.628850344000966,853.6697232799997,None,853.6697232799997,None,853.6697232799997,None,859.352669164,None,859.352669164,None,859.352669164,None,859.352669164,None,,,,,,,,,,,,,,,,,,,,,,,,,,,,,,,,,,,,,,,,,,,,001,66,2020_Feb_04_1401,spring_faces,3.1.5,60.0373911672121,
condition files/Stage1_2.xlsx,,T1,B2,m,"['c', 'm']","['Clue', 'Monopoly']","[-0.15, 0.5]","[0.15, 0.5]",1,1,,,,,,,,,0,11,11,11,0,2,2,2,,,,,,,,,,,,,,,,,,,,,,,,,,,,,,,,,,,,,,,,,,,,,,,,,,,,,,,861.3192166240005,None,861.3192166240005,None,861.3192166240005,None,c,0,1.4540670690003026,862.8524850409995,None,862.8524850409995,None,862.8524850409995,None,864.3721281789985,None,864.3721281789985,None,864.3721281789985,None,864.3721281789985,None,,,,,,,,,,,,,,,,,,,,,,,,,,,,,,,,,,,,,,,,,,,,001,66,2020_Feb_04_1401,spring_faces,3.1.5,60.0373911672121,
condition files/Stage1_2.xlsx,,B3,T4,m,"['c', 'm']","['Clue', 'Monopoly']","[-0.15, 0.5]","[0.15, 0.5]",1,1,,,,,,,,,0,11,11,11,0,3,3,6,,,,,,,,,,,,,,,,,,,,,,,,,,,,,,,,,,,,,,,,,,,,,,,,,,,,,,,866.3354423989986,None,866.3354423989986,None,866.3354423989986,None,m,1,0.24496464999901946,867.869610013,None,867.869610013,None,867.869610013,None,868.1691719849987,None,868.1691719849987,None,868.1691719849987,None,868.1691719849987,None,,,,,,,,,,,,,,,,,,,,,,,,,,,,,,,,,,,,,,,,,,,,001,66,2020_Feb_04_1401,spring_faces,3.1.5,60.0373911672121,
condition files/Stage1_2.xlsx,,B4,T3,c,"['c', 'm']","['Clue', 'Monopoly']","[-0.15, 0.5]","[0.15, 0.5]",1,1,,,,,,,,,0,11,11,11,0,4,4,5,,,,,,,,,,,,,,,,,,,,,,,,,,,,,,,,,,,,,,,,,,,,,,,,,,,,,,,870.1351438559977,None,870.1351438559977,None,870.1351438559977,None,c,1,0.9569936079969921,871.6856203940006,None,871.6856203940006,None,871.6856203940006,None,872.7051633250012,None,872.7051633250012,None,872.7051633250012,None,872.7051633250012,None,,,,,,,,,,,,,,,,,,,,,,,,,,,,,,,,,,,,,,,,,,,,001,66,2020_Feb_04_1401,spring_faces,3.1.5,60.0373911672121,
condition files/Stage1_2.xlsx,,B2,T2,m,"['c', 'm']","['Clue', 'Monopoly']","[-0.15, 0.5]","[0.15, 0.5]",1,1,,,,,,,,,0,11,11,11,0,5,5,3,,,,,,,,,,,,,,,,,,,,,,,,,,,,,,,,,,,,,,,,,,,,,,,,,,,,,,,874.6691398660005,None,874.6691398660005,None,874.6691398660005,None,c,0,1.3505946769982984,876.2039839639983,None,876.2039839639983,None,876.2039839639983,None,877.6185906469982,None,877.6185906469982,None,877.6185906469982,None,877.6185906469982,None,,,,,,,,,,,,,,,,,,,,,,,,,,,,,,,,,,,,,,,,,,,,001,66,2020_Feb_04_1401,spring_faces,3.1.5,60.0373911672121,
condition files/Stage1_2.xlsx,,T2,B1,c,"['c', 'm']","['Clue', 'Monopoly']","[-0.15, 0.5]","[0.15, 0.5]",1,1,,,,,,,,,0,11,11,11,0,6,6,1,,,,,,,,,,,,,,,,,,,,,,,,,,,,,,,,,,,,,,,,,,,,,,,,,,,,,,,879.585742504998,None,879.585742504998,None,879.585742504998,None,m,0,0.515790986999491,881.118767336,None,881.118767336,None,881.118767336,None,881.7028918979995,None,881.7028918979995,None,881.7028918979995,None,881.7028918979995,None,,,,,,,,,,,,,,,,,,,,,,,,,,,,,,,,,,,,,,,,,,,,001,66,2020_Feb_04_1401,spring_faces,3.1.5,60.0373911672121,
condition files/Stage1_2.xlsx,,B1,T1,c,"['c', 'm']","['Clue', 'Monopoly']","[-0.15, 0.5]","[0.15, 0.5]",1,1,,,,,,,,,0,11,11,11,0,7,7,0,,,,,,,,,,,,,,,,,,,,,,,,,,,,,,,,,,,,,,,,,,,,,,,,,,,,,,,883.6523721459998,None,883.6523721459998,None,883.6523721459998,None,c,1,2.2086360510002123,885.1859753969984,None,885.1859753969984,None,885.1859753969984,None,887.4524417069988,None,887.4524417069988,None,887.4524417069988,None,887.4524417069988,None,,,,,,,,,,,,,,,,,,,,,,,,,,,,,,,,,,,,,,,,,,,,001,66,2020_Feb_04_1401,spring_faces,3.1.5,60.0373911672121,
,,,,,,,,,,,,,,,,,,,,,,,,,,,,,,,,,,,,,,,,,,,,,,,,,,,,,,,,,,,,,,,,,,,,,,,,,,,,,,,,,,,,,,,,,,,,,,,,,,,,,,,,,,,,,,,,889.4356814309976,None,space,3.934721398003603,894.4357915159999,None,,,,,,,,,,,,,,,,,,,,,,,,,,,,,,001,66,2020_Feb_04_1401,spring_faces,3.1.5,60.0373911672121,
condition files/Stage2_1.xlsx,,T3,B3,s,"['s', 'r']","['Stratego', 'Risk']","[-0.15, 0.5]","[0.15, 0.5]",1,1,,,,,,,,,,,,,,,,,0,0,0,0,0,0,0,4,,,,,,,,,,,,,,,,,,,,,,,,,,,,,,,,,,,,,,,,,,,,,,,898.4359996530002,None,898.4359996530002,None,898.4359996530002,None,s,1,3.0422716260000016,899.9523689159978,None,899.9523689159978,None,899.9523689159978,None,903.052197877998,None,903.052197877998,None,903.052197877998,None,903.052197877998,None,,,,,,,,,,,,,,,894.4357915159999,None,,,,,,,,,,,,,,,,,,,,,,,,,,,,001,66,2020_Feb_04_1401,spring_faces,3.1.5,60.0373911672121,
condition files/Stage2_1.xlsx,,B6,T6,r,"['s', 'r']","['Stratego', 'Risk']","[-0.15, 0.5]","[0.15, 0.5]",1,1,,,,,,,,,,,,,,,,,0,0,0,0,0,1,1,1,,,,,,,,,,,,,,,,,,,,,,,,,,,,,,,,,,,,,,,,,,,,,,,905.0189736520006,None,905.0189736520006,None,905.0189736520006,None,r,1,1.464707045997784,906.5538508069985,None,906.5538508069985,None,906.5538508069985,None,908.069805277999,None,908.069805277999,None,908.069805277999,None,908.069805277999,None,,,,,,,,,,,,,,,,,,,,,,,,,,,,,,,,,,,,,,,,,,,,001,66,2020_Feb_04_1401,spring_faces,3.1.5,60.0373911672121,
condition files/Stage2_1.xlsx,,T5,B5,s,"['s', 'r']","['Stratego', 'Risk']","[-0.15, 0.5]","[0.15, 0.5]",1,1,,,,,,,,,,,,,,,,,0,0,0,0,0,2,2,0,,,,,,,,,,,,,,,,,,,,,,,,,,,,,,,,,,,,,,,,,,,,,,,910.0354741939991,None,910.0354741939991,None,910.0354741939991,None,r,0,1.1044766230006644,911.5700504999986,None,911.5700504999986,None,911.5700504999986,None,912.7365153409992,None,912.7365153409992,None,912.7365153409992,None,912.7365153409992,None,,,,,,,,,,,,,,,,,,,,,,,,,,,,,,,,,,,,,,,,,,,,001,66,2020_Feb_04_1401,spring_faces,3.1.5,60.0373911672121,
condition files/Stage2_1.xlsx,,T1,B1,s,"['s', 'r']","['Stratego', 'Risk']","[-0.15, 0.5]","[0.15, 0.5]",1,1,,,,,,,,,,,,,,,,,0,0,0,0,0,3,3,2,,,,,,,,,,,,,,,,,,,,,,,,,,,,,,,,,,,,,,,,,,,,,,,914.7022631489999,None,914.7022631489999,None,914.7022631489999,None,s,1,1.044407384000806,916.2380955990011,None,916.2380955990011,None,916.2380955990011,None,917.3360057239988,None,917.3360057239988,None,917.3360057239988,None,917.3360057239988,None,,,,,,,,,,,,,,,,,,,,,,,,,,,,,,,,,,,,,,,,,,,,001,66,2020_Feb_04_1401,spring_faces,3.1.5,60.0373911672121,
condition files/Stage2_1.xlsx,,B2,T2,r,"['s', 'r']","['Stratego', 'Risk']","[-0.15, 0.5]","[0.15, 0.5]",1,1,,,,,,,,,,,,,,,,,0,0,0,0,0,4,4,3,,,,,,,,,,,,,,,,,,,,,,,,,,,,,,,,,,,,,,,,,,,,,,,919.3023506829995,None,919.3023506829995,None,919.3023506829995,None,r,1,1.7272081509981945,920.8354007909984,None,920.8354007909984,None,920.8354007909984,None,922.6190908809986,None,922.6190908809986,None,922.6190908809986,None,922.6190908809986,None,,,,,,,,,,,,,,,,,,,,,,,,,,,,,,,,,,,,,,,,,,,,001,66,2020_Feb_04_1401,spring_faces,3.1.5,60.0373911672121,
condition files/Stage2_1.xlsx,,B4,T4,r,"['s', 'r']","['Stratego', 'Risk']","[-0.15, 0.5]","[0.15, 0.5]",1,1,,,,,,,,,,,,,,,,,0,0,0,0,0,5,5,5,,,,,,,,,,,,,,,,,,,,,,,,,,,,,,,,,,,,,,,,,,,,,,,924.5857439949978,None,924.5857439949978,None,924.5857439949978,None,r,1,0.9876798580007744,926.1188681329986,None,926.1188681329986,None,926.1188681329986,None,927.1690250259999,None,927.1690250259999,None,927.1690250259999,None,927.1690250259999,None,,,,,,,,,,,,,,,,,,,,,,,,,,,,,,,,,,,,,,,,,,,,001,66,2020_Feb_04_1401,spring_faces,3.1.5,60.0373911672121,
condition files/Stage2_2.xlsx,,T2,B2,r,"['s', 'r']","['Stratego', 'Risk']","[-0.15, 0.5]","[0.15, 0.5]",1,1,,,,,,,,,,,,,,,,,0,1,1,1,0,0,0,3,,,,,,,,,,,,,,,,,,,,,,,,,,,,,,,,,,,,,,,,,,,,,,,929.1527874979984,None,929.1527874979984,None,929.1527874979984,None,s,0,1.2194049290010298,930.6871731770007,None,930.6871731770007,None,930.6871731770007,None,931.969061161999,None,931.969061161999,None,931.969061161999,None,931.969061161999,None,,,,,,,,,,,,,,,,,,,,,,,,,,,,,,,,,,,,,,,,,,,,001,66,2020_Feb_04_1401,spring_faces,3.1.5,60.0373911672121,
condition files/Stage2_2.xlsx,,B3,T3,s,"['s', 'r']","['Stratego', 'Risk']","[-0.15, 0.5]","[0.15, 0.5]",1,1,,,,,,,,,,,,,,,,,0,1,1,1,0,1,1,4,,,,,,,,,,,,,,,,,,,,,,,,,,,,,,,,,,,,,,,,,,,,,,,933.9354175330009,None,933.9354175330009,None,933.9354175330009,None,r,0,1.0275975160002417,935.4709706139984,None,935.4709706139984,None,935.4709706139984,None,936.5548767830005,None,936.5548767830005,None,936.5548767830005,None,936.5548767830005,None,,,,,,,,,,,,,,,,,,,,,,,,,,,,,,,,,,,,,,,,,,,,001,66,2020_Feb_04_1401,spring_faces,3.1.5,60.0373911672121,
condition files/Stage2_2.xlsx,,T6,B6,r,"['s', 'r']","['Stratego', 'Risk']","[-0.15, 0.5]","[0.15, 0.5]",1,1,,,,,,,,,,,,,,,,,0,1,1,1,0,2,2,1,,,,,,,,,,,,,,,,,,,,,,,,,,,,,,,,,,,,,,,,,,,,,,,938.5191256350008,None,938.5191256350008,None,938.5191256350008,None,s,0,1.4057186609970813,940.0688456069984,None,940.0688456069984,None,940.0688456069984,None,941.5361621869997,None,941.5361621869997,None,941.5361621869997,None,941.5361621869997,None,,,,,,,,,,,,,,,,,,,,,,,,,,,,,,,,,,,,,,,,,,,,001,66,2020_Feb_04_1401,spring_faces,3.1.5,60.0373911672121,
condition files/Stage2_2.xlsx,,T4,B4,r,"['s', 'r']","['Stratego', 'Risk']","[-0.15, 0.5]","[0.15, 0.5]",1,1,,,,,,,,,,,,,,,,,0,1,1,1,0,3,3,5,,,,,,,,,,,,,,,,,,,,,,,,,,,,,,,,,,,,,,,,,,,,,,,943.5023671700001,None,943.5023671700001,None,943.5023671700001,None,r,1,2.2135174600007304,945.0370413470009,None,945.0370413470009,None,945.0370413470009,None,947.302229773999,None,947.302229773999,None,947.302229773999,None,947.302229773999,None,,,,,,,,,,,,,,,,,,,,,,,,,,,,,,,,,,,,,,,,,,,,001,66,2020_Feb_04_1401,spring_faces,3.1.5,60.0373911672121,
condition files/Stage2_2.xlsx,,B5,T5,s,"['s', 'r']","['Stratego', 'Risk']","[-0.15, 0.5]","[0.15, 0.5]",1,1,,,,,,,,,,,,,,,,,0,1,1,1,0,4,4,0,,,,,,,,,,,,,,,,,,,,,,,,,,,,,,,,,,,,,,,,,,,,,,,949.2692714410005,None,949.2692714410005,None,949.2692714410005,None,s,1,1.071006287002092,950.8195425999984,None,950.8195425999984,None,950.8195425999984,None,951.9551417289986,None,951.9551417289986,None,951.9551417289986,None,951.9551417289986,None,,,,,,,,,,,,,,,,,,,,,,,,,,,,,,,,,,,,,,,,,,,,001,66,2020_Feb_04_1401,spring_faces,3.1.5,60.0373911672121,
condition files/Stage2_2.xlsx,,B1,T1,s,"['s', 'r']","['Stratego', 'Risk']","[-0.15, 0.5]","[0.15, 0.5]",1,1,,,,,,,,,,,,,,,,,0,1,1,1,0,5,5,2,,,,,,,,,,,,,,,,,,,,,,,,,,,,,,,,,,,,,,,,,,,,,,,953.9190849650004,None,953.9190849650004,None,953.9190849650004,None,r,0,1.0615101420007704,955.469011737001,None,955.469011737001,None,955.469011737001,None,956.5854177900001,None,956.5854177900001,None,956.5854177900001,None,956.5854177900001,None,,,,,,,,,,,,,,,,,,,,,,,,,,,,,,,,,,,,,,,,,,,,001,66,2020_Feb_04_1401,spring_faces,3.1.5,60.0373911672121,
condition files/Stage2_1.xlsx,,T5,B5,s,"['s', 'r']","['Stratego', 'Risk']","[-0.15, 0.5]","[0.15, 0.5]",1,1,,,,,,,,,,,,,,,,,0,2,2,2,0,0,0,0,,,,,,,,,,,,,,,,,,,,,,,,,,,,,,,,,,,,,,,,,,,,,,,958.568679136999,None,958.568679136999,None,958.568679136999,None,r,0,2.7779566409990366,960.10473241,None,960.10473241,None,960.10473241,None,962.9353934469982,None,962.9353934469982,None,962.9353934469982,None,962.9353934469982,None,,,,,,,,,,,,,,,,,,,,,,,,,,,,,,,,,,,,,,,,,,,,001,66,2020_Feb_04_1401,spring_faces,3.1.5,60.0373911672121,
condition files/Stage2_1.xlsx,,T3,B3,s,"['s', 'r']","['Stratego', 'Risk']","[-0.15, 0.5]","[0.15, 0.5]",1,1,,,,,,,,,,,,,,,,,0,2,2,2,0,1,1,4,,,,,,,,,,,,,,,,,,,,,,,,,,,,,,,,,,,,,,,,,,,,,,,964.9024498260005,None,964.9024498260005,None,964.9024498260005,None,s,1,2.351083050001762,966.4354541879984,None,966.4354541879984,None,966.4354541879984,None,968.852883055999,None,968.852883055999,None,968.852883055999,None,968.852883055999,None,,,,,,,,,,,,,,,,,,,,,,,,,,,,,,,,,,,,,,,,,,,,001,66,2020_Feb_04_1401,spring_faces,3.1.5,60.0373911672121,
condition files/Stage2_1.xlsx,,B2,T2,r,"['s', 'r']","['Stratego', 'Risk']","[-0.15, 0.5]","[0.15, 0.5]",1,1,,,,,,,,,,,,,,,,,0,2,2,2,0,2,2,3,,,,,,,,,,,,,,,,,,,,,,,,,,,,,,,,,,,,,,,,,,,,,,,970.819219691999,None,970.819219691999,None,970.819219691999,None,r,1,1.9703472630026226,972.3522189389987,None,972.3522189389987,None,972.3522189389987,None,974.3873417190007,None,974.3873417190007,None,974.3873417190007,None,974.3873417190007,None,,,,,,,,,,,,,,,,,,,,,,,,,,,,,,,,,,,,,,,,,,,,001,66,2020_Feb_04_1401,spring_faces,3.1.5,60.0373911672121,
condition files/Stage2_1.xlsx,,B4,T4,r,"['s', 'r']","['Stratego', 'Risk']","[-0.15, 0.5]","[0.15, 0.5]",1,1,,,,,,,,,,,,,,,,,0,2,2,2,0,3,3,5,,,,,,,,,,,,,,,,,,,,,,,,,,,,,,,,,,,,,,,,,,,,,,,976.3523624789996,None,976.3523624789996,None,976.3523624789996,None,s,0,1.4127161360011087,977.8858487569996,None,977.8858487569996,None,977.8858487569996,None,979.3523311309982,None,979.3523311309982,None,979.3523311309982,None,979.3523311309982,None,,,,,,,,,,,,,,,,,,,,,,,,,,,,,,,,,,,,,,,,,,,,001,66,2020_Feb_04_1401,spring_faces,3.1.5,60.0373911672121,
condition files/Stage2_1.xlsx,,B6,T6,r,"['s', 'r']","['Stratego', 'Risk']","[-0.15, 0.5]","[0.15, 0.5]",1,1,,,,,,,,,,,,,,,,,0,2,2,2,0,4,4,1,,,,,,,,,,,,,,,,,,,,,,,,,,,,,,,,,,,,,,,,,,,,,,,981.3192011210012,None,981.3192011210012,None,981.3192011210012,None,r,1,1.7254932280011417,982.8530069400003,None,982.8530069400003,None,982.8530069400003,None,984.6355695099992,None,984.6355695099992,None,984.6355695099992,None,984.6355695099992,None,,,,,,,,,,,,,,,,,,,,,,,,,,,,,,,,,,,,,,,,,,,,001,66,2020_Feb_04_1401,spring_faces,3.1.5,60.0373911672121,
condition files/Stage2_1.xlsx,,T1,B1,s,"['s', 'r']","['Stratego', 'Risk']","[-0.15, 0.5]","[0.15, 0.5]",1,1,,,,,,,,,,,,,,,,,0,2,2,2,0,5,5,2,,,,,,,,,,,,,,,,,,,,,,,,,,,,,,,,,,,,,,,,,,,,,,,986.6024693569998,None,986.6024693569998,None,986.6024693569998,None,s,1,1.9940940170017711,988.1525303259987,None,988.1525303259987,None,988.1525303259987,None,990.2036697080002,None,990.2036697080002,None,990.2036697080002,None,990.2036697080002,None,,,,,,,,,,,,,,,,,,,,,,,,,,,,,,,,,,,,,,,,,,,,001,66,2020_Feb_04_1401,spring_faces,3.1.5,60.0373911672121,
condition files/Stage2_2.xlsx,,T4,B4,r,"['s', 'r']","['Stratego', 'Risk']","[-0.15, 0.5]","[0.15, 0.5]",1,1,,,,,,,,,,,,,,,,,0,3,3,3,0,0,0,5,,,,,,,,,,,,,,,,,,,,,,,,,,,,,,,,,,,,,,,,,,,,,,,992.1859154539998,None,992.1859154539998,None,992.1859154539998,None,r,1,1.3068105000020296,993.7358113640003,None,993.7358113640003,None,993.7358113640003,None,995.1033284080004,None,995.1033284080004,None,995.1033284080004,None,995.1033284080004,None,,,,,,,,,,,,,,,,,,,,,,,,,,,,,,,,,,,,,,,,,,,,001,66,2020_Feb_04_1401,spring_faces,3.1.5,60.0373911672121,
condition files/Stage2_2.xlsx,,B3,T3,s,"['s', 'r']","['Stratego', 'Risk']","[-0.15, 0.5]","[0.15, 0.5]",1,1,,,,,,,,,,,,,,,,,0,3,3,3,0,1,1,4,,,,,,,,,,,,,,,,,,,,,,,,,,,,,,,,,,,,,,,,,,,,,,,997.0690321090005,None,997.0690321090005,None,997.0690321090005,None,r,0,2.1658159069993417,998.6047080659991,None,998.6047080659991,None,998.6047080659991,None,1000.838430552998,None,1000.838430552998,None,1000.838430552998,None,1000.838430552998,None,,,,,,,,,,,,,,,,,,,,,,,,,,,,,,,,,,,,,,,,,,,,001,66,2020_Feb_04_1401,spring_faces,3.1.5,60.0373911672121,
condition files/Stage2_2.xlsx,,T6,B6,r,"['s', 'r']","['Stratego', 'Risk']","[-0.15, 0.5]","[0.15, 0.5]",1,1,,,,,,,,,,,,,,,,,0,3,3,3,0,2,2,1,,,,,,,,,,,,,,,,,,,,,,,,,,,,,,,,,,,,,,,,,,,,,,,1002.8018282189987,None,1002.8018282189987,None,1002.8018282189987,None,r,1,0.8177231469999242,1004.352786124,None,1004.352786124,None,1004.352786124,None,1005.2381060879998,None,1005.2381060879998,None,1005.2381060879998,None,1005.2381060879998,None,,,,,,,,,,,,,,,,,,,,,,,,,,,,,,,,,,,,,,,,,,,,001,66,2020_Feb_04_1401,spring_faces,3.1.5,60.0373911672121,
condition files/Stage2_2.xlsx,,B5,T5,s,"['s', 'r']","['Stratego', 'Risk']","[-0.15, 0.5]","[0.15, 0.5]",1,1,,,,,,,,,,,,,,,,,0,3,3,3,0,3,3,0,,,,,,,,,,,,,,,,,,,,,,,,,,,,,,,,,,,,,,,,,,,,,,,1007.2021313469995,None,1007.2021313469995,None,1007.2021313469995,None,r,0,0.9783551879991137,1008.7361830810005,None,1008.7361830810005,None,1008.7361830810005,None,1009.7713708980009,None,1009.7713708980009,None,1009.7713708980009,None,1009.7713708980009,None,,,,,,,,,,,,,,,,,,,,,,,,,,,,,,,,,,,,,,,,,,,,001,66,2020_Feb_04_1401,spring_faces,3.1.5,60.0373911672121,
condition files/Stage2_2.xlsx,,T2,B2,r,"['s', 'r']","['Stratego', 'Risk']","[-0.15, 0.5]","[0.15, 0.5]",1,1,,,,,,,,,,,,,,,,,0,3,3,3,0,4,4,3,,,,,,,,,,,,,,,,,,,,,,,,,,,,,,,,,,,,,,,,,,,,,,,1011.7356734069981,None,1011.7356734069981,None,1011.7356734069981,None,r,1,1.6114153300004546,1013.271260491998,None,1013.271260491998,None,1013.271260491998,None,1014.9370848149993,None,1014.9370848149993,None,1014.9370848149993,None,1014.9370848149993,None,,,,,,,,,,,,,,,,,,,,,,,,,,,,,,,,,,,,,,,,,,,,001,66,2020_Feb_04_1401,spring_faces,3.1.5,60.0373911672121,
condition files/Stage2_2.xlsx,,B1,T1,s,"['s', 'r']","['Stratego', 'Risk']","[-0.15, 0.5]","[0.15, 0.5]",1,1,,,,,,,,,,,,,,,,,0,3,3,3,0,5,5,2,,,,,,,,,,,,,,,,,,,,,,,,,,,,,,,,,,,,,,,,,,,,,,,1016.9024200120002,None,1016.9024200120002,None,1016.9024200120002,None,s,1,1.022476073998405,1018.436160811998,None,1018.436160811998,None,1018.436160811998,None,1019.5360025929986,None,1019.5360025929986,None,1019.5360025929986,None,1019.5360025929986,None,,,,,,,,,,,,,,,,,,,,,,,,,,,,,,,,,,,,,,,,,,,,001,66,2020_Feb_04_1401,spring_faces,3.1.5,60.0373911672121,
condition files/Stage2_1.xlsx,,T3,B3,s,"['s', 'r']","['Stratego', 'Risk']","[-0.15, 0.5]","[0.15, 0.5]",1,1,,,,,,,,,,,,,,,,,0,4,4,4,0,0,0,4,,,,,,,,,,,,,,,,,,,,,,,,,,,,,,,,,,,,,,,,,,,,,,,1021.5025646190006,None,1021.5025646190006,None,1021.5025646190006,None,r,0,1.3659346679996816,1023.0526071809982,None,1023.0526071809982,None,1023.0526071809982,None,1024.4691401759992,None,1024.4691401759992,None,1024.4691401759992,None,1024.4691401759992,None,,,,,,,,,,,,,,,,,,,,,,,,,,,,,,,,,,,,,,,,,,,,001,66,2020_Feb_04_1401,spring_faces,3.1.5,60.0373911672121,
condition files/Stage2_1.xlsx,,T5,B5,s,"['s', 'r']","['Stratego', 'Risk']","[-0.15, 0.5]","[0.15, 0.5]",1,1,,,,,,,,,,,,,,,,,0,4,4,4,0,1,1,0,,,,,,,,,,,,,,,,,,,,,,,,,,,,,,,,,,,,,,,,,,,,,,,1026.4357594089997,None,1026.4357594089997,None,1026.4357594089997,None,s,1,1.5367853490024572,1027.9697834020008,None,1027.9697834020008,None,1027.9697834020008,None,1029.5691418759998,None,1029.5691418759998,None,1029.5691418759998,None,1029.5691418759998,None,,,,,,,,,,,,,,,,,,,,,,,,,,,,,,,,,,,,,,,,,,,,001,66,2020_Feb_04_1401,spring_faces,3.1.5,60.0373911672121,
condition files/Stage2_1.xlsx,,B4,T4,r,"['s', 'r']","['Stratego', 'Risk']","[-0.15, 0.5]","[0.15, 0.5]",1,1,,,,,,,,,,,,,,,,,0,4,4,4,0,2,2,5,,,,,,,,,,,,,,,,,,,,,,,,,,,,,,,,,,,,,,,,,,,,,,,1031.535702754998,None,1031.535702754998,None,1031.535702754998,None,s,0,1.7655381740005396,1033.0690227079976,None,1033.0690227079976,None,1033.0690227079976,None,1034.9025982149979,None,1034.9025982149979,None,1034.9025982149979,None,1034.9025982149979,None,,,,,,,,,,,,,,,,,,,,,,,,,,,,,,,,,,,,,,,,,,,,001,66,2020_Feb_04_1401,spring_faces,3.1.5,60.0373911672121,
condition files/Stage2_1.xlsx,,B6,T6,r,"['s', 'r']","['Stratego', 'Risk']","[-0.15, 0.5]","[0.15, 0.5]",1,1,,,,,,,,,,,,,,,,,0,4,4,4,0,3,3,1,,,,,,,,,,,,,,,,,,,,,,,,,,,,,,,,,,,,,,,,,,,,,,,1036.8518076580003,None,1036.8518076580003,None,1036.8518076580003,None,r,1,1.2645663549992605,1038.4019756710004,None,1038.4019756710004,None,1038.4019756710004,None,1039.7190020439994,None,1039.7190020439994,None,1039.7190020439994,None,1039.7190020439994,None,,,,,,,,,,,,,,,,,,,,,,,,,,,,,,,,,,,,,,,,,,,,001,66,2020_Feb_04_1401,spring_faces,3.1.5,60.0373911672121,
