condsFile,subStage,cue1,cue2,correct,responseKeys,responseNames,cue1Position,cue2Position,cue1Opacity,cue2Opacity,stageLoop0.thisRepN,stageLoop0.thisTrialN,stageLoop0.thisN,stageLoop0.thisIndex,blockLoop0.thisRepN,blockLoop0.thisTrialN,blockLoop0.thisN,blockLoop0.thisIndex,stage1Loop.thisRepN,stage1Loop.thisTrialN,stage1Loop.thisN,stage1Loop.thisIndex,blockLoop1.thisRepN,blockLoop1.thisTrialN,blockLoop1.thisN,blockLoop1.thisIndex,stage2Loop.thisRepN,stage2Loop.thisTrialN,stage2Loop.thisN,stage2Loop.thisIndex,blockLoop2.thisRepN,blockLoop2.thisTrialN,blockLoop2.thisN,blockLoop2.thisIndex,testLoop.thisRepN,testLoop.thisTrialN,testLoop.thisN,testLoop.thisIndex,blockLoopTest.thisRepN,blockLoopTest.thisTrialN,blockLoopTest.thisN,blockLoopTest.thisIndex,cuePics,id_instr_text.started,id_instr_text.stopped,space_to_continue_2.started,space_to_continue_2.stopped,end_instructions_resp_3.keys,end_instructions_resp_3.rt,end_instructions_resp_3.started,end_instructions_resp_3.stopped,id_input_instr.started,id_input_instr.stopped,id_input_rect.started,id_input_rect.stopped,id_input_resp.keys,id_input_resp.rt,id_input_resp.started,id_input_resp.stopped,sonaID,id_input_text.started,id_input_text.stopped,final_text.started,final_text.stopped,instructions.started,instructions.stopped,end_instructions_resp.keys,end_instructions_resp.rt,end_instructions_resp.started,end_instructions_resp.stopped,space_to_continue.started,space_to_continue.stopped,instructions_stage0.started,instructions_stage0.stopped,end_instructions_resp_stage0.keys,end_instructions_resp_stage0.rt,end_instructions_resp_stage0.started,end_instructions_resp_stage0.stopped,space_to_continue_stage0.started,space_to_continue_stage0.stopped,text.started,text.stopped,resp_text1.started,resp_text1.stopped,resp_text2.started,resp_text2.stopped,trial_resp.keys,trial_resp.corr,trial_resp.rt,trial_resp.started,trial_resp.stopped,cue1Image.started,cue1Image.stopped,cue2Image.started,cue2Image.stopped,cue1Image_fb.started,cue1Image_fb.stopped,cue2Image_fb.started,cue2Image_fb.stopped,fb_text_answer.started,fb_text_answer.stopped,feedback_image.started,feedback_image.stopped,instructions_stage1.started,instructions_stage1.stopped,end_instructions_resp_stage1.keys,end_instructions_resp_stage1.rt,end_instructions_resp_stage1.started,end_instructions_resp_stage1.stopped,space_to_continue_stage1.started,space_to_continue_stage1.stopped,instructions_2.started,instructions_2.stopped,end_instructions_resp_2.keys,end_instructions_resp_2.rt,end_instructions_resp_2.started,end_instructions_resp_2.stopped,press_space_to_continue_stage2.started,press_space_to_continue_stage2.stopped,instructions_testStage1.started,instructions_testStage1.stopped,end_instructions_resp_test1.keys,end_instructions_resp_test1.rt,end_instructions_resp_test1.started,end_instructions_resp_test1.stopped,press_space_to_continue_test1.started,press_space_to_continue_test1.stopped,cue1Image_testChoice.started,cue1Image_testChoice.stopped,cue2Image_testChoice.started,cue2Image_testChoice.stopped,test_resp.keys,test_resp.corr,test_resp.rt,test_resp.started,test_resp.stopped,cue1Image_testConf.started,cue1Image_testConf.stopped,cue2Image_testConf.started,cue2Image_testConf.stopped,conf_reminder.started,conf_reminder.stopped,conf_rating.response,conf_rating.rt,conf_rating.started,conf_rating.stopped,session,participant,date,expName,psychopyVersion,frameRate,
,,,,,,,,,,,,,,,,,,,,,,,,,,,,,,,,,,,,,,,,,,,"{'none': 'pictures/20M_AN_C.png', 'alpha': 'pictures/SHINEd_pepper.png', 'beta': 'pictures/SHINEd_melon.png', 'theta': 'pictures/SHINEd_pear.png', 'phi': 'pictures/SHINEd_apple.png', 'T1': 'pictures/37M_AN_C.png', 'T2': 'pictures/25M_AN_C.png', 'T3': 'pictures/36M_AN_C.png', 'T4': 'pictures/31M_AN_C.png', 'T5': 'pictures/34M_AN_C.png', 'T6': 'pictures/32M_AN_C.png', 'B1': 'pictures/26M_NE_C.png', 'B2': 'pictures/33M_NE_C.png', 'B3': 'pictures/20M_NE_C.png', 'B4': 'pictures/23M_NE_C.png', 'B5': 'pictures/38M_NE_C.png', 'B6': 'pictures/22M_NE_C.png'}",11.411621298000682,None,16.394583096000133,None,space,3.1741558440007793,16.394583096000133,None,,,,,,,,,,,,,,,,,,,,,,,,,,,,,,,,,,,,,,,,,,,,,,,,,,,,,,,,,,,,,,,,,,,,,,,,,,,,,,,,,,,,,,,,,,,,,,,,001,69,2020_Feb_04_1457,spring_faces,3.1.5,60.048433024454354,
,,,,,,,,,,,,,,,,,,,,,,,,,,,,,,,,,,,,,,,,,,,,,,,,,,,,19.943994524001027,None,19.943994524001027,None,"['0', '5', '1', '2', 'j', 'o', 's', 't', 'e', '0', '5', '1', '2', 'j', 'o', 's', 't', 'e', '0', '5', '1', '2', 'j', 'o', 's', 't', 'e']","[11.976758896998945, 12.968663914998615, 17.28864328399868, 17.512645474998862, 22.69669137299934, 23.080789617997652, 26.584634734001156, 26.840688756998134, 26.9686334049984, 34.76075072299864, 35.00063195899929, 38.76073797099889, 39.064682284999435, 41.56078987799992, 41.912670263998734, 43.67270323399862, 43.896689346998755, 44.040675674998056, 51.62473855499775, 52.42474361799759, 57.32067765199827, 57.35267217100045, 61.03267827599848, 61.20875779799826, 66.26468249800018, 68.40875641299863, 68.76073903799988]",19.943994524001027,None,,,,,,,,,,,,,,,,,,,,,,,,,,,,,,,,,,,,,,,,,,,,,,,,,,,,,,,,,,,,,,,,,,,,,,,,,,,,,,,,,,,,,,,,001,69,2020_Feb_04_1457,spring_faces,3.1.5,60.048433024454354,
,,,,,,,,,,,,,,,,,,,,,,,,,,,,,,,,,,,,,,,,,,,,,,,,,,,,,,,,,,,,0512joste,19.943994524001027,None,19.943994524001027,None,93.7783852370012,None,space,1.8146575360005954,98.77803926599881,None,,,,,,,,,,,,,,,,,,,,,,,,,,,,,,,,,,,,,,,,,,,,,,,,,,,,,,,,,,,,,,,,,,,,,,,,,,,,,001,69,2020_Feb_04_1457,spring_faces,3.1.5,60.048433024454354,
,,,,,,,,,,,,,,,,,,,,,,,,,,,,,,,,,,,,,,,,,,,,,,,,,,,,,,,,,,,,,,,,,,,,,,,98.77803926599881,None,100.62809421000202,None,space,1.4769240880013967,105.62784853899939,None,,,,,,,,,,,,,,,,,,,,,,,,,,,,,,,,,,,,,,,,,,,,,,,,,,,,,,,,,,,,,,,,,,,,,001,69,2020_Feb_04_1457,spring_faces,3.1.5,60.048433024454354,
condition files/Stage0a.xlsx,0a,beta,none,g,"['h', 'g']","['Chess', 'Go']","[0, 0.5]","[0, 0]",1,0,0,0,0,0,0,0,0,1,,,,,,,,,,,,,,,,,,,,,,,,,,,,,,,,,,,,,,,,,,,,,,,,,,,,,,,,,,,,,105.62784853899939,None,107.16147453600206,None,107.16147453600206,None,107.16147453600206,None,h,0,2.3446224850013095,108.72805205400073,None,108.72805205400073,None,108.72805205400073,None,111.14483975700205,None,111.14483975700205,None,111.14483975700205,None,111.14483975700205,None,,,,,,,,,,,,,,,,,,,,,,,,,,,,,,,,,,,,,,,,,,,,001,69,2020_Feb_04_1457,spring_faces,3.1.5,60.048433024454354,
condition files/Stage0a.xlsx,0a,alpha,none,h,"['h', 'g']","['Chess', 'Go']","[0, 0.5]","[0, 0]",1,0,0,0,0,0,0,1,1,0,,,,,,,,,,,,,,,,,,,,,,,,,,,,,,,,,,,,,,,,,,,,,,,,,,,,,,,,,,,,,,,113.09440540400101,None,113.09440540400101,None,113.09440540400101,None,h,1,1.6440388970004278,114.64471089300059,None,114.64471089300059,None,114.64471089300059,None,116.3473168849996,None,116.3473168849996,None,116.3473168849996,None,116.3473168849996,None,,,,,,,,,,,,,,,,,,,,,,,,,,,,,,,,,,,,,,,,,,,,001,69,2020_Feb_04_1457,spring_faces,3.1.5,60.048433024454354,
condition files/Stage0a.xlsx,0a,alpha,none,h,"['h', 'g']","['Chess', 'Go']","[0, 0.5]","[0, 0]",1,0,0,1,1,1,0,0,0,0,,,,,,,,,,,,,,,,,,,,,,,,,,,,,,,,,,,,,,,,,,,,,,,,,,,,,,,,,,,,,,,118.32801585700145,None,118.32801585700145,None,118.32801585700145,None,h,1,1.3879953960022249,119.8606959960016,None,119.8606959960016,None,119.8606959960016,None,121.31143668400182,None,121.31143668400182,None,121.31143668400182,None,121.31143668400182,None,,,,,,,,,,,,,,,,,,,,,,,,,,,,,,,,,,,,,,,,,,,,001,69,2020_Feb_04_1457,spring_faces,3.1.5,60.048433024454354,
condition files/Stage0a.xlsx,0a,beta,none,g,"['h', 'g']","['Chess', 'Go']","[0, 0.5]","[0, 0]",1,0,0,1,1,1,0,1,1,1,,,,,,,,,,,,,,,,,,,,,,,,,,,,,,,,,,,,,,,,,,,,,,,,,,,,,,,,,,,,,,,123.27794250399893,None,123.27794250399893,None,123.27794250399893,None,g,1,0.7893425280017254,124.81133730500005,None,124.81133730500005,None,124.81133730500005,None,125.66087510800207,None,125.66087510800207,None,125.66087510800207,None,125.66087510800207,None,,,,,,,,,,,,,,,,,,,,,,,,,,,,,,,,,,,,,,,,,,,,001,69,2020_Feb_04_1457,spring_faces,3.1.5,60.048433024454354,
condition files/Stage0a.xlsx,0a,beta,none,g,"['h', 'g']","['Chess', 'Go']","[0, 0.5]","[0, 0]",1,0,0,2,2,2,0,0,0,1,,,,,,,,,,,,,,,,,,,,,,,,,,,,,,,,,,,,,,,,,,,,,,,,,,,,,,,,,,,,,,,127.64469830500093,None,127.64469830500093,None,127.64469830500093,None,g,1,0.8868952630000422,129.17779460599922,None,129.17779460599922,None,129.17779460599922,None,130.12800790899928,None,130.12800790899928,None,130.12800790899928,None,130.12800790899928,None,,,,,,,,,,,,,,,,,,,,,,,,,,,,,,,,,,,,,,,,,,,,001,69,2020_Feb_04_1457,spring_faces,3.1.5,60.048433024454354,
condition files/Stage0a.xlsx,0a,alpha,none,h,"['h', 'g']","['Chess', 'Go']","[0, 0.5]","[0, 0]",1,0,0,2,2,2,0,1,1,0,,,,,,,,,,,,,,,,,,,,,,,,,,,,,,,,,,,,,,,,,,,,,,,,,,,,,,,,,,,,,,,132.09431202600172,None,132.09431202600172,None,132.09431202600172,None,h,1,0.6286770090009668,133.62799565200112,None,133.62799565200112,None,133.62799565200112,None,134.31119733800006,None,134.31119733800006,None,134.31119733800006,None,134.31119733800006,None,,,,,,,,,,,,,,,,,,,,,,,,,,,,,,,,,,,,,,,,,,,,001,69,2020_Feb_04_1457,spring_faces,3.1.5,60.048433024454354,
condition files/Stage0a.xlsx,0a,alpha,none,h,"['h', 'g']","['Chess', 'Go']","[0, 0.5]","[0, 0]",1,0,0,3,3,3,0,0,0,0,,,,,,,,,,,,,,,,,,,,,,,,,,,,,,,,,,,,,,,,,,,,,,,,,,,,,,,,,,,,,,,136.29468756200004,None,136.29468756200004,None,136.29468756200004,None,g,0,0.47521494700049516,137.8295434669999,None,137.8295434669999,None,137.8295434669999,None,138.3614587209995,None,138.3614587209995,None,138.3614587209995,None,138.3614587209995,None,,,,,,,,,,,,,,,,,,,,,,,,,,,,,,,,,,,,,,,,,,,,001,69,2020_Feb_04_1457,spring_faces,3.1.5,60.048433024454354,
condition files/Stage0a.xlsx,0a,beta,none,g,"['h', 'g']","['Chess', 'Go']","[0, 0.5]","[0, 0]",1,0,0,3,3,3,0,1,1,1,,,,,,,,,,,,,,,,,,,,,,,,,,,,,,,,,,,,,,,,,,,,,,,,,,,,,,,,,,,,,,,140.32756706700093,None,140.32756706700093,None,140.32756706700093,None,g,1,0.9392466680001235,141.86143877400173,None,141.86143877400173,None,141.86143877400173,None,142.8611308940017,None,142.8611308940017,None,142.8611308940017,None,142.8611308940017,None,,,,,,,,,,,,,,,,,,,,,,,,,,,,,,,,,,,,,,,,,,,,001,69,2020_Feb_04_1457,spring_faces,3.1.5,60.048433024454354,
condition files/Stage0a.xlsx,0a,alpha,none,h,"['h', 'g']","['Chess', 'Go']","[0, 0.5]","[0, 0]",1,0,0,4,4,4,0,0,0,0,,,,,,,,,,,,,,,,,,,,,,,,,,,,,,,,,,,,,,,,,,,,,,,,,,,,,,,,,,,,,,,144.8447374870011,None,144.8447374870011,None,144.8447374870011,None,h,1,0.48665746999904513,146.37803698399875,None,146.37803698399875,None,146.37803698399875,None,146.9279094750018,None,146.9279094750018,None,146.9279094750018,None,146.9279094750018,None,,,,,,,,,,,,,,,,,,,,,,,,,,,,,,,,,,,,,,,,,,,,001,69,2020_Feb_04_1457,spring_faces,3.1.5,60.048433024454354,
condition files/Stage0a.xlsx,0a,beta,none,g,"['h', 'g']","['Chess', 'Go']","[0, 0.5]","[0, 0]",1,0,0,4,4,4,0,1,1,1,,,,,,,,,,,,,,,,,,,,,,,,,,,,,,,,,,,,,,,,,,,,,,,,,,,,,,,,,,,,,,,148.89433461999943,None,148.89433461999943,None,148.89433461999943,None,g,1,2.293470630000229,150.4273203340017,None,150.4273203340017,None,150.4273203340017,None,152.77766697300103,None,152.77766697300103,None,152.77766697300103,None,152.77766697300103,None,,,,,,,,,,,,,,,,,,,,,,,,,,,,,,,,,,,,,,,,,,,,001,69,2020_Feb_04_1457,spring_faces,3.1.5,60.048433024454354,
condition files/Stage0a.xlsx,0a,alpha,none,h,"['h', 'g']","['Chess', 'Go']","[0, 0.5]","[0, 0]",1,0,0,5,5,5,0,0,0,0,,,,,,,,,,,,,,,,,,,,,,,,,,,,,,,,,,,,,,,,,,,,,,,,,,,,,,,,,,,,,,,154.76139991500168,None,154.76139991500168,None,154.76139991500168,None,h,1,0.6339299390019733,156.2947325189998,None,156.2947325189998,None,156.2947325189998,None,156.9945244570008,None,156.9945244570008,None,156.9945244570008,None,156.9945244570008,None,,,,,,,,,,,,,,,,,,,,,,,,,,,,,,,,,,,,,,,,,,,,001,69,2020_Feb_04_1457,spring_faces,3.1.5,60.048433024454354,
condition files/Stage0a.xlsx,0a,beta,none,g,"['h', 'g']","['Chess', 'Go']","[0, 0.5]","[0, 0]",1,0,0,5,5,5,0,1,1,1,,,,,,,,,,,,,,,,,,,,,,,,,,,,,,,,,,,,,,,,,,,,,,,,,,,,,,,,,,,,,,,158.9612505469995,None,158.9612505469995,None,158.9612505469995,None,g,1,0.06606267200186267,160.4946054889988,None,160.4946054889988,None,160.4946054889988,None,160.61120641700109,None,160.61120641700109,None,160.61120641700109,None,160.61120641700109,None,,,,,,,,,,,,,,,,,,,,,,,,,,,,,,,,,,,,,,,,,,,,001,69,2020_Feb_04_1457,spring_faces,3.1.5,60.048433024454354,
condition files/Stage0b_1.xlsx,0b,alpha,none,h,"['h', 'g']","['Chess', 'Go']","[-0.15, 0.5]","[0.15, 0.5]",1,0,0,6,6,6,0,0,0,0,,,,,,,,,,,,,,,,,,,,,,,,,,,,,,,,,,,,,,,,,,,,,,,,,,,,,,,,,,,,,,,162.59489914300138,None,162.59489914300138,None,162.59489914300138,None,g,0,0.8006449179993069,164.12802608900165,None,164.12802608900165,None,164.12802608900165,None,164.99434142999962,None,164.99434142999962,None,164.99434142999962,None,164.99434142999962,None,,,,,,,,,,,,,,,,,,,,,,,,,,,,,,,,,,,,,,,,,,,,001,69,2020_Feb_04_1457,spring_faces,3.1.5,60.048433024454354,
condition files/Stage0b_1.xlsx,0b,none,beta,g,"['h', 'g']","['Chess', 'Go']","[-0.15, 0.5]","[0.15, 0.5]",0,1,0,6,6,6,0,1,1,1,,,,,,,,,,,,,,,,,,,,,,,,,,,,,,,,,,,,,,,,,,,,,,,,,,,,,,,,,,,,,,,166.96114185899933,None,166.96114185899933,None,166.96114185899933,None,g,1,0.7372082479996607,168.51146365900058,None,168.51146365900058,None,168.51146365900058,None,169.3170396429996,None,169.3170396429996,None,169.3170396429996,None,169.3170396429996,None,,,,,,,,,,,,,,,,,,,,,,,,,,,,,,,,,,,,,,,,,,,,001,69,2020_Feb_04_1457,spring_faces,3.1.5,60.048433024454354,
condition files/Stage0b_2.xlsx,0b,beta,none,g,"['h', 'g']","['Chess', 'Go']","[-0.15, 0.5]","[0.15, 0.5]",1,0,0,7,7,7,0,0,0,1,,,,,,,,,,,,,,,,,,,,,,,,,,,,,,,,,,,,,,,,,,,,,,,,,,,,,,,,,,,,,,,171.2949888309995,None,171.2949888309995,None,171.2949888309995,None,g,1,1.3295734940002149,172.83111411500067,None,172.83111411500067,None,172.83111411500067,None,174.2112973559997,None,174.2112973559997,None,174.2112973559997,None,174.2112973559997,None,,,,,,,,,,,,,,,,,,,,,,,,,,,,,,,,,,,,,,,,,,,,001,69,2020_Feb_04_1457,spring_faces,3.1.5,60.048433024454354,
condition files/Stage0b_2.xlsx,0b,none,alpha,h,"['h', 'g']","['Chess', 'Go']","[-0.15, 0.5]","[0.15, 0.5]",0,1,0,7,7,7,0,1,1,0,,,,,,,,,,,,,,,,,,,,,,,,,,,,,,,,,,,,,,,,,,,,,,,,,,,,,,,,,,,,,,,176.1770723590016,None,176.1770723590016,None,176.1770723590016,None,g,0,3.532789786997455,177.71588486700057,None,177.71588486700057,None,177.71588486700057,None,181.31087064199892,None,181.31087064199892,None,181.31087064199892,None,181.31087064199892,None,,,,,,,,,,,,,,,,,,,,,,,,,,,,,,,,,,,,,,,,,,,,001,69,2020_Feb_04_1457,spring_faces,3.1.5,60.048433024454354,
condition files/Stage0b_1.xlsx,0b,alpha,none,h,"['h', 'g']","['Chess', 'Go']","[-0.15, 0.5]","[0.15, 0.5]",1,0,0,8,8,8,0,0,0,0,,,,,,,,,,,,,,,,,,,,,,,,,,,,,,,,,,,,,,,,,,,,,,,,,,,,,,,,,,,,,,,183.2948818980003,None,183.2948818980003,None,183.2948818980003,None,h,1,0.43187213399869506,184.83281207899927,None,184.83281207899927,None,184.83281207899927,None,185.32802178899874,None,185.32802178899874,None,185.32802178899874,None,185.32802178899874,None,,,,,,,,,,,,,,,,,,,,,,,,,,,,,,,,,,,,,,,,,,,,001,69,2020_Feb_04_1457,spring_faces,3.1.5,60.048433024454354,
condition files/Stage0b_1.xlsx,0b,none,beta,g,"['h', 'g']","['Chess', 'Go']","[-0.15, 0.5]","[0.15, 0.5]",0,1,0,8,8,8,0,1,1,1,,,,,,,,,,,,,,,,,,,,,,,,,,,,,,,,,,,,,,,,,,,,,,,,,,,,,,,,,,,,,,,187.29452573900198,None,187.29452573900198,None,187.29452573900198,None,g,1,0.4006219709990546,188.83205968300172,None,188.83205968300172,None,188.83205968300172,None,189.29688206599894,None,189.29688206599894,None,189.29688206599894,None,189.29688206599894,None,,,,,,,,,,,,,,,,,,,,,,,,,,,,,,,,,,,,,,,,,,,,001,69,2020_Feb_04_1457,spring_faces,3.1.5,60.048433024454354,
condition files/Stage0b_2.xlsx,0b,beta,none,g,"['h', 'g']","['Chess', 'Go']","[-0.15, 0.5]","[0.15, 0.5]",1,0,0,9,9,9,0,0,0,1,,,,,,,,,,,,,,,,,,,,,,,,,,,,,,,,,,,,,,,,,,,,,,,,,,,,,,,,,,,,,,,191.27825986400057,None,191.27825986400057,None,191.27825986400057,None,g,1,3.0415535110005294,192.81515691300228,None,192.81515691300228,None,192.81515691300228,None,195.91137623599934,None,195.91137623599934,None,195.91137623599934,None,195.91137623599934,None,,,,,,,,,,,,,,,,,,,,,,,,,,,,,,,,,,,,,,,,,,,,001,69,2020_Feb_04_1457,spring_faces,3.1.5,60.048433024454354,
condition files/Stage0b_2.xlsx,0b,none,alpha,h,"['h', 'g']","['Chess', 'Go']","[-0.15, 0.5]","[0.15, 0.5]",0,1,0,9,9,9,0,1,1,0,,,,,,,,,,,,,,,,,,,,,,,,,,,,,,,,,,,,,,,,,,,,,,,,,,,,,,,,,,,,,,,197.8776594310002,None,197.8776594310002,None,197.8776594310002,None,h,1,0.6849660440020671,199.411727480001,None,199.411727480001,None,199.411727480001,None,200.1633250490013,None,200.1633250490013,None,200.1633250490013,None,200.1633250490013,None,,,,,,,,,,,,,,,,,,,,,,,,,,,,,,,,,,,,,,,,,,,,001,69,2020_Feb_04_1457,spring_faces,3.1.5,60.048433024454354,
condition files/Stage0b_1.xlsx,0b,alpha,none,h,"['h', 'g']","['Chess', 'Go']","[-0.15, 0.5]","[0.15, 0.5]",1,0,0,10,10,10,0,0,0,0,,,,,,,,,,,,,,,,,,,,,,,,,,,,,,,,,,,,,,,,,,,,,,,,,,,,,,,,,,,,,,,202.14477055300085,None,202.14477055300085,None,202.14477055300085,None,g,0,0.3655918969998311,203.68311546599944,None,203.68311546599944,None,203.68311546599944,None,204.1112865460018,None,204.1112865460018,None,204.1112865460018,None,204.1112865460018,None,,,,,,,,,,,,,,,,,,,,,,,,,,,,,,,,,,,,,,,,,,,,001,69,2020_Feb_04_1457,spring_faces,3.1.5,60.048433024454354,
condition files/Stage0b_1.xlsx,0b,none,beta,g,"['h', 'g']","['Chess', 'Go']","[-0.15, 0.5]","[0.15, 0.5]",0,1,0,10,10,10,0,1,1,1,,,,,,,,,,,,,,,,,,,,,,,,,,,,,,,,,,,,,,,,,,,,,,,,,,,,,,,,,,,,,,,206.07764436300204,None,206.07764436300204,None,206.07764436300204,None,h,0,0.5128424009999435,207.61579962199903,None,207.61579962199903,None,207.61579962199903,None,208.19432024500202,None,208.19432024500202,None,208.19432024500202,None,208.19432024500202,None,,,,,,,,,,,,,,,,,,,,,,,,,,,,,,,,,,,,,,,,,,,,001,69,2020_Feb_04_1457,spring_faces,3.1.5,60.048433024454354,
condition files/Stage0b_2.xlsx,0b,none,alpha,h,"['h', 'g']","['Chess', 'Go']","[-0.15, 0.5]","[0.15, 0.5]",0,1,0,11,11,11,0,0,0,0,,,,,,,,,,,,,,,,,,,,,,,,,,,,,,,,,,,,,,,,,,,,,,,,,,,,,,,,,,,,,,,210.17810335299873,None,210.17810335299873,None,210.17810335299873,None,h,1,0.9295700490001764,211.71111900100004,None,211.71111900100004,None,211.71111900100004,None,212.69444548200045,None,212.69444548200045,None,212.69444548200045,None,212.69444548200045,None,,,,,,,,,,,,,,,,,,,,,,,,,,,,,,,,,,,,,,,,,,,,001,69,2020_Feb_04_1457,spring_faces,3.1.5,60.048433024454354,
condition files/Stage0b_2.xlsx,0b,beta,none,g,"['h', 'g']","['Chess', 'Go']","[-0.15, 0.5]","[0.15, 0.5]",1,0,0,11,11,11,0,1,1,1,,,,,,,,,,,,,,,,,,,,,,,,,,,,,,,,,,,,,,,,,,,,,,,,,,,,,,,,,,,,,,,214.6612214859997,None,214.6612214859997,None,214.6612214859997,None,g,1,0.7451962900013314,216.19949568200173,None,216.19949568200173,None,216.19949568200173,None,216.99938841300172,None,216.99938841300172,None,216.99938841300172,None,216.99938841300172,None,,,,,,,,,,,,,,,,,,,,,,,,,,,,,,,,,,,,,,,,,,,,001,69,2020_Feb_04_1457,spring_faces,3.1.5,60.048433024454354,
condition files/Stage0c_1.xlsx,0c,beta,theta,g,"['h', 'g']","['Chess', 'Go']","[-0.15, 0.5]","[0.15, 0.5]",1,1,0,12,12,12,0,0,0,2,,,,,,,,,,,,,,,,,,,,,,,,,,,,,,,,,,,,,,,,,,,,,,,,,,,,,,,,,,,,,,,218.97808809900016,None,218.97808809900016,None,218.97808809900016,None,g,1,2.7858964950028167,220.5107950999991,None,220.5107950999991,None,220.5107950999991,None,223.361424687002,None,223.361424687002,None,223.361424687002,None,223.361424687002,None,,,,,,,,,,,,,,,,,,,,,,,,,,,,,,,,,,,,,,,,,,,,001,69,2020_Feb_04_1457,spring_faces,3.1.5,60.048433024454354,
condition files/Stage0c_1.xlsx,0c,alpha,phi,h,"['h', 'g']","['Chess', 'Go']","[-0.15, 0.5]","[0.15, 0.5]",1,1,0,12,12,12,0,1,1,1,,,,,,,,,,,,,,,,,,,,,,,,,,,,,,,,,,,,,,,,,,,,,,,,,,,,,,,,,,,,,,,225.3279468340006,None,225.3279468340006,None,225.3279468340006,None,h,1,3.428049532998557,226.86069148000024,None,226.86069148000024,None,226.86069148000024,None,230.34457866999946,None,230.34457866999946,None,230.34457866999946,None,230.34457866999946,None,,,,,,,,,,,,,,,,,,,,,,,,,,,,,,,,,,,,,,,,,,,,001,69,2020_Feb_04_1457,spring_faces,3.1.5,60.048433024454354,
condition files/Stage0c_1.xlsx,0c,theta,alpha,h,"['h', 'g']","['Chess', 'Go']","[-0.15, 0.5]","[0.15, 0.5]",1,1,0,12,12,12,0,2,2,0,,,,,,,,,,,,,,,,,,,,,,,,,,,,,,,,,,,,,,,,,,,,,,,,,,,,,,,,,,,,,,,232.31058629200197,None,232.31058629200197,None,232.31058629200197,None,h,1,2.988284545001079,233.8444014500019,None,233.8444014500019,None,233.8444014500019,None,236.88078526900063,None,236.88078526900063,None,236.88078526900063,None,236.88078526900063,None,,,,,,,,,,,,,,,,,,,,,,,,,,,,,,,,,,,,,,,,,,,,001,69,2020_Feb_04_1457,spring_faces,3.1.5,60.048433024454354,
condition files/Stage0c_1.xlsx,0c,phi,beta,g,"['h', 'g']","['Chess', 'Go']","[-0.15, 0.5]","[0.15, 0.5]",1,1,0,12,12,12,0,3,3,3,,,,,,,,,,,,,,,,,,,,,,,,,,,,,,,,,,,,,,,,,,,,,,,,,,,,,,,,,,,,,,,238.86119241300185,None,238.86119241300185,None,238.86119241300185,None,g,1,0.9664406100018823,240.39422219799962,None,240.39422219799962,None,240.39422219799962,None,241.428473295,None,241.428473295,None,241.428473295,None,241.428473295,None,,,,,,,,,,,,,,,,,,,,,,,,,,,,,,,,,,,,,,,,,,,,001,69,2020_Feb_04_1457,spring_faces,3.1.5,60.048433024454354,
condition files/Stage0c_2.xlsx,0c,beta,phi,g,"['h', 'g']","['Chess', 'Go']","[-0.15, 0.5]","[0.15, 0.5]",1,1,0,13,13,13,0,0,0,3,,,,,,,,,,,,,,,,,,,,,,,,,,,,,,,,,,,,,,,,,,,,,,,,,,,,,,,,,,,,,,,243.394799968999,None,243.394799968999,None,243.394799968999,None,g,1,3.184877306000999,244.927814562001,None,244.927814562001,None,244.927814562001,None,248.16391916499924,None,248.16391916499924,None,248.16391916499924,None,248.16391916499924,None,,,,,,,,,,,,,,,,,,,,,,,,,,,,,,,,,,,,,,,,,,,,001,69,2020_Feb_04_1457,spring_faces,3.1.5,60.048433024454354,
condition files/Stage0c_2.xlsx,0c,alpha,theta,h,"['h', 'g']","['Chess', 'Go']","[-0.15, 0.5]","[0.15, 0.5]",1,1,0,13,13,13,0,1,1,0,,,,,,,,,,,,,,,,,,,,,,,,,,,,,,,,,,,,,,,,,,,,,,,,,,,,,,,,,,,,,,,250.14452354700188,None,250.14452354700188,None,250.14452354700188,None,h,1,1.1224955249999766,251.67819090600096,None,251.67819090600096,None,251.67819090600096,None,252.8611270620022,None,252.8611270620022,None,252.8611270620022,None,252.8611270620022,None,,,,,,,,,,,,,,,,,,,,,,,,,,,,,,,,,,,,,,,,,,,,001,69,2020_Feb_04_1457,spring_faces,3.1.5,60.048433024454354,
condition files/Stage0c_2.xlsx,0c,phi,alpha,h,"['h', 'g']","['Chess', 'Go']","[-0.15, 0.5]","[0.15, 0.5]",1,1,0,13,13,13,0,2,2,1,,,,,,,,,,,,,,,,,,,,,,,,,,,,,,,,,,,,,,,,,,,,,,,,,,,,,,,,,,,,,,,254.8276839809987,None,254.8276839809987,None,254.8276839809987,None,h,1,2.1672317789998488,256.36141800300175,None,256.36141800300175,None,256.36141800300175,None,258.5781326180004,None,258.5781326180004,None,258.5781326180004,None,258.5781326180004,None,,,,,,,,,,,,,,,,,,,,,,,,,,,,,,,,,,,,,,,,,,,,001,69,2020_Feb_04_1457,spring_faces,3.1.5,60.048433024454354,
condition files/Stage0c_2.xlsx,0c,theta,beta,g,"['h', 'g']","['Chess', 'Go']","[-0.15, 0.5]","[0.15, 0.5]",1,1,0,13,13,13,0,3,3,2,,,,,,,,,,,,,,,,,,,,,,,,,,,,,,,,,,,,,,,,,,,,,,,,,,,,,,,,,,,,,,,260.5612203560013,None,260.5612203560013,None,260.5612203560013,None,g,1,0.577990031997615,262.0946852400011,None,262.0946852400011,None,262.0946852400011,None,262.728371969999,None,262.728371969999,None,262.728371969999,None,262.728371969999,None,,,,,,,,,,,,,,,,,,,,,,,,,,,,,,,,,,,,,,,,,,,,001,69,2020_Feb_04_1457,spring_faces,3.1.5,60.048433024454354,
condition files/Stage0c_1.xlsx,0c,phi,beta,g,"['h', 'g']","['Chess', 'Go']","[-0.15, 0.5]","[0.15, 0.5]",1,1,0,14,14,14,0,0,0,3,,,,,,,,,,,,,,,,,,,,,,,,,,,,,,,,,,,,,,,,,,,,,,,,,,,,,,,,,,,,,,,264.7108591719989,None,264.7108591719989,None,264.7108591719989,None,g,1,2.1878148980031256,266.2448834909992,None,266.2448834909992,None,266.2448834909992,None,268.47766419300024,None,268.47766419300024,None,268.47766419300024,None,268.47766419300024,None,,,,,,,,,,,,,,,,,,,,,,,,,,,,,,,,,,,,,,,,,,,,001,69,2020_Feb_04_1457,spring_faces,3.1.5,60.048433024454354,
condition files/Stage0c_1.xlsx,0c,alpha,phi,h,"['h', 'g']","['Chess', 'Go']","[-0.15, 0.5]","[0.15, 0.5]",1,1,0,14,14,14,0,1,1,1,,,,,,,,,,,,,,,,,,,,,,,,,,,,,,,,,,,,,,,,,,,,,,,,,,,,,,,,,,,,,,,270.4612465179998,None,270.4612465179998,None,270.4612465179998,None,h,1,2.389774215000216,271.9948928529993,None,271.9948928529993,None,271.9948928529993,None,274.44473414499953,None,274.44473414499953,None,274.44473414499953,None,274.44473414499953,None,,,,,,,,,,,,,,,,,,,,,,,,,,,,,,,,,,,,,,,,,,,,001,69,2020_Feb_04_1457,spring_faces,3.1.5,60.048433024454354,
condition files/Stage0c_1.xlsx,0c,beta,theta,g,"['h', 'g']","['Chess', 'Go']","[-0.15, 0.5]","[0.15, 0.5]",1,1,0,14,14,14,0,2,2,2,,,,,,,,,,,,,,,,,,,,,,,,,,,,,,,,,,,,,,,,,,,,,,,,,,,,,,,,,,,,,,,276.4115874039999,None,276.4115874039999,None,276.4115874039999,None,g,1,1.160051167000347,277.9446847580002,None,277.9446847580002,None,277.9446847580002,None,279.16127330699965,None,279.16127330699965,None,279.16127330699965,None,279.16127330699965,None,,,,,,,,,,,,,,,,,,,,,,,,,,,,,,,,,,,,,,,,,,,,001,69,2020_Feb_04_1457,spring_faces,3.1.5,60.048433024454354,
condition files/Stage0c_1.xlsx,0c,theta,alpha,h,"['h', 'g']","['Chess', 'Go']","[-0.15, 0.5]","[0.15, 0.5]",1,1,0,14,14,14,0,3,3,0,,,,,,,,,,,,,,,,,,,,,,,,,,,,,,,,,,,,,,,,,,,,,,,,,,,,,,,,,,,,,,,281.1278567199988,None,281.1278567199988,None,281.1278567199988,None,h,1,0.6992211429969757,282.6614549240003,None,282.6614549240003,None,282.6614549240003,None,283.4114663569999,None,283.4114663569999,None,283.4114663569999,None,283.4114663569999,None,,,,,,,,,,,,,,,,,,,,,,,,,,,,,,,,,,,,,,,,,,,,001,69,2020_Feb_04_1457,spring_faces,3.1.5,60.048433024454354,
condition files/Stage0c_2.xlsx,0c,alpha,theta,h,"['h', 'g']","['Chess', 'Go']","[-0.15, 0.5]","[0.15, 0.5]",1,1,0,15,15,15,0,0,0,0,,,,,,,,,,,,,,,,,,,,,,,,,,,,,,,,,,,,,,,,,,,,,,,,,,,,,,,,,,,,,,,285.3949668960013,None,285.3949668960013,None,285.3949668960013,None,g,0,0.9933007619983982,286.9274729489989,None,286.9274729489989,None,286.9274729489989,None,287.96235966699896,None,287.96235966699896,None,287.96235966699896,None,287.96235966699896,None,,,,,,,,,,,,,,,,,,,,,,,,,,,,,,,,,,,,,,,,,,,,001,69,2020_Feb_04_1457,spring_faces,3.1.5,60.048433024454354,
condition files/Stage0c_2.xlsx,0c,theta,beta,g,"['h', 'g']","['Chess', 'Go']","[-0.15, 0.5]","[0.15, 0.5]",1,1,0,15,15,15,0,1,1,2,,,,,,,,,,,,,,,,,,,,,,,,,,,,,,,,,,,,,,,,,,,,,,,,,,,,,,,,,,,,,,,289.944619676,None,289.944619676,None,289.944619676,None,g,1,2.1065483640013554,291.4781323009993,None,291.4781323009993,None,291.4781323009993,None,293.6447680370002,None,293.6447680370002,None,293.6447680370002,None,293.6447680370002,None,,,,,,,,,,,,,,,,,,,,,,,,,,,,,,,,,,,,,,,,,,,,001,69,2020_Feb_04_1457,spring_faces,3.1.5,60.048433024454354,
condition files/Stage0c_2.xlsx,0c,beta,phi,g,"['h', 'g']","['Chess', 'Go']","[-0.15, 0.5]","[0.15, 0.5]",1,1,0,15,15,15,0,2,2,3,,,,,,,,,,,,,,,,,,,,,,,,,,,,,,,,,,,,,,,,,,,,,,,,,,,,,,,,,,,,,,,295.61125645500215,None,295.61125645500215,None,295.61125645500215,None,h,0,0.7919992429997365,297.1447498480011,None,297.1447498480011,None,297.1447498480011,None,297.97900993000076,None,297.97900993000076,None,297.97900993000076,None,297.97900993000076,None,,,,,,,,,,,,,,,,,,,,,,,,,,,,,,,,,,,,,,,,,,,,001,69,2020_Feb_04_1457,spring_faces,3.1.5,60.048433024454354,
condition files/Stage0c_2.xlsx,0c,phi,alpha,h,"['h', 'g']","['Chess', 'Go']","[-0.15, 0.5]","[0.15, 0.5]",1,1,0,15,15,15,0,3,3,1,,,,,,,,,,,,,,,,,,,,,,,,,,,,,,,,,,,,,,,,,,,,,,,,,,,,,,,,,,,,,,,299.96082143999956,None,299.96082143999956,None,299.96082143999956,None,h,1,1.3864207700025872,301.4942717890008,None,301.4942717890008,None,301.4942717890008,None,302.9448318370014,None,302.9448318370014,None,302.9448318370014,None,302.9448318370014,None,,,,,,,,,,,,,,,,,,,,,,,,,,,,,,,,,,,,,,,,,,,,001,69,2020_Feb_04_1457,spring_faces,3.1.5,60.048433024454354,
condition files/Stage0c_1.xlsx,0c,alpha,phi,h,"['h', 'g']","['Chess', 'Go']","[-0.15, 0.5]","[0.15, 0.5]",1,1,0,16,16,16,0,0,0,1,,,,,,,,,,,,,,,,,,,,,,,,,,,,,,,,,,,,,,,,,,,,,,,,,,,,,,,,,,,,,,,304.9279579819995,None,304.9279579819995,None,304.9279579819995,None,g,0,1.1870287810015725,306.4616714040021,None,306.4616714040021,None,306.4616714040021,None,307.69438492500194,None,307.69438492500194,None,307.69438492500194,None,307.69438492500194,None,,,,,,,,,,,,,,,,,,,,,,,,,,,,,,,,,,,,,,,,,,,,001,69,2020_Feb_04_1457,spring_faces,3.1.5,60.048433024454354,
condition files/Stage0c_1.xlsx,0c,beta,theta,g,"['h', 'g']","['Chess', 'Go']","[-0.15, 0.5]","[0.15, 0.5]",1,1,0,16,16,16,0,1,1,2,,,,,,,,,,,,,,,,,,,,,,,,,,,,,,,,,,,,,,,,,,,,,,,,,,,,,,,,,,,,,,,309.6776183210022,None,309.6776183210022,None,309.6776183210022,None,h,0,0.6291223269981856,311.211579873001,None,311.211579873001,None,311.211579873001,None,311.89454367600047,None,311.89454367600047,None,311.89454367600047,None,311.89454367600047,None,,,,,,,,,,,,,,,,,,,,,,,,,,,,,,,,,,,,,,,,,,,,001,69,2020_Feb_04_1457,spring_faces,3.1.5,60.048433024454354,
condition files/Stage0c_1.xlsx,0c,phi,beta,g,"['h', 'g']","['Chess', 'Go']","[-0.15, 0.5]","[0.15, 0.5]",1,1,0,16,16,16,0,2,2,3,,,,,,,,,,,,,,,,,,,,,,,,,,,,,,,,,,,,,,,,,,,,,,,,,,,,,,,,,,,,,,,313.86120284500066,None,313.86120284500066,None,313.86120284500066,None,h,0,0.8454695180007548,315.39521065200097,None,315.39521065200097,None,315.39521065200097,None,316.2783509719993,None,316.2783509719993,None,316.2783509719993,None,316.2783509719993,None,,,,,,,,,,,,,,,,,,,,,,,,,,,,,,,,,,,,,,,,,,,,001,69,2020_Feb_04_1457,spring_faces,3.1.5,60.048433024454354,
condition files/Stage0c_1.xlsx,0c,theta,alpha,h,"['h', 'g']","['Chess', 'Go']","[-0.15, 0.5]","[0.15, 0.5]",1,1,0,16,16,16,0,3,3,0,,,,,,,,,,,,,,,,,,,,,,,,,,,,,,,,,,,,,,,,,,,,,,,,,,,,,,,,,,,,,,,318.2613396000015,None,318.2613396000015,None,318.2613396000015,None,h,1,1.2300416289981513,319.7948039690018,None,319.7948039690018,None,319.7948039690018,None,321.0779094319987,None,321.0779094319987,None,321.0779094319987,None,321.0779094319987,None,,,,,,,,,,,,,,,,,,,,,,,,,,,,,,,,,,,,,,,,,,,,001,69,2020_Feb_04_1457,spring_faces,3.1.5,60.048433024454354,
condition files/Stage0c_2.xlsx,0c,beta,phi,g,"['h', 'g']","['Chess', 'Go']","[-0.15, 0.5]","[0.15, 0.5]",1,1,0,17,17,17,0,0,0,3,,,,,,,,,,,,,,,,,,,,,,,,,,,,,,,,,,,,,,,,,,,,,,,,,,,,,,,,,,,,,,,323.06143379900095,None,323.06143379900095,None,323.06143379900095,None,h,0,-0.0026299550008843653,None,None,None,None,None,None,324.612074951001,None,324.612074951001,None,324.612074951001,None,324.612074951001,None,,,,,,,,,,,,,,,,,,,,,,,,,,,,,,,,,,,,,,,,,,,,001,69,2020_Feb_04_1457,spring_faces,3.1.5,60.048433024454354,
condition files/Stage0c_2.xlsx,0c,phi,alpha,h,"['h', 'g']","['Chess', 'Go']","[-0.15, 0.5]","[0.15, 0.5]",1,1,0,17,17,17,0,1,1,1,,,,,,,,,,,,,,,,,,,,,,,,,,,,,,,,,,,,,,,,,,,,,,,,,,,,,,,,,,,,,,,326.5942189130001,None,326.5942189130001,None,326.5942189130001,None,h,1,0.8327814809999836,328.1278955779999,None,328.1278955779999,None,328.1278955779999,None,329.01115122800184,None,329.01115122800184,None,329.01115122800184,None,329.01115122800184,None,,,,,,,,,,,,,,,,,,,,,,,,,,,,,,,,,,,,,,,,,,,,001,69,2020_Feb_04_1457,spring_faces,3.1.5,60.048433024454354,
condition files/Stage0c_2.xlsx,0c,theta,beta,g,"['h', 'g']","['Chess', 'Go']","[-0.15, 0.5]","[0.15, 0.5]",1,1,0,17,17,17,0,2,2,2,,,,,,,,,,,,,,,,,,,,,,,,,,,,,,,,,,,,,,,,,,,,,,,,,,,,,,,,,,,,,,,330.97803753599874,None,330.97803753599874,None,330.97803753599874,None,g,1,2.4490825239990954,332.51159170400206,None,332.51159170400206,None,332.51159170400206,None,335.0114291989994,None,335.0114291989994,None,335.0114291989994,None,335.0114291989994,None,,,,,,,,,,,,,,,,,,,,,,,,,,,,,,,,,,,,,,,,,,,,001,69,2020_Feb_04_1457,spring_faces,3.1.5,60.048433024454354,
condition files/Stage0c_2.xlsx,0c,alpha,theta,h,"['h', 'g']","['Chess', 'Go']","[-0.15, 0.5]","[0.15, 0.5]",1,1,0,17,17,17,0,3,3,0,,,,,,,,,,,,,,,,,,,,,,,,,,,,,,,,,,,,,,,,,,,,,,,,,,,,,,,,,,,,,,,336.9776033550006,None,336.9776033550006,None,336.9776033550006,None,h,1,1.0732875979992968,338.51138631700087,None,338.51138631700087,None,338.51138631700087,None,339.6444038119989,None,339.6444038119989,None,339.6444038119989,None,339.6444038119989,None,,,,,,,,,,,,,,,,,,,,,,,,,,,,,,,,,,,,,,,,,,,,001,69,2020_Feb_04_1457,spring_faces,3.1.5,60.048433024454354,
,,,,,,,,,,,,,,,,,,,,,,,,,,,,,,,,,,,,,,,,,,,,,,,,,,,,,,,,,,,,,,,,,,,,,,,,,,,,,,,,,,,,,,,,,,,,,,,,,,,,,,,,341.6283289669991,None,space,7.484723254998244,346.62795346599887,None,,,,,,,,,,,,,,,,,,,,,,,,,,,,,,,,,,,,,,001,69,2020_Feb_04_1457,spring_faces,3.1.5,60.048433024454354,
condition files/Stage1_1.xlsx,,B3,T3,c,"['c', 'm']","['Clue', 'Monopoly']","[-0.15, 0.5]","[0.15, 0.5]",1,1,,,,,,,,,0,0,0,0,0,0,0,4,,,,,,,,,,,,,,,,,,,,,,,,,,,,,,,,,,,,,,,,,,,,,,,,,,,,,,,354.1774602910009,None,354.1774602910009,None,354.1774602910009,None,c,1,2.593302330998995,355.7114452829992,None,355.7114452829992,None,355.7114452829992,None,358.37930282399975,None,358.37930282399975,None,358.37930282399975,None,358.37930282399975,None,,,,,,,346.62795346599887,None,,,,,,,,,,,,,,,,,,,,,,,,,,,,,,,,,,,,001,69,2020_Feb_04_1457,spring_faces,3.1.5,60.048433024454354,
condition files/Stage1_1.xlsx,,B1,T2,c,"['c', 'm']","['Clue', 'Monopoly']","[-0.15, 0.5]","[0.15, 0.5]",1,1,,,,,,,,,0,0,0,0,0,1,1,1,,,,,,,,,,,,,,,,,,,,,,,,,,,,,,,,,,,,,,,,,,,,,,,,,,,,,,,360.32781707899994,None,360.32781707899994,None,360.32781707899994,None,m,0,0.8264016059983987,361.86234986400086,None,361.86234986400086,None,361.86234986400086,None,362.74473572900024,None,362.74473572900024,None,362.74473572900024,None,362.74473572900024,None,,,,,,,,,,,,,,,,,,,,,,,,,,,,,,,,,,,,,,,,,,,,001,69,2020_Feb_04_1457,spring_faces,3.1.5,60.048433024454354,
condition files/Stage1_1.xlsx,,T4,B3,m,"['c', 'm']","['Clue', 'Monopoly']","[-0.15, 0.5]","[0.15, 0.5]",1,1,,,,,,,,,0,0,0,0,0,2,2,6,,,,,,,,,,,,,,,,,,,,,,,,,,,,,,,,,,,,,,,,,,,,,,,,,,,,,,,364.71129567200114,None,364.71129567200114,None,364.71129567200114,None,c,0,2.203029094998783,366.26164286399944,None,366.26164286399944,None,366.26164286399944,None,368.54481532200225,None,368.54481532200225,None,368.54481532200225,None,368.54481532200225,None,,,,,,,,,,,,,,,,,,,,,,,,,,,,,,,,,,,,,,,,,,,,001,69,2020_Feb_04_1457,spring_faces,3.1.5,60.048433024454354,
condition files/Stage1_1.xlsx,,T2,B2,m,"['c', 'm']","['Clue', 'Monopoly']","[-0.15, 0.5]","[0.15, 0.5]",1,1,,,,,,,,,0,0,0,0,0,3,3,3,,,,,,,,,,,,,,,,,,,,,,,,,,,,,,,,,,,,,,,,,,,,,,,,,,,,,,,370.494294979002,None,370.494294979002,None,370.494294979002,None,m,1,1.4281158720004896,372.02859589199943,None,372.02859589199943,None,372.02859589199943,None,373.5114431809998,None,373.5114431809998,None,373.5114431809998,None,373.5114431809998,None,,,,,,,,,,,,,,,,,,,,,,,,,,,,,,,,,,,,,,,,,,,,001,69,2020_Feb_04_1457,spring_faces,3.1.5,60.048433024454354,
condition files/Stage1_1.xlsx,,T3,B4,c,"['c', 'm']","['Clue', 'Monopoly']","[-0.15, 0.5]","[0.15, 0.5]",1,1,,,,,,,,,0,0,0,0,0,4,4,5,,,,,,,,,,,,,,,,,,,,,,,,,,,,,,,,,,,,,,,,,,,,,,,,,,,,,,,375.4774438630011,None,375.4774438630011,None,375.4774438630011,None,m,0,1.355887942998379,377.0128872710011,None,377.0128872710011,None,377.0128872710011,None,378.4443482710012,None,378.4443482710012,None,378.4443482710012,None,378.4443482710012,None,,,,,,,,,,,,,,,,,,,,,,,,,,,,,,,,,,,,,,,,,,,,001,69,2020_Feb_04_1457,spring_faces,3.1.5,60.048433024454354,
condition files/Stage1_1.xlsx,,T1,B1,c,"['c', 'm']","['Clue', 'Monopoly']","[-0.15, 0.5]","[0.15, 0.5]",1,1,,,,,,,,,0,0,0,0,0,5,5,0,,,,,,,,,,,,,,,,,,,,,,,,,,,,,,,,,,,,,,,,,,,,,,,,,,,,,,,380.39454128299985,None,380.39454128299985,None,380.39454128299985,None,m,0,1.9606353519993718,381.9281425279987,None,381.9281425279987,None,381.9281425279987,None,383.9441080760007,None,383.9441080760007,None,383.9441080760007,None,383.9441080760007,None,,,,,,,,,,,,,,,,,,,,,,,,,,,,,,,,,,,,,,,,,,,,001,69,2020_Feb_04_1457,spring_faces,3.1.5,60.048433024454354,
condition files/Stage1_1.xlsx,,B2,T1,m,"['c', 'm']","['Clue', 'Monopoly']","[-0.15, 0.5]","[0.15, 0.5]",1,1,,,,,,,,,0,0,0,0,0,6,6,2,,,,,,,,,,,,,,,,,,,,,,,,,,,,,,,,,,,,,,,,,,,,,,,,,,,,,,,385.91123544999937,None,385.91123544999937,None,385.91123544999937,None,c,0,0.6363275410003553,387.4443693430003,None,387.4443693430003,None,387.4443693430003,None,388.14480877499955,None,388.14480877499955,None,388.14480877499955,None,388.14480877499955,None,,,,,,,,,,,,,,,,,,,,,,,,,,,,,,,,,,,,,,,,,,,,001,69,2020_Feb_04_1457,spring_faces,3.1.5,60.048433024454354,
condition files/Stage1_1.xlsx,,B4,T4,m,"['c', 'm']","['Clue', 'Monopoly']","[-0.15, 0.5]","[0.15, 0.5]",1,1,,,,,,,,,0,0,0,0,0,7,7,7,,,,,,,,,,,,,,,,,,,,,,,,,,,,,,,,,,,,,,,,,,,,,,,,,,,,,,,390.111326344002,None,390.111326344002,None,390.111326344002,None,m,1,0.7392830150020018,391.64549936500043,None,391.64549936500043,None,391.64549936500043,None,392.4447939089987,None,392.4447939089987,None,392.4447939089987,None,392.4447939089987,None,,,,,,,,,,,,,,,,,,,,,,,,,,,,,,,,,,,,,,,,,,,,001,69,2020_Feb_04_1457,spring_faces,3.1.5,60.048433024454354,
condition files/Stage1_2.xlsx,,T3,B3,c,"['c', 'm']","['Clue', 'Monopoly']","[-0.15, 0.5]","[0.15, 0.5]",1,1,,,,,,,,,0,1,1,1,0,0,0,4,,,,,,,,,,,,,,,,,,,,,,,,,,,,,,,,,,,,,,,,,,,,,,,,,,,,,,,394.428509854999,None,394.428509854999,None,394.428509854999,None,c,1,2.1031569250008033,395.96156661200075,None,395.96156661200075,None,395.96156661200075,None,398.14461852300155,None,398.14461852300155,None,398.14461852300155,None,398.14461852300155,None,,,,,,,,,,,,,,,,,,,,,,,,,,,,,,,,,,,,,,,,,,,,001,69,2020_Feb_04_1457,spring_faces,3.1.5,60.048433024454354,
condition files/Stage1_2.xlsx,,B2,T2,m,"['c', 'm']","['Clue', 'Monopoly']","[-0.15, 0.5]","[0.15, 0.5]",1,1,,,,,,,,,0,1,1,1,0,1,1,3,,,,,,,,,,,,,,,,,,,,,,,,,,,,,,,,,,,,,,,,,,,,,,,,,,,,,,,400.0943598869999,None,400.0943598869999,None,400.0943598869999,None,c,0,1.6197958770026162,401.6448916010013,None,401.6448916010013,None,401.6448916010013,None,403.3298909590012,None,403.3298909590012,None,403.3298909590012,None,403.3298909590012,None,,,,,,,,,,,,,,,,,,,,,,,,,,,,,,,,,,,,,,,,,,,,001,69,2020_Feb_04_1457,spring_faces,3.1.5,60.048433024454354,
condition files/Stage1_2.xlsx,,B4,T3,c,"['c', 'm']","['Clue', 'Monopoly']","[-0.15, 0.5]","[0.15, 0.5]",1,1,,,,,,,,,0,1,1,1,0,2,2,5,,,,,,,,,,,,,,,,,,,,,,,,,,,,,,,,,,,,,,,,,,,,,,,,,,,,,,,405.29424500800087,None,405.29424500800087,None,405.29424500800087,None,m,0,0.5967509379988769,406.82786482899974,None,406.82786482899974,None,406.82786482899974,None,407.4776601730009,None,407.4776601730009,None,407.4776601730009,None,407.4776601730009,None,,,,,,,,,,,,,,,,,,,,,,,,,,,,,,,,,,,,,,,,,,,,001,69,2020_Feb_04_1457,spring_faces,3.1.5,60.048433024454354,
condition files/Stage1_2.xlsx,,T4,B4,m,"['c', 'm']","['Clue', 'Monopoly']","[-0.15, 0.5]","[0.15, 0.5]",1,1,,,,,,,,,0,1,1,1,0,3,3,7,,,,,,,,,,,,,,,,,,,,,,,,,,,,,,,,,,,,,,,,,,,,,,,,,,,,,,,409.44487818700145,None,409.44487818700145,None,409.44487818700145,None,c,0,1.1664564660022734,410.97825282600024,None,410.97825282600024,None,410.97825282600024,None,412.2111897750001,None,412.2111897750001,None,412.2111897750001,None,412.2111897750001,None,,,,,,,,,,,,,,,,,,,,,,,,,,,,,,,,,,,,,,,,,,,,001,69,2020_Feb_04_1457,spring_faces,3.1.5,60.048433024454354,
condition files/Stage1_2.xlsx,,T2,B1,c,"['c', 'm']","['Clue', 'Monopoly']","[-0.15, 0.5]","[0.15, 0.5]",1,1,,,,,,,,,0,1,1,1,0,4,4,1,,,,,,,,,,,,,,,,,,,,,,,,,,,,,,,,,,,,,,,,,,,,,,,,,,,,,,,414.1613500509993,None,414.1613500509993,None,414.1613500509993,None,m,0,0.6723646310019831,415.6964054300006,None,415.6964054300006,None,415.6964054300006,None,416.4285204529988,None,416.4285204529988,None,416.4285204529988,None,416.4285204529988,None,,,,,,,,,,,,,,,,,,,,,,,,,,,,,,,,,,,,,,,,,,,,001,69,2020_Feb_04_1457,spring_faces,3.1.5,60.048433024454354,
condition files/Stage1_2.xlsx,,B3,T4,m,"['c', 'm']","['Clue', 'Monopoly']","[-0.15, 0.5]","[0.15, 0.5]",1,1,,,,,,,,,0,1,1,1,0,5,5,6,,,,,,,,,,,,,,,,,,,,,,,,,,,,,,,,,,,,,,,,,,,,,,,,,,,,,,,418.3939429540005,None,418.3939429540005,None,418.3939429540005,None,m,1,1.2719434380014718,419.9447258559994,None,419.9447258559994,None,419.9447258559994,None,421.2808132579994,None,421.2808132579994,None,421.2808132579994,None,421.2808132579994,None,,,,,,,,,,,,,,,,,,,,,,,,,,,,,,,,,,,,,,,,,,,,001,69,2020_Feb_04_1457,spring_faces,3.1.5,60.048433024454354,
condition files/Stage1_2.xlsx,,T1,B2,m,"['c', 'm']","['Clue', 'Monopoly']","[-0.15, 0.5]","[0.15, 0.5]",1,1,,,,,,,,,0,1,1,1,0,6,6,2,,,,,,,,,,,,,,,,,,,,,,,,,,,,,,,,,,,,,,,,,,,,,,,,,,,,,,,423.2444517860022,None,423.2444517860022,None,423.2444517860022,None,c,0,4.471109811998758,424.77759130400227,None,424.77759130400227,None,424.77759130400227,None,429.31146029199954,None,429.31146029199954,None,429.31146029199954,None,429.31146029199954,None,,,,,,,,,,,,,,,,,,,,,,,,,,,,,,,,,,,,,,,,,,,,001,69,2020_Feb_04_1457,spring_faces,3.1.5,60.048433024454354,
condition files/Stage1_2.xlsx,,B1,T1,c,"['c', 'm']","['Clue', 'Monopoly']","[-0.15, 0.5]","[0.15, 0.5]",1,1,,,,,,,,,0,1,1,1,0,7,7,0,,,,,,,,,,,,,,,,,,,,,,,,,,,,,,,,,,,,,,,,,,,,,,,,,,,,,,,431.27770754800076,None,431.27770754800076,None,431.27770754800076,None,m,0,1.5402977300000202,432.8124737340004,None,432.8124737340004,None,432.8124737340004,None,434.41315656200095,None,434.41315656200095,None,434.41315656200095,None,434.41315656200095,None,,,,,,,,,,,,,,,,,,,,,,,,,,,,,,,,,,,,,,,,,,,,001,69,2020_Feb_04_1457,spring_faces,3.1.5,60.048433024454354,
condition files/Stage1_1.xlsx,,B3,T3,c,"['c', 'm']","['Clue', 'Monopoly']","[-0.15, 0.5]","[0.15, 0.5]",1,1,,,,,,,,,0,2,2,2,0,0,0,4,,,,,,,,,,,,,,,,,,,,,,,,,,,,,,,,,,,,,,,,,,,,,,,,,,,,,,,436.3945871060023,None,436.3945871060023,None,436.3945871060023,None,c,1,2.167926666999847,437.94471556200006,None,437.94471556200006,None,437.94471556200006,None,440.1779229410022,None,440.1779229410022,None,440.1779229410022,None,440.1779229410022,None,,,,,,,,,,,,,,,,,,,,,,,,,,,,,,,,,,,,,,,,,,,,001,69,2020_Feb_04_1457,spring_faces,3.1.5,60.048433024454354,
condition files/Stage1_1.xlsx,,T1,B1,c,"['c', 'm']","['Clue', 'Monopoly']","[-0.15, 0.5]","[0.15, 0.5]",1,1,,,,,,,,,0,2,2,2,0,1,1,0,,,,,,,,,,,,,,,,,,,,,,,,,,,,,,,,,,,,,,,,,,,,,,,,,,,,,,,442.14455451600224,None,442.14455451600224,None,442.14455451600224,None,c,1,3.137644201000512,443.67900165600076,None,443.67900165600076,None,443.67900165600076,None,446.87764498600154,None,446.87764498600154,None,446.87764498600154,None,446.87764498600154,None,,,,,,,,,,,,,,,,,,,,,,,,,,,,,,,,,,,,,,,,,,,,001,69,2020_Feb_04_1457,spring_faces,3.1.5,60.048433024454354,
condition files/Stage1_1.xlsx,,B1,T2,c,"['c', 'm']","['Clue', 'Monopoly']","[-0.15, 0.5]","[0.15, 0.5]",1,1,,,,,,,,,0,2,2,2,0,2,2,1,,,,,,,,,,,,,,,,,,,,,,,,,,,,,,,,,,,,,,,,,,,,,,,,,,,,,,,448.8443737029993,None,448.8443737029993,None,448.8443737029993,None,m,0,1.2525566629992682,450.38015597900085,None,450.38015597900085,None,450.38015597900085,None,451.6949823239993,None,451.6949823239993,None,451.6949823239993,None,451.6949823239993,None,,,,,,,,,,,,,,,,,,,,,,,,,,,,,,,,,,,,,,,,,,,,001,69,2020_Feb_04_1457,spring_faces,3.1.5,60.048433024454354,
condition files/Stage1_1.xlsx,,T3,B4,c,"['c', 'm']","['Clue', 'Monopoly']","[-0.15, 0.5]","[0.15, 0.5]",1,1,,,,,,,,,0,2,2,2,0,3,3,5,,,,,,,,,,,,,,,,,,,,,,,,,,,,,,,,,,,,,,,,,,,,,,,,,,,,,,,453.6609791949995,None,453.6609791949995,None,453.6609791949995,None,m,0,1.1420997230015928,455.1946695869992,None,455.1946695869992,None,455.1946695869992,None,456.3945229410019,None,456.3945229410019,None,456.3945229410019,None,456.3945229410019,None,,,,,,,,,,,,,,,,,,,,,,,,,,,,,,,,,,,,,,,,,,,,001,69,2020_Feb_04_1457,spring_faces,3.1.5,60.048433024454354,
condition files/Stage1_1.xlsx,,B4,T4,m,"['c', 'm']","['Clue', 'Monopoly']","[-0.15, 0.5]","[0.15, 0.5]",1,1,,,,,,,,,0,2,2,2,0,4,4,7,,,,,,,,,,,,,,,,,,,,,,,,,,,,,,,,,,,,,,,,,,,,,,,,,,,,,,,458.3611651530009,None,458.3611651530009,None,458.3611651530009,None,c,0,0.665841180998541,459.8948541009995,None,459.8948541009995,None,459.8948541009995,None,460.61342981300186,None,460.61342981300186,None,460.61342981300186,None,460.61342981300186,None,,,,,,,,,,,,,,,,,,,,,,,,,,,,,,,,,,,,,,,,,,,,001,69,2020_Feb_04_1457,spring_faces,3.1.5,60.048433024454354,
condition files/Stage1_1.xlsx,,B2,T1,m,"['c', 'm']","['Clue', 'Monopoly']","[-0.15, 0.5]","[0.15, 0.5]",1,1,,,,,,,,,0,2,2,2,0,5,5,2,,,,,,,,,,,,,,,,,,,,,,,,,,,,,,,,,,,,,,,,,,,,,,,,,,,,,,,462.57781771699956,None,462.57781771699956,None,462.57781771699956,None,m,1,1.2498563769986504,464.11084512600064,None,464.11084512600064,None,464.11084512600064,None,465.4114855480002,None,465.4114855480002,None,465.4114855480002,None,465.4114855480002,None,,,,,,,,,,,,,,,,,,,,,,,,,,,,,,,,,,,,,,,,,,,,001,69,2020_Feb_04_1457,spring_faces,3.1.5,60.048433024454354,
condition files/Stage1_1.xlsx,,T2,B2,m,"['c', 'm']","['Clue', 'Monopoly']","[-0.15, 0.5]","[0.15, 0.5]",1,1,,,,,,,,,0,2,2,2,0,6,6,3,,,,,,,,,,,,,,,,,,,,,,,,,,,,,,,,,,,,,,,,,,,,,,,,,,,,,,,467.37752330100193,None,467.37752330100193,None,467.37752330100193,None,m,1,2.2077934249973623,468.91297954900074,None,468.91297954900074,None,468.91297954900074,None,471.17803379900215,None,471.17803379900215,None,471.17803379900215,None,471.17803379900215,None,,,,,,,,,,,,,,,,,,,,,,,,,,,,,,,,,,,,,,,,,,,,001,69,2020_Feb_04_1457,spring_faces,3.1.5,60.048433024454354,
condition files/Stage1_1.xlsx,,T4,B3,m,"['c', 'm']","['Clue', 'Monopoly']","[-0.15, 0.5]","[0.15, 0.5]",1,1,,,,,,,,,0,2,2,2,0,7,7,6,,,,,,,,,,,,,,,,,,,,,,,,,,,,,,,,,,,,,,,,,,,,,,,,,,,,,,,473.1446542170015,None,473.1446542170015,None,473.1446542170015,None,m,1,3.497792226000456,474.6789084250013,None,474.6789084250013,None,474.6789084250013,None,478.2278220590015,None,478.2278220590015,None,478.2278220590015,None,478.2278220590015,None,,,,,,,,,,,,,,,,,,,,,,,,,,,,,,,,,,,,,,,,,,,,001,69,2020_Feb_04_1457,spring_faces,3.1.5,60.048433024454354,
condition files/Stage1_2.xlsx,,B2,T2,m,"['c', 'm']","['Clue', 'Monopoly']","[-0.15, 0.5]","[0.15, 0.5]",1,1,,,,,,,,,0,3,3,3,0,0,0,3,,,,,,,,,,,,,,,,,,,,,,,,,,,,,,,,,,,,,,,,,,,,,,,,,,,,,,,480.2108020279993,None,480.2108020279993,None,480.2108020279993,None,m,1,2.2866245839977637,481.7460855829995,None,481.7460855829995,None,481.7460855829995,None,484.0951682550003,None,484.0951682550003,None,484.0951682550003,None,484.0951682550003,None,,,,,,,,,,,,,,,,,,,,,,,,,,,,,,,,,,,,,,,,,,,,001,69,2020_Feb_04_1457,spring_faces,3.1.5,60.048433024454354,
condition files/Stage1_2.xlsx,,T1,B2,m,"['c', 'm']","['Clue', 'Monopoly']","[-0.15, 0.5]","[0.15, 0.5]",1,1,,,,,,,,,0,3,3,3,0,1,1,2,,,,,,,,,,,,,,,,,,,,,,,,,,,,,,,,,,,,,,,,,,,,,,,,,,,,,,,486.0611832450013,None,486.0611832450013,None,486.0611832450013,None,m,1,4.470441178000328,487.5942704810004,None,487.5942704810004,None,487.5942704810004,None,492.12819918199966,None,492.12819918199966,None,492.12819918199966,None,492.12819918199966,None,,,,,,,,,,,,,,,,,,,,,,,,,,,,,,,,,,,,,,,,,,,,001,69,2020_Feb_04_1457,spring_faces,3.1.5,60.048433024454354,
condition files/Stage1_2.xlsx,,B4,T3,c,"['c', 'm']","['Clue', 'Monopoly']","[-0.15, 0.5]","[0.15, 0.5]",1,1,,,,,,,,,0,3,3,3,0,2,2,5,,,,,,,,,,,,,,,,,,,,,,,,,,,,,,,,,,,,,,,,,,,,,,,,,,,,,,,494.0942044170006,None,494.0942044170006,None,494.0942044170006,None,c,1,2.0359743560002244,495.6287251579997,None,495.6287251579997,None,495.6287251579997,None,497.7278638400021,None,497.7278638400021,None,497.7278638400021,None,497.7278638400021,None,,,,,,,,,,,,,,,,,,,,,,,,,,,,,,,,,,,,,,,,,,,,001,69,2020_Feb_04_1457,spring_faces,3.1.5,60.048433024454354,
condition files/Stage1_2.xlsx,,T3,B3,c,"['c', 'm']","['Clue', 'Monopoly']","[-0.15, 0.5]","[0.15, 0.5]",1,1,,,,,,,,,0,3,3,3,0,3,3,4,,,,,,,,,,,,,,,,,,,,,,,,,,,,,,,,,,,,,,,,,,,,,,,,,,,,,,,499.69442959500157,None,499.69442959500157,None,499.69442959500157,None,c,1,2.2448496260003594,501.22782033399926,None,501.22782033399926,None,501.22782033399926,None,503.52759825999965,None,503.52759825999965,None,503.52759825999965,None,503.52759825999965,None,,,,,,,,,,,,,,,,,,,,,,,,,,,,,,,,,,,,,,,,,,,,001,69,2020_Feb_04_1457,spring_faces,3.1.5,60.048433024454354,
condition files/Stage1_2.xlsx,,B3,T4,m,"['c', 'm']","['Clue', 'Monopoly']","[-0.15, 0.5]","[0.15, 0.5]",1,1,,,,,,,,,0,3,3,3,0,4,4,6,,,,,,,,,,,,,,,,,,,,,,,,,,,,,,,,,,,,,,,,,,,,,,,,,,,,,,,505.49470502799886,None,505.49470502799886,None,505.49470502799886,None,m,1,1.003476939000393,507.02923420300067,None,507.02923420300067,None,507.02923420300067,None,508.0957455489988,None,508.0957455489988,None,508.0957455489988,None,508.0957455489988,None,,,,,,,,,,,,,,,,,,,,,,,,,,,,,,,,,,,,,,,,,,,,001,69,2020_Feb_04_1457,spring_faces,3.1.5,60.048433024454354,
condition files/Stage1_2.xlsx,,B1,T1,c,"['c', 'm']","['Clue', 'Monopoly']","[-0.15, 0.5]","[0.15, 0.5]",1,1,,,,,,,,,0,3,3,3,0,5,5,0,,,,,,,,,,,,,,,,,,,,,,,,,,,,,,,,,,,,,,,,,,,,,,,,,,,,,,,510.0611401899987,None,510.0611401899987,None,510.0611401899987,None,c,1,0.4692549270002928,511.6114276059998,None,511.6114276059998,None,511.6114276059998,None,512.1607635059991,None,512.1607635059991,None,512.1607635059991,None,512.1607635059991,None,,,,,,,,,,,,,,,,,,,,,,,,,,,,,,,,,,,,,,,,,,,,001,69,2020_Feb_04_1457,spring_faces,3.1.5,60.048433024454354,
condition files/Stage1_2.xlsx,,T2,B1,c,"['c', 'm']","['Clue', 'Monopoly']","[-0.15, 0.5]","[0.15, 0.5]",1,1,,,,,,,,,0,3,3,3,0,6,6,1,,,,,,,,,,,,,,,,,,,,,,,,,,,,,,,,,,,,,,,,,,,,,,,,,,,,,,,514.1110148660009,None,514.1110148660009,None,514.1110148660009,None,c,1,0.6269432640001469,515.6457411869997,None,515.6457411869997,None,515.6457411869997,None,516.3281745099994,None,516.3281745099994,None,516.3281745099994,None,516.3281745099994,None,,,,,,,,,,,,,,,,,,,,,,,,,,,,,,,,,,,,,,,,,,,,001,69,2020_Feb_04_1457,spring_faces,3.1.5,60.048433024454354,
condition files/Stage1_2.xlsx,,T4,B4,m,"['c', 'm']","['Clue', 'Monopoly']","[-0.15, 0.5]","[0.15, 0.5]",1,1,,,,,,,,,0,3,3,3,0,7,7,7,,,,,,,,,,,,,,,,,,,,,,,,,,,,,,,,,,,,,,,,,,,,,,,,,,,,,,,518.2945211129991,None,518.2945211129991,None,518.2945211129991,None,m,1,2.4766824549988087,519.8280777610016,None,519.8280777610016,None,519.8280777610016,None,522.3641653560007,None,522.3641653560007,None,522.3641653560007,None,522.3641653560007,None,,,,,,,,,,,,,,,,,,,,,,,,,,,,,,,,,,,,,,,,,,,,001,69,2020_Feb_04_1457,spring_faces,3.1.5,60.048433024454354,
condition files/Stage1_1.xlsx,,B4,T4,m,"['c', 'm']","['Clue', 'Monopoly']","[-0.15, 0.5]","[0.15, 0.5]",1,1,,,,,,,,,0,4,4,4,0,0,0,7,,,,,,,,,,,,,,,,,,,,,,,,,,,,,,,,,,,,,,,,,,,,,,,,,,,,,,,524.3444180580009,None,524.3444180580009,None,524.3444180580009,None,m,1,1.8014380599997821,525.8792735770003,None,525.8792735770003,None,525.8792735770003,None,527.7446729820003,None,527.7446729820003,None,527.7446729820003,None,527.7446729820003,None,,,,,,,,,,,,,,,,,,,,,,,,,,,,,,,,,,,,,,,,,,,,001,69,2020_Feb_04_1457,spring_faces,3.1.5,60.048433024454354,
condition files/Stage1_1.xlsx,,T4,B3,m,"['c', 'm']","['Clue', 'Monopoly']","[-0.15, 0.5]","[0.15, 0.5]",1,1,,,,,,,,,0,4,4,4,0,1,1,6,,,,,,,,,,,,,,,,,,,,,,,,,,,,,,,,,,,,,,,,,,,,,,,,,,,,,,,529.7111170600001,None,529.7111170600001,None,529.7111170600001,None,m,1,2.401950157000101,531.2467585689992,None,531.2467585689992,None,531.2467585689992,None,533.7114045179987,None,533.7114045179987,None,533.7114045179987,None,533.7114045179987,None,,,,,,,,,,,,,,,,,,,,,,,,,,,,,,,,,,,,,,,,,,,,001,69,2020_Feb_04_1457,spring_faces,3.1.5,60.048433024454354,
condition files/Stage1_1.xlsx,,B2,T1,m,"['c', 'm']","['Clue', 'Monopoly']","[-0.15, 0.5]","[0.15, 0.5]",1,1,,,,,,,,,0,4,4,4,0,2,2,2,,,,,,,,,,,,,,,,,,,,,,,,,,,,,,,,,,,,,,,,,,,,,,,,,,,,,,,535.6775642930006,None,535.6775642930006,None,535.6775642930006,None,c,0,1.2510393289994681,537.213659158002,None,537.213659158002,None,537.213659158002,None,538.5276618050011,None,538.5276618050011,None,538.5276618050011,None,538.5276618050011,None,,,,,,,,,,,,,,,,,,,,,,,,,,,,,,,,,,,,,,,,,,,,001,69,2020_Feb_04_1457,spring_faces,3.1.5,60.048433024454354,
condition files/Stage1_1.xlsx,,T3,B4,c,"['c', 'm']","['Clue', 'Monopoly']","[-0.15, 0.5]","[0.15, 0.5]",1,1,,,,,,,,,0,4,4,4,0,3,3,5,,,,,,,,,,,,,,,,,,,,,,,,,,,,,,,,,,,,,,,,,,,,,,,,,,,,,,,540.4945244330011,None,540.4945244330011,None,540.4945244330011,None,m,0,0.612295555001765,542.0283844440019,None,542.0283844440019,None,542.0283844440019,None,542.6954196760016,None,542.6954196760016,None,542.6954196760016,None,542.6954196760016,None,,,,,,,,,,,,,,,,,,,,,,,,,,,,,,,,,,,,,,,,,,,,001,69,2020_Feb_04_1457,spring_faces,3.1.5,60.048433024454354,
condition files/Stage1_1.xlsx,,B1,T2,c,"['c', 'm']","['Clue', 'Monopoly']","[-0.15, 0.5]","[0.15, 0.5]",1,1,,,,,,,,,0,4,4,4,0,4,4,1,,,,,,,,,,,,,,,,,,,,,,,,,,,,,,,,,,,,,,,,,,,,,,,,,,,,,,,544.6612382730018,None,544.6612382730018,None,544.6612382730018,None,c,1,0.8437954689979961,546.1969087959988,None,546.1969087959988,None,546.1969087959988,None,547.0948184689987,None,547.0948184689987,None,547.0948184689987,None,547.0948184689987,None,,,,,,,,,,,,,,,,,,,,,,,,,,,,,,,,,,,,,,,,,,,,001,69,2020_Feb_04_1457,spring_faces,3.1.5,60.048433024454354,
condition files/Stage1_1.xlsx,,T2,B2,m,"['c', 'm']","['Clue', 'Monopoly']","[-0.15, 0.5]","[0.15, 0.5]",1,1,,,,,,,,,0,4,4,4,0,5,5,3,,,,,,,,,,,,,,,,,,,,,,,,,,,,,,,,,,,,,,,,,,,,,,,,,,,,,,,549.0612603890004,None,549.0612603890004,None,549.0612603890004,None,m,1,1.6770525079991785,550.5956173000013,None,550.5956173000013,None,550.5956173000013,None,552.3294815430017,None,552.3294815430017,None,552.3294815430017,None,552.3294815430017,None,,,,,,,,,,,,,,,,,,,,,,,,,,,,,,,,,,,,,,,,,,,,001,69,2020_Feb_04_1457,spring_faces,3.1.5,60.048433024454354,
condition files/Stage1_1.xlsx,,T1,B1,c,"['c', 'm']","['Clue', 'Monopoly']","[-0.15, 0.5]","[0.15, 0.5]",1,1,,,,,,,,,0,4,4,4,0,6,6,0,,,,,,,,,,,,,,,,,,,,,,,,,,,,,,,,,,,,,,,,,,,,,,,,,,,,,,,554.2946013860019,None,554.2946013860019,None,554.2946013860019,None,c,1,1.9639882510018651,555.844695011001,None,555.844695011001,None,555.844695011001,None,557.8626078740017,None,557.8626078740017,None,557.8626078740017,None,557.8626078740017,None,,,,,,,,,,,,,,,,,,,,,,,,,,,,,,,,,,,,,,,,,,,,001,69,2020_Feb_04_1457,spring_faces,3.1.5,60.048433024454354,
condition files/Stage1_1.xlsx,,B3,T3,c,"['c', 'm']","['Clue', 'Monopoly']","[-0.15, 0.5]","[0.15, 0.5]",1,1,,,,,,,,,0,4,4,4,0,7,7,4,,,,,,,,,,,,,,,,,,,,,,,,,,,,,,,,,,,,,,,,,,,,,,,,,,,,,,,559.8278869329988,None,559.8278869329988,None,559.8278869329988,None,m,0,0.7493175739982689,561.3633329889999,None,561.3633329889999,None,561.3633329889999,None,562.1780961450022,None,562.1780961450022,None,562.1780961450022,None,562.1780961450022,None,,,,,,,,,,,,,,,,,,,,,,,,,,,,,,,,,,,,,,,,,,,,001,69,2020_Feb_04_1457,spring_faces,3.1.5,60.048433024454354,
condition files/Stage1_2.xlsx,,B3,T4,m,"['c', 'm']","['Clue', 'Monopoly']","[-0.15, 0.5]","[0.15, 0.5]",1,1,,,,,,,,,0,5,5,5,0,0,0,6,,,,,,,,,,,,,,,,,,,,,,,,,,,,,,,,,,,,,,,,,,,,,,,,,,,,,,,564.1612803790013,None,564.1612803790013,None,564.1612803790013,None,c,0,0.6101596709995647,565.7106122860023,None,565.7106122860023,None,565.7106122860023,None,566.3947738440002,None,566.3947738440002,None,566.3947738440002,None,566.3947738440002,None,,,,,,,,,,,,,,,,,,,,,,,,,,,,,,,,,,,,,,,,,,,,001,69,2020_Feb_04_1457,spring_faces,3.1.5,60.048433024454354,
condition files/Stage1_2.xlsx,,B4,T3,c,"['c', 'm']","['Clue', 'Monopoly']","[-0.15, 0.5]","[0.15, 0.5]",1,1,,,,,,,,,0,5,5,5,0,1,1,5,,,,,,,,,,,,,,,,,,,,,,,,,,,,,,,,,,,,,,,,,,,,,,,,,,,,,,,568.3441164510004,None,568.3441164510004,None,568.3441164510004,None,m,0,0.7304349420010112,569.8782575270016,None,569.8782575270016,None,569.8782575270016,None,570.6614200490003,None,570.6614200490003,None,570.6614200490003,None,570.6614200490003,None,,,,,,,,,,,,,,,,,,,,,,,,,,,,,,,,,,,,,,,,,,,,001,69,2020_Feb_04_1457,spring_faces,3.1.5,60.048433024454354,
condition files/Stage1_2.xlsx,,T2,B1,c,"['c', 'm']","['Clue', 'Monopoly']","[-0.15, 0.5]","[0.15, 0.5]",1,1,,,,,,,,,0,5,5,5,0,2,2,1,,,,,,,,,,,,,,,,,,,,,,,,,,,,,,,,,,,,,,,,,,,,,,,,,,,,,,,572.6279252120003,None,572.6279252120003,None,572.6279252120003,None,c,1,0.6079672949999804,574.16076703,None,574.16076703,None,574.16076703,None,574.8274751329991,None,574.8274751329991,None,574.8274751329991,None,574.8274751329991,None,,,,,,,,,,,,,,,,,,,,,,,,,,,,,,,,,,,,,,,,,,,,001,69,2020_Feb_04_1457,spring_faces,3.1.5,60.048433024454354,
condition files/Stage1_2.xlsx,,T1,B2,m,"['c', 'm']","['Clue', 'Monopoly']","[-0.15, 0.5]","[0.15, 0.5]",1,1,,,,,,,,,0,5,5,5,0,3,3,2,,,,,,,,,,,,,,,,,,,,,,,,,,,,,,,,,,,,,,,,,,,,,,,,,,,,,,,576.794540371,None,576.794540371,None,576.794540371,None,m,1,1.1767119819996879,578.3280405530022,None,578.3280405530022,None,578.3280405530022,None,579.5780710180006,None,579.5780710180006,None,579.5780710180006,None,579.5780710180006,None,,,,,,,,,,,,,,,,,,,,,,,,,,,,,,,,,,,,,,,,,,,,001,69,2020_Feb_04_1457,spring_faces,3.1.5,60.048433024454354,
condition files/Stage1_2.xlsx,,T3,B3,c,"['c', 'm']","['Clue', 'Monopoly']","[-0.15, 0.5]","[0.15, 0.5]",1,1,,,,,,,,,0,5,5,5,0,4,4,4,,,,,,,,,,,,,,,,,,,,,,,,,,,,,,,,,,,,,,,,,,,,,,,,,,,,,,,581.527845487999,None,581.527845487999,None,581.527845487999,None,c,1,1.7543674609987647,583.0783233479997,None,583.0783233479997,None,583.0783233479997,None,584.9114224100013,None,584.9114224100013,None,584.9114224100013,None,584.9114224100013,None,,,,,,,,,,,,,,,,,,,,,,,,,,,,,,,,,,,,,,,,,,,,001,69,2020_Feb_04_1457,spring_faces,3.1.5,60.048433024454354,
condition files/Stage1_2.xlsx,,B2,T2,m,"['c', 'm']","['Clue', 'Monopoly']","[-0.15, 0.5]","[0.15, 0.5]",1,1,,,,,,,,,0,5,5,5,0,5,5,3,,,,,,,,,,,,,,,,,,,,,,,,,,,,,,,,,,,,,,,,,,,,,,,,,,,,,,,586.861181147,None,586.861181147,None,586.861181147,None,m,1,0.9339807819997077,588.3946724060006,None,588.3946724060006,None,588.3946724060006,None,589.3985147730018,None,589.3985147730018,None,589.3985147730018,None,589.3985147730018,None,,,,,,,,,,,,,,,,,,,,,,,,,,,,,,,,,,,,,,,,,,,,001,69,2020_Feb_04_1457,spring_faces,3.1.5,60.048433024454354,
condition files/Stage1_2.xlsx,,B1,T1,c,"['c', 'm']","['Clue', 'Monopoly']","[-0.15, 0.5]","[0.15, 0.5]",1,1,,,,,,,,,0,5,5,5,0,6,6,0,,,,,,,,,,,,,,,,,,,,,,,,,,,,,,,,,,,,,,,,,,,,,,,,,,,,,,,591.361642013002,None,591.361642013002,None,591.361642013002,None,c,1,0.5917313999998441,592.897044821002,None,592.897044821002,None,592.897044821002,None,593.5475443940013,None,593.5475443940013,None,593.5475443940013,None,593.5475443940013,None,,,,,,,,,,,,,,,,,,,,,,,,,,,,,,,,,,,,,,,,,,,,001,69,2020_Feb_04_1457,spring_faces,3.1.5,60.048433024454354,
condition files/Stage1_2.xlsx,,T4,B4,m,"['c', 'm']","['Clue', 'Monopoly']","[-0.15, 0.5]","[0.15, 0.5]",1,1,,,,,,,,,0,5,5,5,0,7,7,7,,,,,,,,,,,,,,,,,,,,,,,,,,,,,,,,,,,,,,,,,,,,,,,,,,,,,,,595.5105202560007,None,595.5105202560007,None,595.5105202560007,None,m,1,2.10806044200217,597.044713907002,None,597.044713907002,None,597.044713907002,None,599.2280643760023,None,599.2280643760023,None,599.2280643760023,None,599.2280643760023,None,,,,,,,,,,,,,,,,,,,,,,,,,,,,,,,,,,,,,,,,,,,,001,69,2020_Feb_04_1457,spring_faces,3.1.5,60.048433024454354,
condition files/Stage1_1.xlsx,,B4,T4,m,"['c', 'm']","['Clue', 'Monopoly']","[-0.15, 0.5]","[0.15, 0.5]",1,1,,,,,,,,,0,6,6,6,0,0,0,7,,,,,,,,,,,,,,,,,,,,,,,,,,,,,,,,,,,,,,,,,,,,,,,,,,,,,,,601.1943328699999,None,601.1943328699999,None,601.1943328699999,None,m,1,0.9516657899985148,602.7290508180013,None,602.7290508180013,None,602.7290508180013,None,603.744372830999,None,603.744372830999,None,603.744372830999,None,603.744372830999,None,,,,,,,,,,,,,,,,,,,,,,,,,,,,,,,,,,,,,,,,,,,,001,69,2020_Feb_04_1457,spring_faces,3.1.5,60.048433024454354,
condition files/Stage1_1.xlsx,,T1,B1,c,"['c', 'm']","['Clue', 'Monopoly']","[-0.15, 0.5]","[0.15, 0.5]",1,1,,,,,,,,,0,6,6,6,0,1,1,0,,,,,,,,,,,,,,,,,,,,,,,,,,,,,,,,,,,,,,,,,,,,,,,,,,,,,,,605.7103345830001,None,605.7103345830001,None,605.7103345830001,None,c,1,0.738289001998055,607.2464591120006,None,607.2464591120006,None,607.2464591120006,None,608.0613173040001,None,608.0613173040001,None,608.0613173040001,None,608.0613173040001,None,,,,,,,,,,,,,,,,,,,,,,,,,,,,,,,,,,,,,,,,,,,,001,69,2020_Feb_04_1457,spring_faces,3.1.5,60.048433024454354,
condition files/Stage1_1.xlsx,,B3,T3,c,"['c', 'm']","['Clue', 'Monopoly']","[-0.15, 0.5]","[0.15, 0.5]",1,1,,,,,,,,,0,6,6,6,0,2,2,4,,,,,,,,,,,,,,,,,,,,,,,,,,,,,,,,,,,,,,,,,,,,,,,,,,,,,,,610.0107797439996,None,610.0107797439996,None,610.0107797439996,None,c,1,1.143951891001052,611.5608144280013,None,611.5608144280013,None,611.5608144280013,None,612.7613823079992,None,612.7613823079992,None,612.7613823079992,None,612.7613823079992,None,,,,,,,,,,,,,,,,,,,,,,,,,,,,,,,,,,,,,,,,,,,,001,69,2020_Feb_04_1457,spring_faces,3.1.5,60.048433024454354,
condition files/Stage1_1.xlsx,,B2,T1,m,"['c', 'm']","['Clue', 'Monopoly']","[-0.15, 0.5]","[0.15, 0.5]",1,1,,,,,,,,,0,6,6,6,0,3,3,2,,,,,,,,,,,,,,,,,,,,,,,,,,,,,,,,,,,,,,,,,,,,,,,,,,,,,,,614.727689055002,None,614.727689055002,None,614.727689055002,None,c,0,1.8509699159985757,616.2616938440005,None,616.2616938440005,None,616.2616938440005,None,618.1943139389987,None,618.1943139389987,None,618.1943139389987,None,618.1943139389987,None,,,,,,,,,,,,,,,,,,,,,,,,,,,,,,,,,,,,,,,,,,,,001,69,2020_Feb_04_1457,spring_faces,3.1.5,60.048433024454354,
condition files/Stage1_1.xlsx,,T3,B4,c,"['c', 'm']","['Clue', 'Monopoly']","[-0.15, 0.5]","[0.15, 0.5]",1,1,,,,,,,,,0,6,6,6,0,4,4,5,,,,,,,,,,,,,,,,,,,,,,,,,,,,,,,,,,,,,,,,,,,,,,,,,,,,,,,620.1446237640012,None,620.1446237640012,None,620.1446237640012,None,c,1,1.0734921670009498,621.6792636300015,None,621.6792636300015,None,621.6792636300015,None,622.8125086149994,None,622.8125086149994,None,622.8125086149994,None,622.8125086149994,None,,,,,,,,,,,,,,,,,,,,,,,,,,,,,,,,,,,,,,,,,,,,001,69,2020_Feb_04_1457,spring_faces,3.1.5,60.048433024454354,
condition files/Stage1_1.xlsx,,T4,B3,m,"['c', 'm']","['Clue', 'Monopoly']","[-0.15, 0.5]","[0.15, 0.5]",1,1,,,,,,,,,0,6,6,6,0,5,5,6,,,,,,,,,,,,,,,,,,,,,,,,,,,,,,,,,,,,,,,,,,,,,,,,,,,,,,,624.7779829560022,None,624.7779829560022,None,624.7779829560022,None,m,1,1.4494856579985935,626.3112183480007,None,626.3112183480007,None,626.3112183480007,None,627.8280649650005,None,627.8280649650005,None,627.8280649650005,None,627.8280649650005,None,,,,,,,,,,,,,,,,,,,,,,,,,,,,,,,,,,,,,,,,,,,,001,69,2020_Feb_04_1457,spring_faces,3.1.5,60.048433024454354,
condition files/Stage1_1.xlsx,,T2,B2,m,"['c', 'm']","['Clue', 'Monopoly']","[-0.15, 0.5]","[0.15, 0.5]",1,1,,,,,,,,,0,6,6,6,0,6,6,3,,,,,,,,,,,,,,,,,,,,,,,,,,,,,,,,,,,,,,,,,,,,,,,,,,,,,,,629.77779878,None,629.77779878,None,629.77779878,None,m,1,3.0875825680013804,631.3131917050014,None,631.3131917050014,None,631.3131917050014,None,634.4610684120016,None,634.4610684120016,None,634.4610684120016,None,634.4610684120016,None,,,,,,,,,,,,,,,,,,,,,,,,,,,,,,,,,,,,,,,,,,,,001,69,2020_Feb_04_1457,spring_faces,3.1.5,60.048433024454354,
condition files/Stage1_1.xlsx,,B1,T2,c,"['c', 'm']","['Clue', 'Monopoly']","[-0.15, 0.5]","[0.15, 0.5]",1,1,,,,,,,,,0,6,6,6,0,7,7,1,,,,,,,,,,,,,,,,,,,,,,,,,,,,,,,,,,,,,,,,,,,,,,,,,,,,,,,636.4278004160005,None,636.4278004160005,None,636.4278004160005,None,c,1,0.6631269489989791,637.9775664170011,None,637.9775664170011,None,637.9775664170011,None,638.7114020830013,None,638.7114020830013,None,638.7114020830013,None,638.7114020830013,None,,,,,,,,,,,,,,,,,,,,,,,,,,,,,,,,,,,,,,,,,,,,001,69,2020_Feb_04_1457,spring_faces,3.1.5,60.048433024454354,
condition files/Stage1_2.xlsx,,T3,B3,c,"['c', 'm']","['Clue', 'Monopoly']","[-0.15, 0.5]","[0.15, 0.5]",1,1,,,,,,,,,0,7,7,7,0,0,0,4,,,,,,,,,,,,,,,,,,,,,,,,,,,,,,,,,,,,,,,,,,,,,,,,,,,,,,,640.6773939279992,None,640.6773939279992,None,640.6773939279992,None,c,1,0.9724522969991085,642.2283263220015,None,642.2283263220015,None,642.2283263220015,None,643.2610241170005,None,643.2610241170005,None,643.2610241170005,None,643.2610241170005,None,,,,,,,,,,,,,,,,,,,,,,,,,,,,,,,,,,,,,,,,,,,,001,69,2020_Feb_04_1457,spring_faces,3.1.5,60.048433024454354,
condition files/Stage1_2.xlsx,,B4,T3,c,"['c', 'm']","['Clue', 'Monopoly']","[-0.15, 0.5]","[0.15, 0.5]",1,1,,,,,,,,,0,7,7,7,0,1,1,5,,,,,,,,,,,,,,,,,,,,,,,,,,,,,,,,,,,,,,,,,,,,,,,,,,,,,,,645.2276762990004,None,645.2276762990004,None,645.2276762990004,None,c,1,3.2712297690013656,646.7614770270011,None,646.7614770270011,None,646.7614770270011,None,650.0941065119987,None,650.0941065119987,None,650.0941065119987,None,650.0941065119987,None,,,,,,,,,,,,,,,,,,,,,,,,,,,,,,,,,,,,,,,,,,,,001,69,2020_Feb_04_1457,spring_faces,3.1.5,60.048433024454354,
condition files/Stage1_2.xlsx,,B1,T1,c,"['c', 'm']","['Clue', 'Monopoly']","[-0.15, 0.5]","[0.15, 0.5]",1,1,,,,,,,,,0,7,7,7,0,2,2,0,,,,,,,,,,,,,,,,,,,,,,,,,,,,,,,,,,,,,,,,,,,,,,,,,,,,,,,652.0613495590005,None,652.0613495590005,None,652.0613495590005,None,c,1,1.7808158680018096,653.5958828129988,None,653.5958828129988,None,653.5958828129988,None,655.4282120550015,None,655.4282120550015,None,655.4282120550015,None,655.4282120550015,None,,,,,,,,,,,,,,,,,,,,,,,,,,,,,,,,,,,,,,,,,,,,001,69,2020_Feb_04_1457,spring_faces,3.1.5,60.048433024454354,
condition files/Stage1_2.xlsx,,B2,T2,m,"['c', 'm']","['Clue', 'Monopoly']","[-0.15, 0.5]","[0.15, 0.5]",1,1,,,,,,,,,0,7,7,7,0,3,3,3,,,,,,,,,,,,,,,,,,,,,,,,,,,,,,,,,,,,,,,,,,,,,,,,,,,,,,,657.3939319829988,None,657.3939319829988,None,657.3939319829988,None,m,1,1.69618549200095,658.9285672600017,None,658.9285672600017,None,658.9285672600017,None,660.6947370279995,None,660.6947370279995,None,660.6947370279995,None,660.6947370279995,None,,,,,,,,,,,,,,,,,,,,,,,,,,,,,,,,,,,,,,,,,,,,001,69,2020_Feb_04_1457,spring_faces,3.1.5,60.048433024454354,
condition files/Stage1_2.xlsx,,B3,T4,m,"['c', 'm']","['Clue', 'Monopoly']","[-0.15, 0.5]","[0.15, 0.5]",1,1,,,,,,,,,0,7,7,7,0,4,4,6,,,,,,,,,,,,,,,,,,,,,,,,,,,,,,,,,,,,,,,,,,,,,,,,,,,,,,,662.6445841560017,None,662.6445841560017,None,662.6445841560017,None,m,1,0.893217619999632,664.1794689730013,None,664.1794689730013,None,664.1794689730013,None,665.1279842879994,None,665.1279842879994,None,665.1279842879994,None,665.1279842879994,None,,,,,,,,,,,,,,,,,,,,,,,,,,,,,,,,,,,,,,,,,,,,001,69,2020_Feb_04_1457,spring_faces,3.1.5,60.048433024454354,
condition files/Stage1_2.xlsx,,T4,B4,m,"['c', 'm']","['Clue', 'Monopoly']","[-0.15, 0.5]","[0.15, 0.5]",1,1,,,,,,,,,0,7,7,7,0,5,5,7,,,,,,,,,,,,,,,,,,,,,,,,,,,,,,,,,,,,,,,,,,,,,,,,,,,,,,,667.0945057159988,None,667.0945057159988,None,667.0945057159988,None,m,1,0.6692337310014409,668.6274719680005,None,668.6274719680005,None,668.6274719680005,None,669.3616593830011,None,669.3616593830011,None,669.3616593830011,None,669.3616593830011,None,,,,,,,,,,,,,,,,,,,,,,,,,,,,,,,,,,,,,,,,,,,,001,69,2020_Feb_04_1457,spring_faces,3.1.5,60.048433024454354,
condition files/Stage1_2.xlsx,,T1,B2,m,"['c', 'm']","['Clue', 'Monopoly']","[-0.15, 0.5]","[0.15, 0.5]",1,1,,,,,,,,,0,7,7,7,0,6,6,2,,,,,,,,,,,,,,,,,,,,,,,,,,,,,,,,,,,,,,,,,,,,,,,,,,,,,,,671.3278303939987,None,671.3278303939987,None,671.3278303939987,None,m,1,1.4096491529999184,672.8630374730019,None,672.8630374730019,None,672.8630374730019,None,674.3281578210008,None,674.3281578210008,None,674.3281578210008,None,674.3281578210008,None,,,,,,,,,,,,,,,,,,,,,,,,,,,,,,,,,,,,,,,,,,,,001,69,2020_Feb_04_1457,spring_faces,3.1.5,60.048433024454354,
condition files/Stage1_2.xlsx,,T2,B1,c,"['c', 'm']","['Clue', 'Monopoly']","[-0.15, 0.5]","[0.15, 0.5]",1,1,,,,,,,,,0,7,7,7,0,7,7,1,,,,,,,,,,,,,,,,,,,,,,,,,,,,,,,,,,,,,,,,,,,,,,,,,,,,,,,676.293987467001,None,676.293987467001,None,676.293987467001,None,c,1,0.5409282990003703,677.8278365250007,None,677.8278365250007,None,677.8278365250007,None,678.4446559600001,None,678.4446559600001,None,678.4446559600001,None,678.4446559600001,None,,,,,,,,,,,,,,,,,,,,,,,,,,,,,,,,,,,,,,,,,,,,001,69,2020_Feb_04_1457,spring_faces,3.1.5,60.048433024454354,
condition files/Stage1_1.xlsx,,T3,B4,c,"['c', 'm']","['Clue', 'Monopoly']","[-0.15, 0.5]","[0.15, 0.5]",1,1,,,,,,,,,0,8,8,8,0,0,0,5,,,,,,,,,,,,,,,,,,,,,,,,,,,,,,,,,,,,,,,,,,,,,,,,,,,,,,,680.4111566350002,None,680.4111566350002,None,680.4111566350002,None,c,1,1.1765983260011126,681.9442061900008,None,681.9442061900008,None,681.9442061900008,None,683.1783697060018,None,683.1783697060018,None,683.1783697060018,None,683.1783697060018,None,,,,,,,,,,,,,,,,,,,,,,,,,,,,,,,,,,,,,,,,,,,,001,69,2020_Feb_04_1457,spring_faces,3.1.5,60.048433024454354,
condition files/Stage1_1.xlsx,,B4,T4,m,"['c', 'm']","['Clue', 'Monopoly']","[-0.15, 0.5]","[0.15, 0.5]",1,1,,,,,,,,,0,8,8,8,0,1,1,7,,,,,,,,,,,,,,,,,,,,,,,,,,,,,,,,,,,,,,,,,,,,,,,,,,,,,,,685.1445195090018,None,685.1445195090018,None,685.1445195090018,None,m,1,0.8418005460007407,686.6789871180008,None,686.6789871180008,None,686.6789871180008,None,687.5783825910003,None,687.5783825910003,None,687.5783825910003,None,687.5783825910003,None,,,,,,,,,,,,,,,,,,,,,,,,,,,,,,,,,,,,,,,,,,,,001,69,2020_Feb_04_1457,spring_faces,3.1.5,60.048433024454354,
condition files/Stage1_1.xlsx,,T1,B1,c,"['c', 'm']","['Clue', 'Monopoly']","[-0.15, 0.5]","[0.15, 0.5]",1,1,,,,,,,,,0,8,8,8,0,2,2,0,,,,,,,,,,,,,,,,,,,,,,,,,,,,,,,,,,,,,,,,,,,,,,,,,,,,,,,689.5447024669993,None,689.5447024669993,None,689.5447024669993,None,c,1,1.5632073470005707,691.0774816630001,None,691.0774816630001,None,691.0774816630001,None,692.7108199840004,None,692.7108199840004,None,692.7108199840004,None,692.7108199840004,None,,,,,,,,,,,,,,,,,,,,,,,,,,,,,,,,,,,,,,,,,,,,001,69,2020_Feb_04_1457,spring_faces,3.1.5,60.048433024454354,
condition files/Stage1_1.xlsx,,B1,T2,c,"['c', 'm']","['Clue', 'Monopoly']","[-0.15, 0.5]","[0.15, 0.5]",1,1,,,,,,,,,0,8,8,8,0,3,3,1,,,,,,,,,,,,,,,,,,,,,,,,,,,,,,,,,,,,,,,,,,,,,,,,,,,,,,,694.6612581070003,None,694.6612581070003,None,694.6612581070003,None,c,1,2.2217685780015017,696.1949380229998,None,696.1949380229998,None,696.1949380229998,None,698.4779630289995,None,698.4779630289995,None,698.4779630289995,None,698.4779630289995,None,,,,,,,,,,,,,,,,,,,,,,,,,,,,,,,,,,,,,,,,,,,,001,69,2020_Feb_04_1457,spring_faces,3.1.5,60.048433024454354,
condition files/Stage1_1.xlsx,,T4,B3,m,"['c', 'm']","['Clue', 'Monopoly']","[-0.15, 0.5]","[0.15, 0.5]",1,1,,,,,,,,,0,8,8,8,0,4,4,6,,,,,,,,,,,,,,,,,,,,,,,,,,,,,,,,,,,,,,,,,,,,,,,,,,,,,,,700.4445752560023,None,700.4445752560023,None,700.4445752560023,None,m,1,0.7743452319991775,701.9784324620014,None,701.9784324620014,None,701.9784324620014,None,702.8282841910004,None,702.8282841910004,None,702.8282841910004,None,702.8282841910004,None,,,,,,,,,,,,,,,,,,,,,,,,,,,,,,,,,,,,,,,,,,,,001,69,2020_Feb_04_1457,spring_faces,3.1.5,60.048433024454354,
condition files/Stage1_1.xlsx,,B3,T3,c,"['c', 'm']","['Clue', 'Monopoly']","[-0.15, 0.5]","[0.15, 0.5]",1,1,,,,,,,,,0,8,8,8,0,5,5,4,,,,,,,,,,,,,,,,,,,,,,,,,,,,,,,,,,,,,,,,,,,,,,,,,,,,,,,704.7781376019993,None,704.7781376019993,None,704.7781376019993,None,c,1,1.4166754060024687,706.3280033849987,None,706.3280033849987,None,706.3280033849987,None,707.7971025250008,None,707.7971025250008,None,707.7971025250008,None,707.7971025250008,None,,,,,,,,,,,,,,,,,,,,,,,,,,,,,,,,,,,,,,,,,,,,001,69,2020_Feb_04_1457,spring_faces,3.1.5,60.048433024454354,
condition files/Stage1_1.xlsx,,B2,T1,m,"['c', 'm']","['Clue', 'Monopoly']","[-0.15, 0.5]","[0.15, 0.5]",1,1,,,,,,,,,0,8,8,8,0,6,6,2,,,,,,,,,,,,,,,,,,,,,,,,,,,,,,,,,,,,,,,,,,,,,,,,,,,,,,,709.7611699539993,None,709.7611699539993,None,709.7611699539993,None,m,1,1.680361267997796,711.2963351180006,None,711.2963351180006,None,711.2963351180006,None,713.044167095999,None,713.044167095999,None,713.044167095999,None,713.044167095999,None,,,,,,,,,,,,,,,,,,,,,,,,,,,,,,,,,,,,,,,,,,,,001,69,2020_Feb_04_1457,spring_faces,3.1.5,60.048433024454354,
condition files/Stage1_1.xlsx,,T2,B2,m,"['c', 'm']","['Clue', 'Monopoly']","[-0.15, 0.5]","[0.15, 0.5]",1,1,,,,,,,,,0,8,8,8,0,7,7,3,,,,,,,,,,,,,,,,,,,,,,,,,,,,,,,,,,,,,,,,,,,,,,,,,,,,,,,714.9941122279997,None,714.9941122279997,None,714.9941122279997,None,m,1,3.8084453310002573,716.5283063099996,None,716.5283063099996,None,716.5283063099996,None,720.394415859002,None,720.394415859002,None,720.394415859002,None,720.394415859002,None,,,,,,,,,,,,,,,,,,,,,,,,,,,,,,,,,,,,,,,,,,,,001,69,2020_Feb_04_1457,spring_faces,3.1.5,60.048433024454354,
condition files/Stage1_2.xlsx,,T3,B3,c,"['c', 'm']","['Clue', 'Monopoly']","[-0.15, 0.5]","[0.15, 0.5]",1,1,,,,,,,,,0,9,9,9,0,0,0,4,,,,,,,,,,,,,,,,,,,,,,,,,,,,,,,,,,,,,,,,,,,,,,,,,,,,,,,722.3776028930006,None,722.3776028930006,None,722.3776028930006,None,c,1,0.9850017190001381,723.9276667840022,None,723.9276667840022,None,723.9276667840022,None,724.9797365830018,None,724.9797365830018,None,724.9797365830018,None,724.9797365830018,None,,,,,,,,,,,,,,,,,,,,,,,,,,,,,,,,,,,,,,,,,,,,001,69,2020_Feb_04_1457,spring_faces,3.1.5,60.048433024454354,
condition files/Stage1_2.xlsx,,B2,T2,m,"['c', 'm']","['Clue', 'Monopoly']","[-0.15, 0.5]","[0.15, 0.5]",1,1,,,,,,,,,0,9,9,9,0,1,1,3,,,,,,,,,,,,,,,,,,,,,,,,,,,,,,,,,,,,,,,,,,,,,,,,,,,,,,,726.9445970209999,None,726.9445970209999,None,726.9445970209999,None,m,1,0.8662736139995104,728.4784424819991,None,728.4784424819991,None,728.4784424819991,None,729.3970468830012,None,729.3970468830012,None,729.3970468830012,None,729.3970468830012,None,,,,,,,,,,,,,,,,,,,,,,,,,,,,,,,,,,,,,,,,,,,,001,69,2020_Feb_04_1457,spring_faces,3.1.5,60.048433024454354,
condition files/Stage1_2.xlsx,,B1,T1,c,"['c', 'm']","['Clue', 'Monopoly']","[-0.15, 0.5]","[0.15, 0.5]",1,1,,,,,,,,,0,9,9,9,0,2,2,0,,,,,,,,,,,,,,,,,,,,,,,,,,,,,,,,,,,,,,,,,,,,,,,,,,,,,,,731.3612846430005,None,731.3612846430005,None,731.3612846430005,None,c,1,0.529313203998754,732.8953550859987,None,732.8953550859987,None,732.8953550859987,None,733.4948949120007,None,733.4948949120007,None,733.4948949120007,None,733.4948949120007,None,,,,,,,,,,,,,,,,,,,,,,,,,,,,,,,,,,,,,,,,,,,,001,69,2020_Feb_04_1457,spring_faces,3.1.5,60.048433024454354,
condition files/Stage1_2.xlsx,,B3,T4,m,"['c', 'm']","['Clue', 'Monopoly']","[-0.15, 0.5]","[0.15, 0.5]",1,1,,,,,,,,,0,9,9,9,0,3,3,6,,,,,,,,,,,,,,,,,,,,,,,,,,,,,,,,,,,,,,,,,,,,,,,,,,,,,,,735.4446130040014,None,735.4446130040014,None,735.4446130040014,None,m,1,1.2940670820025844,736.9785994640006,None,736.9785994640006,None,736.9785994640006,None,738.344630036001,None,738.344630036001,None,738.344630036001,None,738.344630036001,None,,,,,,,,,,,,,,,,,,,,,,,,,,,,,,,,,,,,,,,,,,,,001,69,2020_Feb_04_1457,spring_faces,3.1.5,60.048433024454354,
condition files/Stage1_2.xlsx,,T1,B2,m,"['c', 'm']","['Clue', 'Monopoly']","[-0.15, 0.5]","[0.15, 0.5]",1,1,,,,,,,,,0,9,9,9,0,4,4,2,,,,,,,,,,,,,,,,,,,,,,,,,,,,,,,,,,,,,,,,,,,,,,,,,,,,,,,740.2945396620016,None,740.2945396620016,None,740.2945396620016,None,m,1,1.2765766019983857,741.8281778810015,None,741.8281778810015,None,741.8281778810015,None,743.1615744800001,None,743.1615744800001,None,743.1615744800001,None,743.1615744800001,None,,,,,,,,,,,,,,,,,,,,,,,,,,,,,,,,,,,,,,,,,,,,001,69,2020_Feb_04_1457,spring_faces,3.1.5,60.048433024454354,
condition files/Stage1_2.xlsx,,T4,B4,m,"['c', 'm']","['Clue', 'Monopoly']","[-0.15, 0.5]","[0.15, 0.5]",1,1,,,,,,,,,0,9,9,9,0,5,5,7,,,,,,,,,,,,,,,,,,,,,,,,,,,,,,,,,,,,,,,,,,,,,,,,,,,,,,,745.127909027,None,745.127909027,None,745.127909027,None,m,1,1.0831790949996503,746.6614732970011,None,746.6614732970011,None,746.6614732970011,None,747.7948782790008,None,747.7948782790008,None,747.7948782790008,None,747.7948782790008,None,,,,,,,,,,,,,,,,,,,,,,,,,,,,,,,,,,,,,,,,,,,,001,69,2020_Feb_04_1457,spring_faces,3.1.5,60.048433024454354,
condition files/Stage1_2.xlsx,,B4,T3,c,"['c', 'm']","['Clue', 'Monopoly']","[-0.15, 0.5]","[0.15, 0.5]",1,1,,,,,,,,,0,9,9,9,0,6,6,5,,,,,,,,,,,,,,,,,,,,,,,,,,,,,,,,,,,,,,,,,,,,,,,,,,,,,,,749.7606392170019,None,749.7606392170019,None,749.7606392170019,None,c,1,1.281789116001164,751.2948967049997,None,751.2948967049997,None,751.2948967049997,None,752.6448607769998,None,752.6448607769998,None,752.6448607769998,None,752.6448607769998,None,,,,,,,,,,,,,,,,,,,,,,,,,,,,,,,,,,,,,,,,,,,,001,69,2020_Feb_04_1457,spring_faces,3.1.5,60.048433024454354,
condition files/Stage1_2.xlsx,,T2,B1,c,"['c', 'm']","['Clue', 'Monopoly']","[-0.15, 0.5]","[0.15, 0.5]",1,1,,,,,,,,,0,9,9,9,0,7,7,1,,,,,,,,,,,,,,,,,,,,,,,,,,,,,,,,,,,,,,,,,,,,,,,,,,,,,,,754.594548686,None,754.594548686,None,754.594548686,None,m,0,0.6567602469986014,756.1280094089998,None,756.1280094089998,None,756.1280094089998,None,756.8443416549999,None,756.8443416549999,None,756.8443416549999,None,756.8443416549999,None,,,,,,,,,,,,,,,,,,,,,,,,,,,,,,,,,,,,,,,,,,,,001,69,2020_Feb_04_1457,spring_faces,3.1.5,60.048433024454354,
condition files/Stage1_1.xlsx,,B4,T4,m,"['c', 'm']","['Clue', 'Monopoly']","[-0.15, 0.5]","[0.15, 0.5]",1,1,,,,,,,,,0,10,10,10,0,0,0,7,,,,,,,,,,,,,,,,,,,,,,,,,,,,,,,,,,,,,,,,,,,,,,,,,,,,,,,758.8278864150016,None,758.8278864150016,None,758.8278864150016,None,m,1,0.918428816999949,760.3782766090007,None,760.3782766090007,None,760.3782766090007,None,761.3628882250014,None,761.3628882250014,None,761.3628882250014,None,761.3628882250014,None,,,,,,,,,,,,,,,,,,,,,,,,,,,,,,,,,,,,,,,,,,,,001,69,2020_Feb_04_1457,spring_faces,3.1.5,60.048433024454354,
condition files/Stage1_1.xlsx,,B3,T3,c,"['c', 'm']","['Clue', 'Monopoly']","[-0.15, 0.5]","[0.15, 0.5]",1,1,,,,,,,,,0,10,10,10,0,1,1,4,,,,,,,,,,,,,,,,,,,,,,,,,,,,,,,,,,,,,,,,,,,,,,,,,,,,,,,763.3278421530013,None,763.3278421530013,None,763.3278421530013,None,c,1,2.690550647999771,764.8622247909989,None,764.8622247909989,None,764.8622247909989,None,767.6133306820011,None,767.6133306820011,None,767.6133306820011,None,767.6133306820011,None,,,,,,,,,,,,,,,,,,,,,,,,,,,,,,,,,,,,,,,,,,,,001,69,2020_Feb_04_1457,spring_faces,3.1.5,60.048433024454354,
condition files/Stage1_1.xlsx,,T4,B3,m,"['c', 'm']","['Clue', 'Monopoly']","[-0.15, 0.5]","[0.15, 0.5]",1,1,,,,,,,,,0,10,10,10,0,2,2,6,,,,,,,,,,,,,,,,,,,,,,,,,,,,,,,,,,,,,,,,,,,,,,,,,,,,,,,769.5778777960004,None,769.5778777960004,None,769.5778777960004,None,m,1,4.41015244799928,771.1106218290006,None,771.1106218290006,None,771.1106218290006,None,775.5789687340002,None,775.5789687340002,None,775.5789687340002,None,775.5789687340002,None,,,,,,,,,,,,,,,,,,,,,,,,,,,,,,,,,,,,,,,,,,,,001,69,2020_Feb_04_1457,spring_faces,3.1.5,60.048433024454354,
condition files/Stage1_1.xlsx,,B1,T2,c,"['c', 'm']","['Clue', 'Monopoly']","[-0.15, 0.5]","[0.15, 0.5]",1,1,,,,,,,,,0,10,10,10,0,3,3,1,,,,,,,,,,,,,,,,,,,,,,,,,,,,,,,,,,,,,,,,,,,,,,,,,,,,,,,777.5446541259989,None,777.5446541259989,None,777.5446541259989,None,c,1,0.7459635589984828,779.0786463219993,None,779.0786463219993,None,779.0786463219993,None,779.8807160780016,None,779.8807160780016,None,779.8807160780016,None,779.8807160780016,None,,,,,,,,,,,,,,,,,,,,,,,,,,,,,,,,,,,,,,,,,,,,001,69,2020_Feb_04_1457,spring_faces,3.1.5,60.048433024454354,
condition files/Stage1_1.xlsx,,T1,B1,c,"['c', 'm']","['Clue', 'Monopoly']","[-0.15, 0.5]","[0.15, 0.5]",1,1,,,,,,,,,0,10,10,10,0,4,4,0,,,,,,,,,,,,,,,,,,,,,,,,,,,,,,,,,,,,,,,,,,,,,,,,,,,,,,,781.8445541149995,None,781.8445541149995,None,781.8445541149995,None,c,1,2.190029956997023,783.3787494200005,None,783.3787494200005,None,783.3787494200005,None,785.6273502930017,None,785.6273502930017,None,785.6273502930017,None,785.6273502930017,None,,,,,,,,,,,,,,,,,,,,,,,,,,,,,,,,,,,,,,,,,,,,001,69,2020_Feb_04_1457,spring_faces,3.1.5,60.048433024454354,
condition files/Stage1_1.xlsx,,T2,B2,m,"['c', 'm']","['Clue', 'Monopoly']","[-0.15, 0.5]","[0.15, 0.5]",1,1,,,,,,,,,0,10,10,10,0,5,5,3,,,,,,,,,,,,,,,,,,,,,,,,,,,,,,,,,,,,,,,,,,,,,,,,,,,,,,,787.5945627120018,None,787.5945627120018,None,787.5945627120018,None,c,0,3.1446997159982857,789.127991436002,None,789.127991436002,None,789.127991436002,None,792.3309095709992,None,792.3309095709992,None,792.3309095709992,None,792.3309095709992,None,,,,,,,,,,,,,,,,,,,,,,,,,,,,,,,,,,,,,,,,,,,,001,69,2020_Feb_04_1457,spring_faces,3.1.5,60.048433024454354,
condition files/Stage1_1.xlsx,,T3,B4,c,"['c', 'm']","['Clue', 'Monopoly']","[-0.15, 0.5]","[0.15, 0.5]",1,1,,,,,,,,,0,10,10,10,0,6,6,5,,,,,,,,,,,,,,,,,,,,,,,,,,,,,,,,,,,,,,,,,,,,,,,,,,,,,,,794.294513077999,None,794.294513077999,None,794.294513077999,None,c,1,4.106422483000642,795.8303421060009,None,795.8303421060009,None,795.8303421060009,None,799.9966730390006,None,799.9966730390006,None,799.9966730390006,None,799.9966730390006,None,,,,,,,,,,,,,,,,,,,,,,,,,,,,,,,,,,,,,,,,,,,,001,69,2020_Feb_04_1457,spring_faces,3.1.5,60.048433024454354,
condition files/Stage1_1.xlsx,,B2,T1,m,"['c', 'm']","['Clue', 'Monopoly']","[-0.15, 0.5]","[0.15, 0.5]",1,1,,,,,,,,,0,10,10,10,0,7,7,2,,,,,,,,,,,,,,,,,,,,,,,,,,,,,,,,,,,,,,,,,,,,,,,,,,,,,,,801.9613497130013,None,801.9613497130013,None,801.9613497130013,None,m,1,2.8719364490025328,803.4968351620009,None,803.4968351620009,None,803.4968351620009,None,806.4300207640008,None,806.4300207640008,None,806.4300207640008,None,806.4300207640008,None,,,,,,,,,,,,,,,,,,,,,,,,,,,,,,,,,,,,,,,,,,,,001,69,2020_Feb_04_1457,spring_faces,3.1.5,60.048433024454354,
condition files/Stage1_2.xlsx,,T2,B1,c,"['c', 'm']","['Clue', 'Monopoly']","[-0.15, 0.5]","[0.15, 0.5]",1,1,,,,,,,,,0,11,11,11,0,0,0,1,,,,,,,,,,,,,,,,,,,,,,,,,,,,,,,,,,,,,,,,,,,,,,,,,,,,,,,808.4114447520005,None,808.4114447520005,None,808.4114447520005,None,c,1,4.582790016000217,809.9458844889996,None,809.9458844889996,None,809.9458844889996,None,814.5939692840002,None,814.5939692840002,None,814.5939692840002,None,814.5939692840002,None,,,,,,,,,,,,,,,,,,,,,,,,,,,,,,,,,,,,,,,,,,,,001,69,2020_Feb_04_1457,spring_faces,3.1.5,60.048433024454354,
condition files/Stage1_2.xlsx,,B2,T2,m,"['c', 'm']","['Clue', 'Monopoly']","[-0.15, 0.5]","[0.15, 0.5]",1,1,,,,,,,,,0,11,11,11,0,1,1,3,,,,,,,,,,,,,,,,,,,,,,,,,,,,,,,,,,,,,,,,,,,,,,,,,,,,,,,816.5612466829989,None,816.5612466829989,None,816.5612466829989,None,m,1,1.1196850150008686,818.097044164002,None,818.097044164002,None,818.097044164002,None,819.2797010610011,None,819.2797010610011,None,819.2797010610011,None,819.2797010610011,None,,,,,,,,,,,,,,,,,,,,,,,,,,,,,,,,,,,,,,,,,,,,001,69,2020_Feb_04_1457,spring_faces,3.1.5,60.048433024454354,
condition files/Stage1_2.xlsx,,T3,B3,c,"['c', 'm']","['Clue', 'Monopoly']","[-0.15, 0.5]","[0.15, 0.5]",1,1,,,,,,,,,0,11,11,11,0,2,2,4,,,,,,,,,,,,,,,,,,,,,,,,,,,,,,,,,,,,,,,,,,,,,,,,,,,,,,,821.2446516470009,None,821.2446516470009,None,821.2446516470009,None,c,1,1.6544374219993188,822.794250703002,None,822.794250703002,None,822.794250703002,None,824.5277294939988,None,824.5277294939988,None,824.5277294939988,None,824.5277294939988,None,,,,,,,,,,,,,,,,,,,,,,,,,,,,,,,,,,,,,,,,,,,,001,69,2020_Feb_04_1457,spring_faces,3.1.5,60.048433024454354,
condition files/Stage1_2.xlsx,,B1,T1,c,"['c', 'm']","['Clue', 'Monopoly']","[-0.15, 0.5]","[0.15, 0.5]",1,1,,,,,,,,,0,11,11,11,0,3,3,0,,,,,,,,,,,,,,,,,,,,,,,,,,,,,,,,,,,,,,,,,,,,,,,,,,,,,,,826.4773668179987,None,826.4773668179987,None,826.4773668179987,None,c,1,2.165024326001003,828.0116838840004,None,828.0116838840004,None,828.0116838840004,None,830.2280839240011,None,830.2280839240011,None,830.2280839240011,None,830.2280839240011,None,,,,,,,,,,,,,,,,,,,,,,,,,,,,,,,,,,,,,,,,,,,,001,69,2020_Feb_04_1457,spring_faces,3.1.5,60.048433024454354,
condition files/Stage1_2.xlsx,,T1,B2,m,"['c', 'm']","['Clue', 'Monopoly']","[-0.15, 0.5]","[0.15, 0.5]",1,1,,,,,,,,,0,11,11,11,0,4,4,2,,,,,,,,,,,,,,,,,,,,,,,,,,,,,,,,,,,,,,,,,,,,,,,,,,,,,,,832.1945998449992,None,832.1945998449992,None,832.1945998449992,None,m,1,3.9684147499974642,833.7442278519993,None,833.7442278519993,None,833.7442278519993,None,837.7801312650008,None,837.7801312650008,None,837.7801312650008,None,837.7801312650008,None,,,,,,,,,,,,,,,,,,,,,,,,,,,,,,,,,,,,,,,,,,,,001,69,2020_Feb_04_1457,spring_faces,3.1.5,60.048433024454354,
condition files/Stage1_2.xlsx,,T4,B4,m,"['c', 'm']","['Clue', 'Monopoly']","[-0.15, 0.5]","[0.15, 0.5]",1,1,,,,,,,,,0,11,11,11,0,5,5,7,,,,,,,,,,,,,,,,,,,,,,,,,,,,,,,,,,,,,,,,,,,,,,,,,,,,,,,839.743970907999,None,839.743970907999,None,839.743970907999,None,m,1,2.177878464000969,841.2947867629991,None,841.2947867629991,None,841.2947867629991,None,843.5279671909993,None,843.5279671909993,None,843.5279671909993,None,843.5279671909993,None,,,,,,,,,,,,,,,,,,,,,,,,,,,,,,,,,,,,,,,,,,,,001,69,2020_Feb_04_1457,spring_faces,3.1.5,60.048433024454354,
condition files/Stage1_2.xlsx,,B4,T3,c,"['c', 'm']","['Clue', 'Monopoly']","[-0.15, 0.5]","[0.15, 0.5]",1,1,,,,,,,,,0,11,11,11,0,6,6,5,,,,,,,,,,,,,,,,,,,,,,,,,,,,,,,,,,,,,,,,,,,,,,,,,,,,,,,845.4945457120011,None,845.4945457120011,None,845.4945457120011,None,c,1,2.252033863001998,847.0286692260015,None,847.0286692260015,None,847.0286692260015,None,849.3615795990008,None,849.3615795990008,None,849.3615795990008,None,849.3615795990008,None,,,,,,,,,,,,,,,,,,,,,,,,,,,,,,,,,,,,,,,,,,,,001,69,2020_Feb_04_1457,spring_faces,3.1.5,60.048433024454354,
condition files/Stage1_2.xlsx,,B3,T4,m,"['c', 'm']","['Clue', 'Monopoly']","[-0.15, 0.5]","[0.15, 0.5]",1,1,,,,,,,,,0,11,11,11,0,7,7,6,,,,,,,,,,,,,,,,,,,,,,,,,,,,,,,,,,,,,,,,,,,,,,,,,,,,,,,851.3106021050007,None,851.3106021050007,None,851.3106021050007,None,m,1,1.2363833689996682,852.8443255290003,None,852.8443255290003,None,852.8443255290003,None,854.1452486070011,None,854.1452486070011,None,854.1452486070011,None,854.1452486070011,None,,,,,,,,,,,,,,,,,,,,,,,,,,,,,,,,,,,,,,,,,,,,001,69,2020_Feb_04_1457,spring_faces,3.1.5,60.048433024454354,
,,,,,,,,,,,,,,,,,,,,,,,,,,,,,,,,,,,,,,,,,,,,,,,,,,,,,,,,,,,,,,,,,,,,,,,,,,,,,,,,,,,,,,,,,,,,,,,,,,,,,,,,,,,,,,,,856.1280569310002,None,space,4.3125648560017,861.1281455400022,None,,,,,,,,,,,,,,,,,,,,,,,,,,,,,,001,69,2020_Feb_04_1457,spring_faces,3.1.5,60.048433024454354,
condition files/Stage2_1.xlsx,,T5,B5,s,"['s', 'r']","['Stratego', 'Risk']","[-0.15, 0.5]","[0.15, 0.5]",1,1,,,,,,,,,,,,,,,,,0,0,0,0,0,0,0,0,,,,,,,,,,,,,,,,,,,,,,,,,,,,,,,,,,,,,,,,,,,,,,,865.4946322249998,None,865.4946322249998,None,865.4946322249998,None,s,1,1.291176386999723,867.0136062650017,None,867.0136062650017,None,867.0136062650017,None,868.3638629529996,None,868.3638629529996,None,868.3638629529996,None,868.3638629529996,None,,,,,,,,,,,,,,,861.1281455400022,None,,,,,,,,,,,,,,,,,,,,,,,,,,,,001,69,2020_Feb_04_1457,spring_faces,3.1.5,60.048433024454354,
condition files/Stage2_1.xlsx,,B2,T2,r,"['s', 'r']","['Stratego', 'Risk']","[-0.15, 0.5]","[0.15, 0.5]",1,1,,,,,,,,,,,,,,,,,0,0,0,0,0,1,1,3,,,,,,,,,,,,,,,,,,,,,,,,,,,,,,,,,,,,,,,,,,,,,,,870.3276630239998,None,870.3276630239998,None,870.3276630239998,None,r,1,0.7952298029995291,871.8614257299996,None,871.8614257299996,None,871.8614257299996,None,872.7283208760018,None,872.7283208760018,None,872.7283208760018,None,872.7283208760018,None,,,,,,,,,,,,,,,,,,,,,,,,,,,,,,,,,,,,,,,,,,,,001,69,2020_Feb_04_1457,spring_faces,3.1.5,60.048433024454354,
condition files/Stage2_1.xlsx,,B6,T6,r,"['s', 'r']","['Stratego', 'Risk']","[-0.15, 0.5]","[0.15, 0.5]",1,1,,,,,,,,,,,,,,,,,0,0,0,0,0,2,2,1,,,,,,,,,,,,,,,,,,,,,,,,,,,,,,,,,,,,,,,,,,,,,,,874.6779668449999,None,874.6779668449999,None,874.6779668449999,None,r,1,1.3577689710000413,876.211013316999,None,876.211013316999,None,876.211013316999,None,877.6279799660006,None,877.6279799660006,None,877.6279799660006,None,877.6279799660006,None,,,,,,,,,,,,,,,,,,,,,,,,,,,,,,,,,,,,,,,,,,,,001,69,2020_Feb_04_1457,spring_faces,3.1.5,60.048433024454354,
condition files/Stage2_1.xlsx,,T3,B3,s,"['s', 'r']","['Stratego', 'Risk']","[-0.15, 0.5]","[0.15, 0.5]",1,1,,,,,,,,,,,,,,,,,0,0,0,0,0,3,3,4,,,,,,,,,,,,,,,,,,,,,,,,,,,,,,,,,,,,,,,,,,,,,,,879.5945344819993,None,879.5945344819993,None,879.5945344819993,None,s,1,1.1616143389983336,881.1271512359999,None,881.1271512359999,None,881.1271512359999,None,882.3468593610014,None,882.3468593610014,None,882.3468593610014,None,882.3468593610014,None,,,,,,,,,,,,,,,,,,,,,,,,,,,,,,,,,,,,,,,,,,,,001,69,2020_Feb_04_1457,spring_faces,3.1.5,60.048433024454354,
condition files/Stage2_1.xlsx,,B4,T4,r,"['s', 'r']","['Stratego', 'Risk']","[-0.15, 0.5]","[0.15, 0.5]",1,1,,,,,,,,,,,,,,,,,0,0,0,0,0,4,4,5,,,,,,,,,,,,,,,,,,,,,,,,,,,,,,,,,,,,,,,,,,,,,,,884.3112226119993,None,884.3112226119993,None,884.3112226119993,None,r,1,0.9727116990034119,885.8439951399996,None,885.8439951399996,None,885.8439951399996,None,886.8795946930004,None,886.8795946930004,None,886.8795946930004,None,886.8795946930004,None,,,,,,,,,,,,,,,,,,,,,,,,,,,,,,,,,,,,,,,,,,,,001,69,2020_Feb_04_1457,spring_faces,3.1.5,60.048433024454354,
condition files/Stage2_1.xlsx,,T1,B1,s,"['s', 'r']","['Stratego', 'Risk']","[-0.15, 0.5]","[0.15, 0.5]",1,1,,,,,,,,,,,,,,,,,0,0,0,0,0,5,5,2,,,,,,,,,,,,,,,,,,,,,,,,,,,,,,,,,,,,,,,,,,,,,,,888.8443952380003,None,888.8443952380003,None,888.8443952380003,None,r,0,0.8221226749992638,890.3786415430004,None,890.3786415430004,None,890.3786415430004,None,891.2775214360008,None,891.2775214360008,None,891.2775214360008,None,891.2775214360008,None,,,,,,,,,,,,,,,,,,,,,,,,,,,,,,,,,,,,,,,,,,,,001,69,2020_Feb_04_1457,spring_faces,3.1.5,60.048433024454354,
condition files/Stage2_2.xlsx,,T2,B2,r,"['s', 'r']","['Stratego', 'Risk']","[-0.15, 0.5]","[0.15, 0.5]",1,1,,,,,,,,,,,,,,,,,0,1,1,1,0,0,0,3,,,,,,,,,,,,,,,,,,,,,,,,,,,,,,,,,,,,,,,,,,,,,,,893.2448896130009,None,893.2448896130009,None,893.2448896130009,None,s,0,1.3985916349993204,894.778127163001,None,894.778127163001,None,894.778127163001,None,896.2305104570005,None,896.2305104570005,None,896.2305104570005,None,896.2305104570005,None,,,,,,,,,,,,,,,,,,,,,,,,,,,,,,,,,,,,,,,,,,,,001,69,2020_Feb_04_1457,spring_faces,3.1.5,60.048433024454354,
condition files/Stage2_2.xlsx,,B3,T3,s,"['s', 'r']","['Stratego', 'Risk']","[-0.15, 0.5]","[0.15, 0.5]",1,1,,,,,,,,,,,,,,,,,0,1,1,1,0,1,1,4,,,,,,,,,,,,,,,,,,,,,,,,,,,,,,,,,,,,,,,,,,,,,,,898.1942988650007,None,898.1942988650007,None,898.1942988650007,None,r,0,0.5118451589987671,899.7448555869996,None,899.7448555869996,None,899.7448555869996,None,900.3119885359993,None,900.3119885359993,None,900.3119885359993,None,900.3119885359993,None,,,,,,,,,,,,,,,,,,,,,,,,,,,,,,,,,,,,,,,,,,,,001,69,2020_Feb_04_1457,spring_faces,3.1.5,60.048433024454354,
condition files/Stage2_2.xlsx,,B5,T5,s,"['s', 'r']","['Stratego', 'Risk']","[-0.15, 0.5]","[0.15, 0.5]",1,1,,,,,,,,,,,,,,,,,0,1,1,1,0,2,2,0,,,,,,,,,,,,,,,,,,,,,,,,,,,,,,,,,,,,,,,,,,,,,,,902.2773043289999,None,902.2773043289999,None,902.2773043289999,None,s,1,0.5260675089994038,903.8106944120009,None,903.8106944120009,None,903.8106944120009,None,904.3949440249999,None,904.3949440249999,None,904.3949440249999,None,904.3949440249999,None,,,,,,,,,,,,,,,,,,,,,,,,,,,,,,,,,,,,,,,,,,,,001,69,2020_Feb_04_1457,spring_faces,3.1.5,60.048433024454354,
condition files/Stage2_2.xlsx,,T6,B6,r,"['s', 'r']","['Stratego', 'Risk']","[-0.15, 0.5]","[0.15, 0.5]",1,1,,,,,,,,,,,,,,,,,0,1,1,1,0,3,3,1,,,,,,,,,,,,,,,,,,,,,,,,,,,,,,,,,,,,,,,,,,,,,,,906.3613153660008,None,906.3613153660008,None,906.3613153660008,None,r,1,0.5543380999988585,907.8943840479988,None,907.8943840479988,None,907.8943840479988,None,908.5109982040012,None,908.5109982040012,None,908.5109982040012,None,908.5109982040012,None,,,,,,,,,,,,,,,,,,,,,,,,,,,,,,,,,,,,,,,,,,,,001,69,2020_Feb_04_1457,spring_faces,3.1.5,60.048433024454354,
condition files/Stage2_2.xlsx,,B1,T1,s,"['s', 'r']","['Stratego', 'Risk']","[-0.15, 0.5]","[0.15, 0.5]",1,1,,,,,,,,,,,,,,,,,0,1,1,1,0,4,4,2,,,,,,,,,,,,,,,,,,,,,,,,,,,,,,,,,,,,,,,,,,,,,,,910.4776912099987,None,910.4776912099987,None,910.4776912099987,None,r,0,0.7571687370000291,912.0275988510002,None,912.0275988510002,None,912.0275988510002,None,912.8616068920019,None,912.8616068920019,None,912.8616068920019,None,912.8616068920019,None,,,,,,,,,,,,,,,,,,,,,,,,,,,,,,,,,,,,,,,,,,,,001,69,2020_Feb_04_1457,spring_faces,3.1.5,60.048433024454354,
condition files/Stage2_2.xlsx,,T4,B4,r,"['s', 'r']","['Stratego', 'Risk']","[-0.15, 0.5]","[0.15, 0.5]",1,1,,,,,,,,,,,,,,,,,0,1,1,1,0,5,5,5,,,,,,,,,,,,,,,,,,,,,,,,,,,,,,,,,,,,,,,,,,,,,,,914.8112598469997,None,914.8112598469997,None,914.8112598469997,None,r,1,0.8391510940018634,916.3456355460003,None,916.3456355460003,None,916.3456355460003,None,917.2454267880021,None,917.2454267880021,None,917.2454267880021,None,917.2454267880021,None,,,,,,,,,,,,,,,,,,,,,,,,,,,,,,,,,,,,,,,,,,,,001,69,2020_Feb_04_1457,spring_faces,3.1.5,60.048433024454354,
condition files/Stage2_1.xlsx,,B6,T6,r,"['s', 'r']","['Stratego', 'Risk']","[-0.15, 0.5]","[0.15, 0.5]",1,1,,,,,,,,,,,,,,,,,0,2,2,2,0,0,0,1,,,,,,,,,,,,,,,,,,,,,,,,,,,,,,,,,,,,,,,,,,,,,,,919.227712791002,None,919.227712791002,None,919.227712791002,None,s,0,0.6156247229992005,920.7610901000007,None,920.7610901000007,None,920.7610901000007,None,921.4274888270011,None,921.4274888270011,None,921.4274888270011,None,921.4274888270011,None,,,,,,,,,,,,,,,,,,,,,,,,,,,,,,,,,,,,,,,,,,,,001,69,2020_Feb_04_1457,spring_faces,3.1.5,60.048433024454354,
condition files/Stage2_1.xlsx,,T3,B3,s,"['s', 'r']","['Stratego', 'Risk']","[-0.15, 0.5]","[0.15, 0.5]",1,1,,,,,,,,,,,,,,,,,0,2,2,2,0,1,1,4,,,,,,,,,,,,,,,,,,,,,,,,,,,,,,,,,,,,,,,,,,,,,,,923.3943784080002,None,923.3943784080002,None,923.3943784080002,None,r,0,1.5187028149994148,924.9300054090018,None,924.9300054090018,None,924.9300054090018,None,926.5273649240007,None,926.5273649240007,None,926.5273649240007,None,926.5273649240007,None,,,,,,,,,,,,,,,,,,,,,,,,,,,,,,,,,,,,,,,,,,,,001,69,2020_Feb_04_1457,spring_faces,3.1.5,60.048433024454354,
condition files/Stage2_1.xlsx,,T1,B1,s,"['s', 'r']","['Stratego', 'Risk']","[-0.15, 0.5]","[0.15, 0.5]",1,1,,,,,,,,,,,,,,,,,0,2,2,2,0,2,2,2,,,,,,,,,,,,,,,,,,,,,,,,,,,,,,,,,,,,,,,,,,,,,,,928.4775385460016,None,928.4775385460016,None,928.4775385460016,None,s,1,1.2536852120028925,930.0110236620021,None,930.0110236620021,None,930.0110236620021,None,931.328171784,None,931.328171784,None,931.328171784,None,931.328171784,None,,,,,,,,,,,,,,,,,,,,,,,,,,,,,,,,,,,,,,,,,,,,001,69,2020_Feb_04_1457,spring_faces,3.1.5,60.048433024454354,
condition files/Stage2_1.xlsx,,B2,T2,r,"['s', 'r']","['Stratego', 'Risk']","[-0.15, 0.5]","[0.15, 0.5]",1,1,,,,,,,,,,,,,,,,,0,2,2,2,0,3,3,3,,,,,,,,,,,,,,,,,,,,,,,,,,,,,,,,,,,,,,,,,,,,,,,933.294421087001,None,933.294421087001,None,933.294421087001,None,r,1,0.772632985997916,934.8281185790001,None,934.8281185790001,None,934.8281185790001,None,935.6622303900003,None,935.6622303900003,None,935.6622303900003,None,935.6622303900003,None,,,,,,,,,,,,,,,,,,,,,,,,,,,,,,,,,,,,,,,,,,,,001,69,2020_Feb_04_1457,spring_faces,3.1.5,60.048433024454354,
condition files/Stage2_1.xlsx,,B4,T4,r,"['s', 'r']","['Stratego', 'Risk']","[-0.15, 0.5]","[0.15, 0.5]",1,1,,,,,,,,,,,,,,,,,0,2,2,2,0,4,4,5,,,,,,,,,,,,,,,,,,,,,,,,,,,,,,,,,,,,,,,,,,,,,,,937.627909081999,None,937.627909081999,None,937.627909081999,None,s,0,0.9352405239988002,939.1614696069992,None,939.1614696069992,None,939.1614696069992,None,940.1608072130002,None,940.1608072130002,None,940.1608072130002,None,940.1608072130002,None,,,,,,,,,,,,,,,,,,,,,,,,,,,,,,,,,,,,,,,,,,,,001,69,2020_Feb_04_1457,spring_faces,3.1.5,60.048433024454354,
condition files/Stage2_1.xlsx,,T5,B5,s,"['s', 'r']","['Stratego', 'Risk']","[-0.15, 0.5]","[0.15, 0.5]",1,1,,,,,,,,,,,,,,,,,0,2,2,2,0,5,5,0,,,,,,,,,,,,,,,,,,,,,,,,,,,,,,,,,,,,,,,,,,,,,,,942.1279663269997,None,942.1279663269997,None,942.1279663269997,None,r,0,0.386906061998161,943.6617954790017,None,943.6617954790017,None,943.6617954790017,None,944.1134435810018,None,944.1134435810018,None,944.1134435810018,None,944.1134435810018,None,,,,,,,,,,,,,,,,,,,,,,,,,,,,,,,,,,,,,,,,,,,,001,69,2020_Feb_04_1457,spring_faces,3.1.5,60.048433024454354,
condition files/Stage2_2.xlsx,,T4,B4,r,"['s', 'r']","['Stratego', 'Risk']","[-0.15, 0.5]","[0.15, 0.5]",1,1,,,,,,,,,,,,,,,,,0,3,3,3,0,0,0,5,,,,,,,,,,,,,,,,,,,,,,,,,,,,,,,,,,,,,,,,,,,,,,,946.0941463890013,None,946.0941463890013,None,946.0941463890013,None,s,0,2.4502107110020006,947.630528706999,None,947.630528706999,None,947.630528706999,None,950.1621563469998,None,950.1621563469998,None,950.1621563469998,None,950.1621563469998,None,,,,,,,,,,,,,,,,,,,,,,,,,,,,,,,,,,,,,,,,,,,,001,69,2020_Feb_04_1457,spring_faces,3.1.5,60.048433024454354,
condition files/Stage2_2.xlsx,,B1,T1,s,"['s', 'r']","['Stratego', 'Risk']","[-0.15, 0.5]","[0.15, 0.5]",1,1,,,,,,,,,,,,,,,,,0,3,3,3,0,1,1,2,,,,,,,,,,,,,,,,,,,,,,,,,,,,,,,,,,,,,,,,,,,,,,,952.1112319919994,None,952.1112319919994,None,952.1112319919994,None,r,0,1.2833574059986859,953.6453282830007,None,953.6453282830007,None,953.6453282830007,None,954.9952774180019,None,954.9952774180019,None,954.9952774180019,None,954.9952774180019,None,,,,,,,,,,,,,,,,,,,,,,,,,,,,,,,,,,,,,,,,,,,,001,69,2020_Feb_04_1457,spring_faces,3.1.5,60.048433024454354,
condition files/Stage2_2.xlsx,,B3,T3,s,"['s', 'r']","['Stratego', 'Risk']","[-0.15, 0.5]","[0.15, 0.5]",1,1,,,,,,,,,,,,,,,,,0,3,3,3,0,2,2,4,,,,,,,,,,,,,,,,,,,,,,,,,,,,,,,,,,,,,,,,,,,,,,,956.9616714010008,None,956.9616714010008,None,956.9616714010008,None,s,1,0.4663724159981939,958.4943379690012,None,958.4943379690012,None,958.4943379690012,None,959.0108121550002,None,959.0108121550002,None,959.0108121550002,None,959.0108121550002,None,,,,,,,,,,,,,,,,,,,,,,,,,,,,,,,,,,,,,,,,,,,,001,69,2020_Feb_04_1457,spring_faces,3.1.5,60.048433024454354,
condition files/Stage2_2.xlsx,,T6,B6,r,"['s', 'r']","['Stratego', 'Risk']","[-0.15, 0.5]","[0.15, 0.5]",1,1,,,,,,,,,,,,,,,,,0,3,3,3,0,3,3,1,,,,,,,,,,,,,,,,,,,,,,,,,,,,,,,,,,,,,,,,,,,,,,,960.9777343470014,None,960.9777343470014,None,960.9777343470014,None,s,0,0.5296699110003829,962.5110662650004,None,962.5110662650004,None,962.5110662650004,None,963.0963255850002,None,963.0963255850002,None,963.0963255850002,None,963.0963255850002,None,,,,,,,,,,,,,,,,,,,,,,,,,,,,,,,,,,,,,,,,,,,,001,69,2020_Feb_04_1457,spring_faces,3.1.5,60.048433024454354,
condition files/Stage2_2.xlsx,,T2,B2,r,"['s', 'r']","['Stratego', 'Risk']","[-0.15, 0.5]","[0.15, 0.5]",1,1,,,,,,,,,,,,,,,,,0,3,3,3,0,4,4,3,,,,,,,,,,,,,,,,,,,,,,,,,,,,,,,,,,,,,,,,,,,,,,,965.0613097770001,None,965.0613097770001,None,965.0613097770001,None,r,1,1.2774284949991852,966.6113247360008,None,966.6113247360008,None,966.6113247360008,None,967.9443842210021,None,967.9443842210021,None,967.9443842210021,None,967.9443842210021,None,,,,,,,,,,,,,,,,,,,,,,,,,,,,,,,,,,,,,,,,,,,,001,69,2020_Feb_04_1457,spring_faces,3.1.5,60.048433024454354,
condition files/Stage2_2.xlsx,,B5,T5,s,"['s', 'r']","['Stratego', 'Risk']","[-0.15, 0.5]","[0.15, 0.5]",1,1,,,,,,,,,,,,,,,,,0,3,3,3,0,5,5,0,,,,,,,,,,,,,,,,,,,,,,,,,,,,,,,,,,,,,,,,,,,,,,,969.9111429320001,None,969.9111429320001,None,969.9111429320001,None,s,1,2.1404959950014018,971.4442824430007,None,971.4442824430007,None,971.4442824430007,None,973.645276047002,None,973.645276047002,None,973.645276047002,None,973.645276047002,None,,,,,,,,,,,,,,,,,,,,,,,,,,,,,,,,,,,,,,,,,,,,001,69,2020_Feb_04_1457,spring_faces,3.1.5,60.048433024454354,
condition files/Stage2_1.xlsx,,T1,B1,s,"['s', 'r']","['Stratego', 'Risk']","[-0.15, 0.5]","[0.15, 0.5]",1,1,,,,,,,,,,,,,,,,,0,4,4,4,0,0,0,2,,,,,,,,,,,,,,,,,,,,,,,,,,,,,,,,,,,,,,,,,,,,,,,975.6276589160007,None,975.6276589160007,None,975.6276589160007,None,r,0,0.6311931569980516,977.1615268509995,None,977.1615268509995,None,977.1615268509995,None,977.8441887260014,None,977.8441887260014,None,977.8441887260014,None,977.8441887260014,None,,,,,,,,,,,,,,,,,,,,,,,,,,,,,,,,,,,,,,,,,,,,001,69,2020_Feb_04_1457,spring_faces,3.1.5,60.048433024454354,
condition files/Stage2_1.xlsx,,B4,T4,r,"['s', 'r']","['Stratego', 'Risk']","[-0.15, 0.5]","[0.15, 0.5]",1,1,,,,,,,,,,,,,,,,,0,4,4,4,0,1,1,5,,,,,,,,,,,,,,,,,,,,,,,,,,,,,,,,,,,,,,,,,,,,,,,979.8111642090007,None,979.8111642090007,None,979.8111642090007,None,s,0,2.031120698997256,981.3615456760017,None,981.3615456760017,None,981.3615456760017,None,983.4615121850002,None,983.4615121850002,None,983.4615121850002,None,983.4615121850002,None,,,,,,,,,,,,,,,,,,,,,,,,,,,,,,,,,,,,,,,,,,,,001,69,2020_Feb_04_1457,spring_faces,3.1.5,60.048433024454354,
condition files/Stage2_1.xlsx,,T5,B5,s,"['s', 'r']","['Stratego', 'Risk']","[-0.15, 0.5]","[0.15, 0.5]",1,1,,,,,,,,,,,,,,,,,0,4,4,4,0,2,2,0,,,,,,,,,,,,,,,,,,,,,,,,,,,,,,,,,,,,,,,,,,,,,,,985.4113574639996,None,985.4113574639996,None,985.4113574639996,None,r,0,0.989672502000758,986.9471009730005,None,986.9471009730005,None,986.9471009730005,None,987.9958607549997,None,987.9958607549997,None,987.9958607549997,None,987.9958607549997,None,,,,,,,,,,,,,,,,,,,,,,,,,,,,,,,,,,,,,,,,,,,,001,69,2020_Feb_04_1457,spring_faces,3.1.5,60.048433024454354,
