condsFile,subStage,cue1,cue2,correct,responseKeys,responseNames,cue1Position,cue2Position,cue1Opacity,cue2Opacity,stageLoop0.thisRepN,stageLoop0.thisTrialN,stageLoop0.thisN,stageLoop0.thisIndex,blockLoop0.thisRepN,blockLoop0.thisTrialN,blockLoop0.thisN,blockLoop0.thisIndex,stage1Loop.thisRepN,stage1Loop.thisTrialN,stage1Loop.thisN,stage1Loop.thisIndex,blockLoop1.thisRepN,blockLoop1.thisTrialN,blockLoop1.thisN,blockLoop1.thisIndex,stage2Loop.thisRepN,stage2Loop.thisTrialN,stage2Loop.thisN,stage2Loop.thisIndex,blockLoop2.thisRepN,blockLoop2.thisTrialN,blockLoop2.thisN,blockLoop2.thisIndex,testLoop.thisRepN,testLoop.thisTrialN,testLoop.thisN,testLoop.thisIndex,blockLoopTest.thisRepN,blockLoopTest.thisTrialN,blockLoopTest.thisN,blockLoopTest.thisIndex,cuePics,id_instr_text.started,id_instr_text.stopped,space_to_continue_2.started,space_to_continue_2.stopped,end_instructions_resp_3.keys,end_instructions_resp_3.rt,end_instructions_resp_3.started,end_instructions_resp_3.stopped,id_input_instr.started,id_input_instr.stopped,id_input_rect.started,id_input_rect.stopped,id_input_resp.keys,id_input_resp.rt,id_input_resp.started,id_input_resp.stopped,sonaID,id_input_text.started,id_input_text.stopped,final_text.started,final_text.stopped,instructions.started,instructions.stopped,end_instructions_resp.keys,end_instructions_resp.rt,end_instructions_resp.started,end_instructions_resp.stopped,space_to_continue.started,space_to_continue.stopped,instructions_stage0.started,instructions_stage0.stopped,end_instructions_resp_stage0.keys,end_instructions_resp_stage0.rt,end_instructions_resp_stage0.started,end_instructions_resp_stage0.stopped,space_to_continue_stage0.started,space_to_continue_stage0.stopped,text.started,text.stopped,resp_text1.started,resp_text1.stopped,resp_text2.started,resp_text2.stopped,trial_resp.keys,trial_resp.corr,trial_resp.rt,trial_resp.started,trial_resp.stopped,cue1Image.started,cue1Image.stopped,cue2Image.started,cue2Image.stopped,cue1Image_fb.started,cue1Image_fb.stopped,cue2Image_fb.started,cue2Image_fb.stopped,fb_text_answer.started,fb_text_answer.stopped,feedback_image.started,feedback_image.stopped,instructions_stage1.started,instructions_stage1.stopped,end_instructions_resp_stage1.keys,end_instructions_resp_stage1.rt,end_instructions_resp_stage1.started,end_instructions_resp_stage1.stopped,space_to_continue_stage1.started,space_to_continue_stage1.stopped,instructions_2.started,instructions_2.stopped,end_instructions_resp_2.keys,end_instructions_resp_2.rt,end_instructions_resp_2.started,end_instructions_resp_2.stopped,press_space_to_continue_stage2.started,press_space_to_continue_stage2.stopped,instructions_testStage1.started,instructions_testStage1.stopped,end_instructions_resp_test1.keys,end_instructions_resp_test1.rt,end_instructions_resp_test1.started,end_instructions_resp_test1.stopped,press_space_to_continue_test1.started,press_space_to_continue_test1.stopped,cue1Image_testChoice.started,cue1Image_testChoice.stopped,cue2Image_testChoice.started,cue2Image_testChoice.stopped,test_resp.keys,test_resp.corr,test_resp.rt,test_resp.started,test_resp.stopped,cue1Image_testConf.started,cue1Image_testConf.stopped,cue2Image_testConf.started,cue2Image_testConf.stopped,conf_reminder.started,conf_reminder.stopped,conf_rating.response,conf_rating.rt,conf_rating.started,conf_rating.stopped,session,participant,date,expName,psychopyVersion,frameRate,
,,,,,,,,,,,,,,,,,,,,,,,,,,,,,,,,,,,,,,,,,,,"{'none': 'pictures/20M_AN_C.png', 'alpha': 'pictures/SHINEd_pepper.png', 'beta': 'pictures/SHINEd_apple.png', 'theta': 'pictures/SHINEd_melon.png', 'phi': 'pictures/SHINEd_pear.png', 'T1': 'pictures/31M_AN_C.png', 'T2': 'pictures/26M_AN_C.png', 'T3': 'pictures/20M_AN_C.png', 'T4': 'pictures/23M_AN_C.png', 'T5': 'pictures/22M_AN_C.png', 'T6': 'pictures/37M_AN_C.png', 'B1': 'pictures/36M_NE_C.png', 'B2': 'pictures/32M_NE_C.png', 'B3': 'pictures/38M_NE_C.png', 'B4': 'pictures/25M_NE_C.png', 'B5': 'pictures/34M_NE_C.png', 'B6': 'pictures/33M_NE_C.png'}",812.5973617469999,None,817.5808442450007,None,space,9.795604221000758,817.5808442450007,None,,,,,,,,,,,,,,,,,,,,,,,,,,,,,,,,,,,,,,,,,,,,,,,,,,,,,,,,,,,,,,,,,,,,,,,,,,,,,,,,,,,,,,,,,,,,,,,,001,6,2020_Jan_28_1030,spring_faces,3.1.5,59.94195029701062,
,,,,,,,,,,,,,,,,,,,,,,,,,,,,,,,,,,,,,,,,,,,,,,,,,,,,827.7473650750007,None,827.7473650750007,None,"['0', '7', '2', '0', 'c', 'h', 'l', 'a', 'k']","[4.2690317820006385, 4.781073269000444, 7.373092528000598, 7.805094774000281, 14.541146365000714, 14.82905160900009, 22.12515443400025, 22.397025956000107, 22.733078277999994]",827.7473650750007,None,,,,,,,,,,,,,,,,,,,,,,,,,,,,,,,,,,,,,,,,,,,,,,,,,,,,,,,,,,,,,,,,,,,,,,,,,,,,,,,,,,,,,,,,001,6,2020_Jan_28_1030,spring_faces,3.1.5,59.94195029701062,
,,,,,,,,,,,,,,,,,,,,,,,,,,,,,,,,,,,,,,,,,,,,,,,,,,,,,,,,,,,,0720chlak,827.7473650750007,None,827.7473650750007,None,855.547646004,None,space,4.172962362000362,860.547551832,None,,,,,,,,,,,,,,,,,,,,,,,,,,,,,,,,,,,,,,,,,,,,,,,,,,,,,,,,,,,,,,,,,,,,,,,,,,,,,001,6,2020_Jan_28_1030,spring_faces,3.1.5,59.94195029701062,
,,,,,,,,,,,,,,,,,,,,,,,,,,,,,,,,,,,,,,,,,,,,,,,,,,,,,,,,,,,,,,,,,,,,,,,860.547551832,None,864.7642240220002,None,space,4.364948374999585,869.7474474320006,None,,,,,,,,,,,,,,,,,,,,,,,,,,,,,,,,,,,,,,,,,,,,,,,,,,,,,,,,,,,,,,,,,,,,,001,6,2020_Jan_28_1030,spring_faces,3.1.5,59.94195029701062,
condition files/Stage0a.xlsx,0a,beta,none,g,"['h', 'g']","['Chess', 'Go']","[0, 0.5]","[0, 0]",1,0,0,0,0,0,0,0,0,1,,,,,,,,,,,,,,,,,,,,,,,,,,,,,,,,,,,,,,,,,,,,,,,,,,,,,,,,,,,,,869.7474474320006,None,874.1642544050001,None,874.1642544050001,None,874.1642544050001,None,h,0,2.429414115000327,875.7469857030001,None,875.7469857030001,None,875.7469857030001,None,878.2475662860006,None,878.2475662860006,None,878.2475662860006,None,878.2475662860006,None,,,,,,,,,,,,,,,,,,,,,,,,,,,,,,,,,,,,,,,,,,,,001,6,2020_Jan_28_1030,spring_faces,3.1.5,59.94195029701062,
condition files/Stage0a.xlsx,0a,alpha,none,h,"['h', 'g']","['Chess', 'Go']","[0, 0.5]","[0, 0]",1,0,0,0,0,0,0,1,1,0,,,,,,,,,,,,,,,,,,,,,,,,,,,,,,,,,,,,,,,,,,,,,,,,,,,,,,,,,,,,,,,880.1971739119999,None,880.1971739119999,None,880.1971739119999,None,g,0,1.020887218000098,881.747553102,None,881.747553102,None,881.747553102,None,882.8305567300004,None,882.8305567300004,None,882.8305567300004,None,882.8305567300004,None,,,,,,,,,,,,,,,,,,,,,,,,,,,,,,,,,,,,,,,,,,,,001,6,2020_Jan_28_1030,spring_faces,3.1.5,59.94195029701062,
condition files/Stage0a.xlsx,0a,beta,none,g,"['h', 'g']","['Chess', 'Go']","[0, 0.5]","[0, 0]",1,0,0,1,1,1,0,0,0,1,,,,,,,,,,,,,,,,,,,,,,,,,,,,,,,,,,,,,,,,,,,,,,,,,,,,,,,,,,,,,,,884.814093211,None,884.814093211,None,884.814093211,None,g,1,1.4455868239992924,886.3308486720007,None,886.3308486720007,None,886.3308486720007,None,887.8302900730005,None,887.8302900730005,None,887.8302900730005,None,887.8302900730005,None,,,,,,,,,,,,,,,,,,,,,,,,,,,,,,,,,,,,,,,,,,,,001,6,2020_Jan_28_1030,spring_faces,3.1.5,59.94195029701062,
condition files/Stage0a.xlsx,0a,alpha,none,h,"['h', 'g']","['Chess', 'Go']","[0, 0.5]","[0, 0]",1,0,0,1,1,1,0,1,1,0,,,,,,,,,,,,,,,,,,,,,,,,,,,,,,,,,,,,,,,,,,,,,,,,,,,,,,,,,,,,,,,889.7973997560002,None,889.7973997560002,None,889.7973997560002,None,h,1,0.5895647180004744,891.3308468940004,None,891.3308468940004,None,891.3308468940004,None,891.9806311530001,None,891.9806311530001,None,891.9806311530001,None,891.9806311530001,None,,,,,,,,,,,,,,,,,,,,,,,,,,,,,,,,,,,,,,,,,,,,001,6,2020_Jan_28_1030,spring_faces,3.1.5,59.94195029701062,
condition files/Stage0a.xlsx,0a,alpha,none,h,"['h', 'g']","['Chess', 'Go']","[0, 0.5]","[0, 0]",1,0,0,2,2,2,0,0,0,0,,,,,,,,,,,,,,,,,,,,,,,,,,,,,,,,,,,,,,,,,,,,,,,,,,,,,,,,,,,,,,,893.9636865050006,None,893.9636865050006,None,893.9636865050006,None,h,1,0.823629802999676,895.4808503909999,None,895.4808503909999,None,895.4808503909999,None,896.3636005580001,None,896.3636005580001,None,896.3636005580001,None,896.3636005580001,None,,,,,,,,,,,,,,,,,,,,,,,,,,,,,,,,,,,,,,,,,,,,001,6,2020_Jan_28_1030,spring_faces,3.1.5,59.94195029701062,
condition files/Stage0a.xlsx,0a,beta,none,g,"['h', 'g']","['Chess', 'Go']","[0, 0.5]","[0, 0]",1,0,0,2,2,2,0,1,1,1,,,,,,,,,,,,,,,,,,,,,,,,,,,,,,,,,,,,,,,,,,,,,,,,,,,,,,,,,,,,,,,898.3306073829999,None,898.3306073829999,None,898.3306073829999,None,g,1,0.5041015879996849,899.8643351440005,None,899.8643351440005,None,899.8643351440005,None,900.4304593040006,None,900.4304593040006,None,900.4304593040006,None,900.4304593040006,None,,,,,,,,,,,,,,,,,,,,,,,,,,,,,,,,,,,,,,,,,,,,001,6,2020_Jan_28_1030,spring_faces,3.1.5,59.94195029701062,
condition files/Stage0a.xlsx,0a,beta,none,g,"['h', 'g']","['Chess', 'Go']","[0, 0.5]","[0, 0]",1,0,0,3,3,3,0,0,0,1,,,,,,,,,,,,,,,,,,,,,,,,,,,,,,,,,,,,,,,,,,,,,,,,,,,,,,,,,,,,,,,902.4141005750007,None,902.4141005750007,None,902.4141005750007,None,g,1,0.8535343900002772,903.9309068230004,None,903.9309068230004,None,903.9309068230004,None,904.8476454470001,None,904.8476454470001,None,904.8476454470001,None,904.8476454470001,None,,,,,,,,,,,,,,,,,,,,,,,,,,,,,,,,,,,,,,,,,,,,001,6,2020_Jan_28_1030,spring_faces,3.1.5,59.94195029701062,
condition files/Stage0a.xlsx,0a,alpha,none,h,"['h', 'g']","['Chess', 'Go']","[0, 0.5]","[0, 0]",1,0,0,3,3,3,0,1,1,0,,,,,,,,,,,,,,,,,,,,,,,,,,,,,,,,,,,,,,,,,,,,,,,,,,,,,,,,,,,,,,,906.8139633740002,None,906.8139633740002,None,906.8139633740002,None,h,1,0.7253254239994931,908.3471895580005,None,908.3471895580005,None,908.3471895580005,None,909.1303508150004,None,909.1303508150004,None,909.1303508150004,None,909.1303508150004,None,,,,,,,,,,,,,,,,,,,,,,,,,,,,,,,,,,,,,,,,,,,,001,6,2020_Jan_28_1030,spring_faces,3.1.5,59.94195029701062,
condition files/Stage0a.xlsx,0a,beta,none,g,"['h', 'g']","['Chess', 'Go']","[0, 0.5]","[0, 0]",1,0,0,4,4,4,0,0,0,1,,,,,,,,,,,,,,,,,,,,,,,,,,,,,,,,,,,,,,,,,,,,,,,,,,,,,,,,,,,,,,,911.1138580269999,None,911.1138580269999,None,911.1138580269999,None,g,1,0.5695672550000381,912.6468890450005,None,912.6468890450005,None,912.6468890450005,None,913.2805348030006,None,913.2805348030006,None,913.2805348030006,None,913.2805348030006,None,,,,,,,,,,,,,,,,,,,,,,,,,,,,,,,,,,,,,,,,,,,,001,6,2020_Jan_28_1030,spring_faces,3.1.5,59.94195029701062,
condition files/Stage0a.xlsx,0a,alpha,none,h,"['h', 'g']","['Chess', 'Go']","[0, 0.5]","[0, 0]",1,0,0,4,4,4,0,1,1,0,,,,,,,,,,,,,,,,,,,,,,,,,,,,,,,,,,,,,,,,,,,,,,,,,,,,,,,,,,,,,,,915.2473463240003,None,915.2473463240003,None,915.2473463240003,None,h,1,0.38745219799966435,916.7809721890007,None,916.7809721890007,None,916.7809721890007,None,917.2305612730006,None,917.2305612730006,None,917.2305612730006,None,917.2305612730006,None,,,,,,,,,,,,,,,,,,,,,,,,,,,,,,,,,,,,,,,,,,,,001,6,2020_Jan_28_1030,spring_faces,3.1.5,59.94195029701062,
condition files/Stage0a.xlsx,0a,beta,none,g,"['h', 'g']","['Chess', 'Go']","[0, 0.5]","[0, 0]",1,0,0,5,5,5,0,0,0,1,,,,,,,,,,,,,,,,,,,,,,,,,,,,,,,,,,,,,,,,,,,,,,,,,,,,,,,,,,,,,,,919.2136427080004,None,919.2136427080004,None,919.2136427080004,None,g,1,0.8361928339991209,920.7482598020006,None,920.7482598020006,None,920.7482598020006,None,921.6472839490007,None,921.6472839490007,None,921.6472839490007,None,921.6472839490007,None,,,,,,,,,,,,,,,,,,,,,,,,,,,,,,,,,,,,,,,,,,,,001,6,2020_Jan_28_1030,spring_faces,3.1.5,59.94195029701062,
condition files/Stage0a.xlsx,0a,alpha,none,h,"['h', 'g']","['Chess', 'Go']","[0, 0.5]","[0, 0]",1,0,0,5,5,5,0,1,1,0,,,,,,,,,,,,,,,,,,,,,,,,,,,,,,,,,,,,,,,,,,,,,,,,,,,,,,,,,,,,,,,923.6138461710007,None,923.6138461710007,None,923.6138461710007,None,h,1,0.5009397300000273,925.1474413440001,None,925.1474413440001,None,925.1474413440001,None,925.7138318550005,None,925.7138318550005,None,925.7138318550005,None,925.7138318550005,None,,,,,,,,,,,,,,,,,,,,,,,,,,,,,,,,,,,,,,,,,,,,001,6,2020_Jan_28_1030,spring_faces,3.1.5,59.94195029701062,
condition files/Stage0b_1.xlsx,0b,none,beta,g,"['h', 'g']","['Chess', 'Go']","[-0.15, 0.5]","[0.15, 0.5]",0,1,0,6,6,6,0,0,0,1,,,,,,,,,,,,,,,,,,,,,,,,,,,,,,,,,,,,,,,,,,,,,,,,,,,,,,,,,,,,,,,927.6971059630005,None,927.6971059630005,None,927.6971059630005,None,g,1,0.8813821849998931,929.2470565000003,None,929.2470565000003,None,929.2470565000003,None,930.1976558900005,None,930.1976558900005,None,930.1976558900005,None,930.1976558900005,None,,,,,,,,,,,,,,,,,,,,,,,,,,,,,,,,,,,,,,,,,,,,001,6,2020_Jan_28_1030,spring_faces,3.1.5,59.94195029701062,
condition files/Stage0b_1.xlsx,0b,alpha,none,h,"['h', 'g']","['Chess', 'Go']","[-0.15, 0.5]","[0.15, 0.5]",1,0,0,6,6,6,0,1,1,0,,,,,,,,,,,,,,,,,,,,,,,,,,,,,,,,,,,,,,,,,,,,,,,,,,,,,,,,,,,,,,,932.147389144,None,932.147389144,None,932.147389144,None,h,1,0.5859861349999846,933.68652922,None,933.68652922,None,933.68652922,None,934.3342838610006,None,934.3342838610006,None,934.3342838610006,None,934.3342838610006,None,,,,,,,,,,,,,,,,,,,,,,,,,,,,,,,,,,,,,,,,,,,,001,6,2020_Jan_28_1030,spring_faces,3.1.5,59.94195029701062,
condition files/Stage0b_2.xlsx,0b,none,alpha,h,"['h', 'g']","['Chess', 'Go']","[-0.15, 0.5]","[0.15, 0.5]",0,1,0,7,7,7,0,0,0,0,,,,,,,,,,,,,,,,,,,,,,,,,,,,,,,,,,,,,,,,,,,,,,,,,,,,,,,,,,,,,,,936.3135331090007,None,936.3135331090007,None,936.3135331090007,None,h,1,1.0650344799996674,937.8474202970001,None,937.8474202970001,None,937.8474202970001,None,938.9641331720004,None,938.9641331720004,None,938.9641331720004,None,938.9641331720004,None,,,,,,,,,,,,,,,,,,,,,,,,,,,,,,,,,,,,,,,,,,,,001,6,2020_Jan_28_1030,spring_faces,3.1.5,59.94195029701062,
condition files/Stage0b_2.xlsx,0b,beta,none,g,"['h', 'g']","['Chess', 'Go']","[-0.15, 0.5]","[0.15, 0.5]",1,0,0,7,7,7,0,1,1,1,,,,,,,,,,,,,,,,,,,,,,,,,,,,,,,,,,,,,,,,,,,,,,,,,,,,,,,,,,,,,,,940.9307394050002,None,940.9307394050002,None,940.9307394050002,None,g,1,0.6401655479994588,942.4643492550003,None,942.4643492550003,None,942.4643492550003,None,943.1640496830005,None,943.1640496830005,None,943.1640496830005,None,943.1640496830005,None,,,,,,,,,,,,,,,,,,,,,,,,,,,,,,,,,,,,,,,,,,,,001,6,2020_Jan_28_1030,spring_faces,3.1.5,59.94195029701062,
condition files/Stage0b_1.xlsx,0b,alpha,none,h,"['h', 'g']","['Chess', 'Go']","[-0.15, 0.5]","[0.15, 0.5]",1,0,0,8,8,8,0,0,0,0,,,,,,,,,,,,,,,,,,,,,,,,,,,,,,,,,,,,,,,,,,,,,,,,,,,,,,,,,,,,,,,945.147497643,None,945.147497643,None,945.147497643,None,h,1,0.6319264149997252,946.6805255469999,None,946.6805255469999,None,946.6805255469999,None,947.3640651180003,None,947.3640651180003,None,947.3640651180003,None,947.3640651180003,None,,,,,,,,,,,,,,,,,,,,,,,,,,,,,,,,,,,,,,,,,,,,001,6,2020_Jan_28_1030,spring_faces,3.1.5,59.94195029701062,
condition files/Stage0b_1.xlsx,0b,none,beta,g,"['h', 'g']","['Chess', 'Go']","[-0.15, 0.5]","[0.15, 0.5]",0,1,0,8,8,8,0,1,1,1,,,,,,,,,,,,,,,,,,,,,,,,,,,,,,,,,,,,,,,,,,,,,,,,,,,,,,,,,,,,,,,949.3306325180001,None,949.3306325180001,None,949.3306325180001,None,g,1,0.555111960999966,950.8694162900001,None,950.8694162900001,None,950.8694162900001,None,951.4843892480003,None,951.4843892480003,None,951.4843892480003,None,951.4843892480003,None,,,,,,,,,,,,,,,,,,,,,,,,,,,,,,,,,,,,,,,,,,,,001,6,2020_Jan_28_1030,spring_faces,3.1.5,59.94195029701062,
condition files/Stage0b_2.xlsx,0b,beta,none,g,"['h', 'g']","['Chess', 'Go']","[-0.15, 0.5]","[0.15, 0.5]",1,0,0,9,9,9,0,0,0,1,,,,,,,,,,,,,,,,,,,,,,,,,,,,,,,,,,,,,,,,,,,,,,,,,,,,,,,,,,,,,,,953.4640487910001,None,953.4640487910001,None,953.4640487910001,None,g,1,1.625779011999839,954.9987425100007,None,954.9987425100007,None,954.9987425100007,None,956.6803320469999,None,956.6803320469999,None,956.6803320469999,None,956.6803320469999,None,,,,,,,,,,,,,,,,,,,,,,,,,,,,,,,,,,,,,,,,,,,,001,6,2020_Jan_28_1030,spring_faces,3.1.5,59.94195029701062,
condition files/Stage0b_2.xlsx,0b,none,alpha,h,"['h', 'g']","['Chess', 'Go']","[-0.15, 0.5]","[0.15, 0.5]",0,1,0,9,9,9,0,1,1,0,,,,,,,,,,,,,,,,,,,,,,,,,,,,,,,,,,,,,,,,,,,,,,,,,,,,,,,,,,,,,,,958.6470915350001,None,958.6470915350001,None,958.6470915350001,None,h,1,0.6817187320002631,960.1826999519999,None,960.1826999519999,None,960.1826999519999,None,960.933869855,None,960.933869855,None,960.933869855,None,960.933869855,None,,,,,,,,,,,,,,,,,,,,,,,,,,,,,,,,,,,,,,,,,,,,001,6,2020_Jan_28_1030,spring_faces,3.1.5,59.94195029701062,
condition files/Stage0b_1.xlsx,0b,none,beta,g,"['h', 'g']","['Chess', 'Go']","[-0.15, 0.5]","[0.15, 0.5]",0,1,0,10,10,10,0,0,0,1,,,,,,,,,,,,,,,,,,,,,,,,,,,,,,,,,,,,,,,,,,,,,,,,,,,,,,,,,,,,,,,962.9136143530004,None,962.9136143530004,None,962.9136143530004,None,g,1,0.8174064119994,964.4470112200006,None,964.4470112200006,None,964.4470112200006,None,965.315649901001,None,965.315649901001,None,965.315649901001,None,965.315649901001,None,,,,,,,,,,,,,,,,,,,,,,,,,,,,,,,,,,,,,,,,,,,,001,6,2020_Jan_28_1030,spring_faces,3.1.5,59.94195029701062,
condition files/Stage0b_1.xlsx,0b,alpha,none,h,"['h', 'g']","['Chess', 'Go']","[-0.15, 0.5]","[0.15, 0.5]",1,0,0,10,10,10,0,1,1,0,,,,,,,,,,,,,,,,,,,,,,,,,,,,,,,,,,,,,,,,,,,,,,,,,,,,,,,,,,,,,,,967.2806633150003,None,967.2806633150003,None,967.2806633150003,None,h,1,1.0093259940003918,968.8311119029995,None,968.8311119029995,None,968.8311119029995,None,969.9139797279995,None,969.9139797279995,None,969.9139797279995,None,969.9139797279995,None,,,,,,,,,,,,,,,,,,,,,,,,,,,,,,,,,,,,,,,,,,,,001,6,2020_Jan_28_1030,spring_faces,3.1.5,59.94195029701062,
condition files/Stage0b_2.xlsx,0b,beta,none,g,"['h', 'g']","['Chess', 'Go']","[-0.15, 0.5]","[0.15, 0.5]",1,0,0,11,11,11,0,0,0,1,,,,,,,,,,,,,,,,,,,,,,,,,,,,,,,,,,,,,,,,,,,,,,,,,,,,,,,,,,,,,,,971.8810235789997,None,971.8810235789997,None,971.8810235789997,None,g,1,0.8109938229990803,973.4135136190007,None,973.4135136190007,None,973.4135136190007,None,974.2806761889997,None,974.2806761889997,None,974.2806761889997,None,974.2806761889997,None,,,,,,,,,,,,,,,,,,,,,,,,,,,,,,,,,,,,,,,,,,,,001,6,2020_Jan_28_1030,spring_faces,3.1.5,59.94195029701062,
condition files/Stage0b_2.xlsx,0b,none,alpha,h,"['h', 'g']","['Chess', 'Go']","[-0.15, 0.5]","[0.15, 0.5]",0,1,0,11,11,11,0,1,1,0,,,,,,,,,,,,,,,,,,,,,,,,,,,,,,,,,,,,,,,,,,,,,,,,,,,,,,,,,,,,,,,976.2470116710001,None,976.2470116710001,None,976.2470116710001,None,h,1,0.5515767599990795,977.784885039001,None,977.784885039001,None,977.784885039001,None,978.3994650369996,None,978.3994650369996,None,978.3994650369996,None,978.3994650369996,None,,,,,,,,,,,,,,,,,,,,,,,,,,,,,,,,,,,,,,,,,,,,001,6,2020_Jan_28_1030,spring_faces,3.1.5,59.94195029701062,
condition files/Stage0c_1.xlsx,0c,phi,beta,g,"['h', 'g']","['Chess', 'Go']","[-0.15, 0.5]","[0.15, 0.5]",1,1,0,12,12,12,0,0,0,3,,,,,,,,,,,,,,,,,,,,,,,,,,,,,,,,,,,,,,,,,,,,,,,,,,,,,,,,,,,,,,,980.3809668960012,None,980.3809668960012,None,980.3809668960012,None,g,1,3.6382146529995225,981.9142323290007,None,981.9142323290007,None,981.9142323290007,None,985.6144671410011,None,985.6144671410011,None,985.6144671410011,None,985.6144671410011,None,,,,,,,,,,,,,,,,,,,,,,,,,,,,,,,,,,,,,,,,,,,,001,6,2020_Jan_28_1030,spring_faces,3.1.5,59.94195029701062,
condition files/Stage0c_1.xlsx,0c,alpha,phi,h,"['h', 'g']","['Chess', 'Go']","[-0.15, 0.5]","[0.15, 0.5]",1,1,0,12,12,12,0,1,1,1,,,,,,,,,,,,,,,,,,,,,,,,,,,,,,,,,,,,,,,,,,,,,,,,,,,,,,,,,,,,,,,987.5807686520011,None,987.5807686520011,None,987.5807686520011,None,h,1,1.446442346999902,989.1139959639995,None,989.1139959639995,None,989.1139959639995,None,990.6143318599998,None,990.6143318599998,None,990.6143318599998,None,990.6143318599998,None,,,,,,,,,,,,,,,,,,,,,,,,,,,,,,,,,,,,,,,,,,,,001,6,2020_Jan_28_1030,spring_faces,3.1.5,59.94195029701062,
condition files/Stage0c_1.xlsx,0c,beta,theta,g,"['h', 'g']","['Chess', 'Go']","[-0.15, 0.5]","[0.15, 0.5]",1,1,0,12,12,12,0,2,2,2,,,,,,,,,,,,,,,,,,,,,,,,,,,,,,,,,,,,,,,,,,,,,,,,,,,,,,,,,,,,,,,992.5806970860003,None,992.5806970860003,None,992.5806970860003,None,g,1,0.6699988799991843,994.1144441040005,None,994.1144441040005,None,994.1144441040005,None,994.8642198740008,None,994.8642198740008,None,994.8642198740008,None,994.8642198740008,None,,,,,,,,,,,,,,,,,,,,,,,,,,,,,,,,,,,,,,,,,,,,001,6,2020_Jan_28_1030,spring_faces,3.1.5,59.94195029701062,
condition files/Stage0c_1.xlsx,0c,theta,alpha,h,"['h', 'g']","['Chess', 'Go']","[-0.15, 0.5]","[0.15, 0.5]",1,1,0,12,12,12,0,3,3,0,,,,,,,,,,,,,,,,,,,,,,,,,,,,,,,,,,,,,,,,,,,,,,,,,,,,,,,,,,,,,,,996.8140111759994,None,996.8140111759994,None,996.8140111759994,None,h,1,0.7568394200006878,998.3476469460011,None,998.3476469460011,None,998.3476469460011,None,999.1644787720006,None,999.1644787720006,None,999.1644787720006,None,999.1644787720006,None,,,,,,,,,,,,,,,,,,,,,,,,,,,,,,,,,,,,,,,,,,,,001,6,2020_Jan_28_1030,spring_faces,3.1.5,59.94195029701062,
condition files/Stage0c_2.xlsx,0c,phi,alpha,h,"['h', 'g']","['Chess', 'Go']","[-0.15, 0.5]","[0.15, 0.5]",1,1,0,13,13,13,0,0,0,1,,,,,,,,,,,,,,,,,,,,,,,,,,,,,,,,,,,,,,,,,,,,,,,,,,,,,,,,,,,,,,,1001.1475906710011,None,1001.1475906710011,None,1001.1475906710011,None,h,1,12.263644749000377,1002.6807756349999,None,1002.6807756349999,None,1002.6807756349999,None,1014.9828029620012,None,1014.9828029620012,None,1014.9828029620012,None,1014.9828029620012,None,,,,,,,,,,,,,,,,,,,,,,,,,,,,,,,,,,,,,,,,,,,,001,6,2020_Jan_28_1030,spring_faces,3.1.5,59.94195029701062,
condition files/Stage0c_2.xlsx,0c,beta,phi,g,"['h', 'g']","['Chess', 'Go']","[-0.15, 0.5]","[0.15, 0.5]",1,1,0,13,13,13,0,1,1,3,,,,,,,,,,,,,,,,,,,,,,,,,,,,,,,,,,,,,,,,,,,,,,,,,,,,,,,,,,,,,,,1016.9637874700011,None,1016.9637874700011,None,1016.9637874700011,None,g,1,1.1670544759999757,1018.497353437001,None,1018.497353437001,None,1018.497353437001,None,1019.7309854200003,None,1019.7309854200003,None,1019.7309854200003,None,1019.7309854200003,None,,,,,,,,,,,,,,,,,,,,,,,,,,,,,,,,,,,,,,,,,,,,001,6,2020_Jan_28_1030,spring_faces,3.1.5,59.94195029701062,
condition files/Stage0c_2.xlsx,0c,alpha,theta,h,"['h', 'g']","['Chess', 'Go']","[-0.15, 0.5]","[0.15, 0.5]",1,1,0,13,13,13,0,2,2,0,,,,,,,,,,,,,,,,,,,,,,,,,,,,,,,,,,,,,,,,,,,,,,,,,,,,,,,,,,,,,,,1021.697169692,None,1021.697169692,None,1021.697169692,None,h,1,1.105834355999832,1023.2306042850005,None,1023.2306042850005,None,1023.2306042850005,None,1024.3976512199997,None,1024.3976512199997,None,1024.3976512199997,None,1024.3976512199997,None,,,,,,,,,,,,,,,,,,,,,,,,,,,,,,,,,,,,,,,,,,,,001,6,2020_Jan_28_1030,spring_faces,3.1.5,59.94195029701062,
condition files/Stage0c_2.xlsx,0c,theta,beta,g,"['h', 'g']","['Chess', 'Go']","[-0.15, 0.5]","[0.15, 0.5]",1,1,0,13,13,13,0,3,3,2,,,,,,,,,,,,,,,,,,,,,,,,,,,,,,,,,,,,,,,,,,,,,,,,,,,,,,,,,,,,,,,1026.364138594,None,1026.364138594,None,1026.364138594,None,g,1,2.7595091799994407,1027.8969913829997,None,1027.8969913829997,None,1027.8969913829997,None,1030.7143764519997,None,1030.7143764519997,None,1030.7143764519997,None,1030.7143764519997,None,,,,,,,,,,,,,,,,,,,,,,,,,,,,,,,,,,,,,,,,,,,,001,6,2020_Jan_28_1030,spring_faces,3.1.5,59.94195029701062,
condition files/Stage0c_1.xlsx,0c,beta,theta,g,"['h', 'g']","['Chess', 'Go']","[-0.15, 0.5]","[0.15, 0.5]",1,1,0,14,14,14,0,0,0,2,,,,,,,,,,,,,,,,,,,,,,,,,,,,,,,,,,,,,,,,,,,,,,,,,,,,,,,,,,,,,,,1032.6972254800012,None,1032.6972254800012,None,1032.6972254800012,None,g,1,0.8735633369997231,1034.2309340399997,None,1034.2309340399997,None,1034.2309340399997,None,1035.148889256,None,1035.148889256,None,1035.148889256,None,1035.148889256,None,,,,,,,,,,,,,,,,,,,,,,,,,,,,,,,,,,,,,,,,,,,,001,6,2020_Jan_28_1030,spring_faces,3.1.5,59.94195029701062,
condition files/Stage0c_1.xlsx,0c,theta,alpha,h,"['h', 'g']","['Chess', 'Go']","[-0.15, 0.5]","[0.15, 0.5]",1,1,0,14,14,14,0,1,1,0,,,,,,,,,,,,,,,,,,,,,,,,,,,,,,,,,,,,,,,,,,,,,,,,,,,,,,,,,,,,,,,1037.1298095680004,None,1037.1298095680004,None,1037.1298095680004,None,h,1,0.6161939150006219,1038.6642370279997,None,1038.6642370279997,None,1038.6642370279997,None,1039.33090962,None,1039.33090962,None,1039.33090962,None,1039.33090962,None,,,,,,,,,,,,,,,,,,,,,,,,,,,,,,,,,,,,,,,,,,,,001,6,2020_Jan_28_1030,spring_faces,3.1.5,59.94195029701062,
condition files/Stage0c_1.xlsx,0c,phi,beta,g,"['h', 'g']","['Chess', 'Go']","[-0.15, 0.5]","[0.15, 0.5]",1,1,0,14,14,14,0,2,2,3,,,,,,,,,,,,,,,,,,,,,,,,,,,,,,,,,,,,,,,,,,,,,,,,,,,,,,,,,,,,,,,1041.2973747879996,None,1041.2973747879996,None,1041.2973747879996,None,g,1,1.4736675479998667,1042.8307613179995,None,1042.8307613179995,None,1042.8307613179995,None,1044.3635384649997,None,1044.3635384649997,None,1044.3635384649997,None,1044.3635384649997,None,,,,,,,,,,,,,,,,,,,,,,,,,,,,,,,,,,,,,,,,,,,,001,6,2020_Jan_28_1030,spring_faces,3.1.5,59.94195029701062,
condition files/Stage0c_1.xlsx,0c,alpha,phi,h,"['h', 'g']","['Chess', 'Go']","[-0.15, 0.5]","[0.15, 0.5]",1,1,0,14,14,14,0,3,3,1,,,,,,,,,,,,,,,,,,,,,,,,,,,,,,,,,,,,,,,,,,,,,,,,,,,,,,,,,,,,,,,1046.3306727459994,None,1046.3306727459994,None,1046.3306727459994,None,h,1,0.8884370060004585,1047.8640041910012,None,1047.8640041910012,None,1047.8640041910012,None,1048.8145227650011,None,1048.8145227650011,None,1048.8145227650011,None,1048.8145227650011,None,,,,,,,,,,,,,,,,,,,,,,,,,,,,,,,,,,,,,,,,,,,,001,6,2020_Jan_28_1030,spring_faces,3.1.5,59.94195029701062,
condition files/Stage0c_2.xlsx,0c,phi,alpha,h,"['h', 'g']","['Chess', 'Go']","[-0.15, 0.5]","[0.15, 0.5]",1,1,0,15,15,15,0,0,0,1,,,,,,,,,,,,,,,,,,,,,,,,,,,,,,,,,,,,,,,,,,,,,,,,,,,,,,,,,,,,,,,1050.7976650600003,None,1050.7976650600003,None,1050.7976650600003,None,h,1,1.3821013229990058,1052.330340255,None,1052.330340255,None,1052.330340255,None,1053.7497880239998,None,1053.7497880239998,None,1053.7497880239998,None,1053.7497880239998,None,,,,,,,,,,,,,,,,,,,,,,,,,,,,,,,,,,,,,,,,,,,,001,6,2020_Jan_28_1030,spring_faces,3.1.5,59.94195029701062,
condition files/Stage0c_2.xlsx,0c,alpha,theta,h,"['h', 'g']","['Chess', 'Go']","[-0.15, 0.5]","[0.15, 0.5]",1,1,0,15,15,15,0,1,1,0,,,,,,,,,,,,,,,,,,,,,,,,,,,,,,,,,,,,,,,,,,,,,,,,,,,,,,,,,,,,,,,1055.7306231419998,None,1055.7306231419998,None,1055.7306231419998,None,h,1,1.0727214929993352,1057.2637192949996,None,1057.2637192949996,None,1057.2637192949996,None,1058.38092986,None,1058.38092986,None,1058.38092986,None,1058.38092986,None,,,,,,,,,,,,,,,,,,,,,,,,,,,,,,,,,,,,,,,,,,,,001,6,2020_Jan_28_1030,spring_faces,3.1.5,59.94195029701062,
condition files/Stage0c_2.xlsx,0c,theta,beta,g,"['h', 'g']","['Chess', 'Go']","[-0.15, 0.5]","[0.15, 0.5]",1,1,0,15,15,15,0,2,2,2,,,,,,,,,,,,,,,,,,,,,,,,,,,,,,,,,,,,,,,,,,,,,,,,,,,,,,,,,,,,,,,1060.3640079999996,None,1060.3640079999996,None,1060.3640079999996,None,g,1,0.7107491389997449,1061.8976899979998,None,1061.8976899979998,None,1061.8976899979998,None,1062.664271875,None,1062.664271875,None,1062.664271875,None,1062.664271875,None,,,,,,,,,,,,,,,,,,,,,,,,,,,,,,,,,,,,,,,,,,,,001,6,2020_Jan_28_1030,spring_faces,3.1.5,59.94195029701062,
condition files/Stage0c_2.xlsx,0c,beta,phi,g,"['h', 'g']","['Chess', 'Go']","[-0.15, 0.5]","[0.15, 0.5]",1,1,0,15,15,15,0,3,3,3,,,,,,,,,,,,,,,,,,,,,,,,,,,,,,,,,,,,,,,,,,,,,,,,,,,,,,,,,,,,,,,1064.6301299510005,None,1064.6301299510005,None,1064.6301299510005,None,g,1,3.2768085520001478,1066.163642032,None,1066.163642032,None,1066.163642032,None,1069.481917872,None,1069.481917872,None,1069.481917872,None,1069.481917872,None,,,,,,,,,,,,,,,,,,,,,,,,,,,,,,,,,,,,,,,,,,,,001,6,2020_Jan_28_1030,spring_faces,3.1.5,59.94195029701062,
condition files/Stage0c_1.xlsx,0c,alpha,phi,h,"['h', 'g']","['Chess', 'Go']","[-0.15, 0.5]","[0.15, 0.5]",1,1,0,16,16,16,0,0,0,1,,,,,,,,,,,,,,,,,,,,,,,,,,,,,,,,,,,,,,,,,,,,,,,,,,,,,,,,,,,,,,,1071.480908173001,None,1071.480908173001,None,1071.480908173001,None,h,1,0.6183647090001614,1073.0140767069997,None,1073.0140767069997,None,1073.0140767069997,None,1073.6976142989997,None,1073.6976142989997,None,1073.6976142989997,None,1073.6976142989997,None,,,,,,,,,,,,,,,,,,,,,,,,,,,,,,,,,,,,,,,,,,,,001,6,2020_Jan_28_1030,spring_faces,3.1.5,59.94195029701062,
condition files/Stage0c_1.xlsx,0c,beta,theta,g,"['h', 'g']","['Chess', 'Go']","[-0.15, 0.5]","[0.15, 0.5]",1,1,0,16,16,16,0,1,1,2,,,,,,,,,,,,,,,,,,,,,,,,,,,,,,,,,,,,,,,,,,,,,,,,,,,,,,,,,,,,,,,1075.664030432,None,1075.664030432,None,1075.664030432,None,g,1,0.7709380559990677,1077.1975038339997,None,1077.1975038339997,None,1077.1975038339997,None,1078.0308563379995,None,1078.0308563379995,None,1078.0308563379995,None,1078.0308563379995,None,,,,,,,,,,,,,,,,,,,,,,,,,,,,,,,,,,,,,,,,,,,,001,6,2020_Jan_28_1030,spring_faces,3.1.5,59.94195029701062,
condition files/Stage0c_1.xlsx,0c,phi,beta,g,"['h', 'g']","['Chess', 'Go']","[-0.15, 0.5]","[0.15, 0.5]",1,1,0,16,16,16,0,2,2,3,,,,,,,,,,,,,,,,,,,,,,,,,,,,,,,,,,,,,,,,,,,,,,,,,,,,,,,,,,,,,,,1079.996821971,None,1079.996821971,None,1079.996821971,None,g,1,1.0294663099994068,1081.530972853,None,1081.530972853,None,1081.530972853,None,1082.5988904110009,None,1082.5988904110009,None,1082.5988904110009,None,1082.5988904110009,None,,,,,,,,,,,,,,,,,,,,,,,,,,,,,,,,,,,,,,,,,,,,001,6,2020_Jan_28_1030,spring_faces,3.1.5,59.94195029701062,
condition files/Stage0c_1.xlsx,0c,theta,alpha,h,"['h', 'g']","['Chess', 'Go']","[-0.15, 0.5]","[0.15, 0.5]",1,1,0,16,16,16,0,3,3,0,,,,,,,,,,,,,,,,,,,,,,,,,,,,,,,,,,,,,,,,,,,,,,,,,,,,,,,,,,,,,,,1084.597766461001,None,1084.597766461001,None,1084.597766461001,None,h,1,0.9104171430008137,1086.114090528,None,1086.114090528,None,1086.114090528,None,1087.0808617400007,None,1087.0808617400007,None,1087.0808617400007,None,1087.0808617400007,None,,,,,,,,,,,,,,,,,,,,,,,,,,,,,,,,,,,,,,,,,,,,001,6,2020_Jan_28_1030,spring_faces,3.1.5,59.94195029701062,
condition files/Stage0c_2.xlsx,0c,beta,phi,g,"['h', 'g']","['Chess', 'Go']","[-0.15, 0.5]","[0.15, 0.5]",1,1,0,17,17,17,0,0,0,3,,,,,,,,,,,,,,,,,,,,,,,,,,,,,,,,,,,,,,,,,,,,,,,,,,,,,,,,,,,,,,,1089.0635259729997,None,1089.0635259729997,None,1089.0635259729997,None,g,1,1.6916172329983965,1090.580883994001,None,1090.580883994001,None,1090.580883994001,None,1092.3307824430003,None,1092.3307824430003,None,1092.3307824430003,None,1092.3307824430003,None,,,,,,,,,,,,,,,,,,,,,,,,,,,,,,,,,,,,,,,,,,,,001,6,2020_Jan_28_1030,spring_faces,3.1.5,59.94195029701062,
condition files/Stage0c_2.xlsx,0c,phi,alpha,h,"['h', 'g']","['Chess', 'Go']","[-0.15, 0.5]","[0.15, 0.5]",1,1,0,17,17,17,0,1,1,1,,,,,,,,,,,,,,,,,,,,,,,,,,,,,,,,,,,,,,,,,,,,,,,,,,,,,,,,,,,,,,,1094.2973229610006,None,1094.2973229610006,None,1094.2973229610006,None,h,1,0.7297261340008845,1095.8306842619995,None,1095.8306842619995,None,1095.8306842619995,None,1096.6136994950002,None,1096.6136994950002,None,1096.6136994950002,None,1096.6136994950002,None,,,,,,,,,,,,,,,,,,,,,,,,,,,,,,,,,,,,,,,,,,,,001,6,2020_Jan_28_1030,spring_faces,3.1.5,59.94195029701062,
condition files/Stage0c_2.xlsx,0c,theta,beta,g,"['h', 'g']","['Chess', 'Go']","[-0.15, 0.5]","[0.15, 0.5]",1,1,0,17,17,17,0,2,2,2,,,,,,,,,,,,,,,,,,,,,,,,,,,,,,,,,,,,,,,,,,,,,,,,,,,,,,,,,,,,,,,1098.580106845001,None,1098.580106845001,None,1098.580106845001,None,g,1,0.9107812990005186,1100.113704724,None,1100.113704724,None,1100.113704724,None,1101.0809011740012,None,1101.0809011740012,None,1101.0809011740012,None,1101.0809011740012,None,,,,,,,,,,,,,,,,,,,,,,,,,,,,,,,,,,,,,,,,,,,,001,6,2020_Jan_28_1030,spring_faces,3.1.5,59.94195029701062,
condition files/Stage0c_2.xlsx,0c,alpha,theta,h,"['h', 'g']","['Chess', 'Go']","[-0.15, 0.5]","[0.15, 0.5]",1,1,0,17,17,17,0,3,3,0,,,,,,,,,,,,,,,,,,,,,,,,,,,,,,,,,,,,,,,,,,,,,,,,,,,,,,,,,,,,,,,1103.047202568,None,1103.047202568,None,1103.047202568,None,h,1,0.7956329440003174,1104.5808106720006,None,1104.5808106720006,None,1104.5808106720006,None,1105.4302756999996,None,1105.4302756999996,None,1105.4302756999996,None,1105.4302756999996,None,,,,,,,,,,,,,,,,,,,,,,,,,,,,,,,,,,,,,,,,,,,,001,6,2020_Jan_28_1030,spring_faces,3.1.5,59.94195029701062,
,,,,,,,,,,,,,,,,,,,,,,,,,,,,,,,,,,,,,,,,,,,,,,,,,,,,,,,,,,,,,,,,,,,,,,,,,,,,,,,,,,,,,,,,,,,,,,,,,,,,,,,,1107.4142421000006,None,space,2.1143301150004845,1112.4141179139997,None,,,,,,,,,,,,,,,,,,,,,,,,,,,,,,,,,,,,,,001,6,2020_Jan_28_1030,spring_faces,3.1.5,59.94195029701062,
condition files/Stage1_1.xlsx,,T4,B3,m,"['c', 'm']","['Clue', 'Monopoly']","[-0.15, 0.5]","[0.15, 0.5]",1,1,,,,,,,,,0,0,0,0,0,0,0,6,,,,,,,,,,,,,,,,,,,,,,,,,,,,,,,,,,,,,,,,,,,,,,,,,,,,,,,1114.580635976,None,1114.580635976,None,1114.580635976,None,m,1,1.6620370799992088,1116.1144149519996,None,1116.1144149519996,None,1116.1144149519996,None,1117.8476083430005,None,1117.8476083430005,None,1117.8476083430005,None,1117.8476083430005,None,,,,,,,1112.4141179139997,None,,,,,,,,,,,,,,,,,,,,,,,,,,,,,,,,,,,,001,6,2020_Jan_28_1030,spring_faces,3.1.5,59.94195029701062,
condition files/Stage1_1.xlsx,,B1,T2,c,"['c', 'm']","['Clue', 'Monopoly']","[-0.15, 0.5]","[0.15, 0.5]",1,1,,,,,,,,,0,0,0,0,0,1,1,1,,,,,,,,,,,,,,,,,,,,,,,,,,,,,,,,,,,,,,,,,,,,,,,,,,,,,,,1119.7965573430001,None,1119.7965573430001,None,1119.7965573430001,None,c,1,1.7406041079993884,1121.3479080999996,None,1121.3479080999996,None,1121.3479080999996,None,1123.1479564030005,None,1123.1479564030005,None,1123.1479564030005,None,1123.1479564030005,None,,,,,,,,,,,,,,,,,,,,,,,,,,,,,,,,,,,,,,,,,,,,001,6,2020_Jan_28_1030,spring_faces,3.1.5,59.94195029701062,
condition files/Stage1_1.xlsx,,B4,T4,m,"['c', 'm']","['Clue', 'Monopoly']","[-0.15, 0.5]","[0.15, 0.5]",1,1,,,,,,,,,0,0,0,0,0,2,2,7,,,,,,,,,,,,,,,,,,,,,,,,,,,,,,,,,,,,,,,,,,,,,,,,,,,,,,,1125.1142037769996,None,1125.1142037769996,None,1125.1142037769996,None,m,1,2.18505629900028,1126.6473372120008,None,1126.6473372120008,None,1126.6473372120008,None,1128.8983790760003,None,1128.8983790760003,None,1128.8983790760003,None,1128.8983790760003,None,,,,,,,,,,,,,,,,,,,,,,,,,,,,,,,,,,,,,,,,,,,,001,6,2020_Jan_28_1030,spring_faces,3.1.5,59.94195029701062,
condition files/Stage1_1.xlsx,,B2,T1,m,"['c', 'm']","['Clue', 'Monopoly']","[-0.15, 0.5]","[0.15, 0.5]",1,1,,,,,,,,,0,0,0,0,0,3,3,2,,,,,,,,,,,,,,,,,,,,,,,,,,,,,,,,,,,,,,,,,,,,,,,,,,,,,,,1130.8640088710008,None,1130.8640088710008,None,1130.8640088710008,None,c,0,1.2832941010001377,1132.3971567279996,None,1132.3971567279996,None,1132.3971567279996,None,1133.731136214,None,1133.731136214,None,1133.731136214,None,1133.731136214,None,,,,,,,,,,,,,,,,,,,,,,,,,,,,,,,,,,,,,,,,,,,,001,6,2020_Jan_28_1030,spring_faces,3.1.5,59.94195029701062,
condition files/Stage1_1.xlsx,,T2,B2,m,"['c', 'm']","['Clue', 'Monopoly']","[-0.15, 0.5]","[0.15, 0.5]",1,1,,,,,,,,,0,0,0,0,0,4,4,3,,,,,,,,,,,,,,,,,,,,,,,,,,,,,,,,,,,,,,,,,,,,,,,,,,,,,,,1135.6973909480012,None,1135.6973909480012,None,1135.6973909480012,None,m,1,2.1445469529990078,1137.231900797001,None,1137.231900797001,None,1137.231900797001,None,1139.430962468,None,1139.430962468,None,1139.430962468,None,1139.430962468,None,,,,,,,,,,,,,,,,,,,,,,,,,,,,,,,,,,,,,,,,,,,,001,6,2020_Jan_28_1030,spring_faces,3.1.5,59.94195029701062,
condition files/Stage1_1.xlsx,,B3,T3,c,"['c', 'm']","['Clue', 'Monopoly']","[-0.15, 0.5]","[0.15, 0.5]",1,1,,,,,,,,,0,0,0,0,0,5,5,4,,,,,,,,,,,,,,,,,,,,,,,,,,,,,,,,,,,,,,,,,,,,,,,,,,,,,,,1141.3973997090006,None,1141.3973997090006,None,1141.3973997090006,None,m,0,1.7729038249999576,1142.9476089400005,None,1142.9476089400005,None,1142.9476089400005,None,1144.7969116619997,None,1144.7969116619997,None,1144.7969116619997,None,1144.7969116619997,None,,,,,,,,,,,,,,,,,,,,,,,,,,,,,,,,,,,,,,,,,,,,001,6,2020_Jan_28_1030,spring_faces,3.1.5,59.94195029701062,
condition files/Stage1_1.xlsx,,T3,B4,c,"['c', 'm']","['Clue', 'Monopoly']","[-0.15, 0.5]","[0.15, 0.5]",1,1,,,,,,,,,0,0,0,0,0,6,6,5,,,,,,,,,,,,,,,,,,,,,,,,,,,,,,,,,,,,,,,,,,,,,,,,,,,,,,,1146.7473367129996,None,1146.7473367129996,None,1146.7473367129996,None,c,1,2.502863323999918,1148.2975848280012,None,1148.2975848280012,None,1148.2975848280012,None,1150.8642725569998,None,1150.8642725569998,None,1150.8642725569998,None,1150.8642725569998,None,,,,,,,,,,,,,,,,,,,,,,,,,,,,,,,,,,,,,,,,,,,,001,6,2020_Jan_28_1030,spring_faces,3.1.5,59.94195029701062,
condition files/Stage1_1.xlsx,,T1,B1,c,"['c', 'm']","['Clue', 'Monopoly']","[-0.15, 0.5]","[0.15, 0.5]",1,1,,,,,,,,,0,0,0,0,0,7,7,0,,,,,,,,,,,,,,,,,,,,,,,,,,,,,,,,,,,,,,,,,,,,,,,,,,,,,,,1152.8306589390004,None,1152.8306589390004,None,1152.8306589390004,None,m,0,1.6688316050003777,1154.3635947110006,None,1154.3635947110006,None,1154.3635947110006,None,1156.0973907550006,None,1156.0973907550006,None,1156.0973907550006,None,1156.0973907550006,None,,,,,,,,,,,,,,,,,,,,,,,,,,,,,,,,,,,,,,,,,,,,001,6,2020_Jan_28_1030,spring_faces,3.1.5,59.94195029701062,
condition files/Stage1_2.xlsx,,B3,T4,m,"['c', 'm']","['Clue', 'Monopoly']","[-0.15, 0.5]","[0.15, 0.5]",1,1,,,,,,,,,0,1,1,1,0,0,0,6,,,,,,,,,,,,,,,,,,,,,,,,,,,,,,,,,,,,,,,,,,,,,,,,,,,,,,,1158.0802062049997,None,1158.0802062049997,None,1158.0802062049997,None,c,0,2.673453585999596,1159.631061336001,None,1159.631061336001,None,1159.631061336001,None,1162.3648170820006,None,1162.3648170820006,None,1162.3648170820006,None,1162.3648170820006,None,,,,,,,,,,,,,,,,,,,,,,,,,,,,,,,,,,,,,,,,,,,,001,6,2020_Jan_28_1030,spring_faces,3.1.5,59.94195029701062,
condition files/Stage1_2.xlsx,,T1,B2,m,"['c', 'm']","['Clue', 'Monopoly']","[-0.15, 0.5]","[0.15, 0.5]",1,1,,,,,,,,,0,1,1,1,0,1,1,2,,,,,,,,,,,,,,,,,,,,,,,,,,,,,,,,,,,,,,,,,,,,,,,,,,,,,,,1164.3306051400004,None,1164.3306051400004,None,1164.3306051400004,None,c,0,1.8323362770006497,1165.8641128810004,None,1165.8641128810004,None,1165.8641128810004,None,1167.7472941770002,None,1167.7472941770002,None,1167.7472941770002,None,1167.7472941770002,None,,,,,,,,,,,,,,,,,,,,,,,,,,,,,,,,,,,,,,,,,,,,001,6,2020_Jan_28_1030,spring_faces,3.1.5,59.94195029701062,
condition files/Stage1_2.xlsx,,T4,B4,m,"['c', 'm']","['Clue', 'Monopoly']","[-0.15, 0.5]","[0.15, 0.5]",1,1,,,,,,,,,0,1,1,1,0,2,2,7,,,,,,,,,,,,,,,,,,,,,,,,,,,,,,,,,,,,,,,,,,,,,,,,,,,,,,,1169.7141979729995,None,1169.7141979729995,None,1169.7141979729995,None,c,0,1.4722494659999938,1171.264184386001,None,1171.264184386001,None,1171.264184386001,None,1172.7969480210004,None,1172.7969480210004,None,1172.7969480210004,None,1172.7969480210004,None,,,,,,,,,,,,,,,,,,,,,,,,,,,,,,,,,,,,,,,,,,,,001,6,2020_Jan_28_1030,spring_faces,3.1.5,59.94195029701062,
condition files/Stage1_2.xlsx,,B1,T1,c,"['c', 'm']","['Clue', 'Monopoly']","[-0.15, 0.5]","[0.15, 0.5]",1,1,,,,,,,,,0,1,1,1,0,3,3,0,,,,,,,,,,,,,,,,,,,,,,,,,,,,,,,,,,,,,,,,,,,,,,,,,,,,,,,1174.7640339,None,1174.7640339,None,1174.7640339,None,c,1,1.879679400999521,1176.2967411,None,1176.2967411,None,1176.2967411,None,1178.2476487909998,None,1178.2476487909998,None,1178.2476487909998,None,1178.2476487909998,None,,,,,,,,,,,,,,,,,,,,,,,,,,,,,,,,,,,,,,,,,,,,001,6,2020_Jan_28_1030,spring_faces,3.1.5,59.94195029701062,
condition files/Stage1_2.xlsx,,T3,B3,c,"['c', 'm']","['Clue', 'Monopoly']","[-0.15, 0.5]","[0.15, 0.5]",1,1,,,,,,,,,0,1,1,1,0,4,4,4,,,,,,,,,,,,,,,,,,,,,,,,,,,,,,,,,,,,,,,,,,,,,,,,,,,,,,,1180.1967809709995,None,1180.1967809709995,None,1180.1967809709995,None,m,0,0.9554101979992993,1181.7331132059999,None,1181.7331132059999,None,1181.7331132059999,None,1182.7476916690002,None,1182.7476916690002,None,1182.7476916690002,None,1182.7476916690002,None,,,,,,,,,,,,,,,,,,,,,,,,,,,,,,,,,,,,,,,,,,,,001,6,2020_Jan_28_1030,spring_faces,3.1.5,59.94195029701062,
condition files/Stage1_2.xlsx,,B4,T3,c,"['c', 'm']","['Clue', 'Monopoly']","[-0.15, 0.5]","[0.15, 0.5]",1,1,,,,,,,,,0,1,1,1,0,5,5,5,,,,,,,,,,,,,,,,,,,,,,,,,,,,,,,,,,,,,,,,,,,,,,,,,,,,,,,1184.7140748820011,None,1184.7140748820011,None,1184.7140748820011,None,c,1,1.831950859999779,1186.2484963380002,None,1186.2484963380002,None,1186.2484963380002,None,1188.1302543869997,None,1188.1302543869997,None,1188.1302543869997,None,1188.1302543869997,None,,,,,,,,,,,,,,,,,,,,,,,,,,,,,,,,,,,,,,,,,,,,001,6,2020_Jan_28_1030,spring_faces,3.1.5,59.94195029701062,
condition files/Stage1_2.xlsx,,B2,T2,m,"['c', 'm']","['Clue', 'Monopoly']","[-0.15, 0.5]","[0.15, 0.5]",1,1,,,,,,,,,0,1,1,1,0,6,6,3,,,,,,,,,,,,,,,,,,,,,,,,,,,,,,,,,,,,,,,,,,,,,,,,,,,,,,,1190.0973443760004,None,1190.0973443760004,None,1190.0973443760004,None,m,1,1.9689622509995388,1191.631487564001,None,1191.631487564001,None,1191.631487564001,None,1193.6650917800007,None,1193.6650917800007,None,1193.6650917800007,None,1193.6650917800007,None,,,,,,,,,,,,,,,,,,,,,,,,,,,,,,,,,,,,,,,,,,,,001,6,2020_Jan_28_1030,spring_faces,3.1.5,59.94195029701062,
condition files/Stage1_2.xlsx,,T2,B1,c,"['c', 'm']","['Clue', 'Monopoly']","[-0.15, 0.5]","[0.15, 0.5]",1,1,,,,,,,,,0,1,1,1,0,7,7,1,,,,,,,,,,,,,,,,,,,,,,,,,,,,,,,,,,,,,,,,,,,,,,,,,,,,,,,1195.6307147420002,None,1195.6307147420002,None,1195.6307147420002,None,m,0,4.179570132000663,1197.180852863,None,1197.180852863,None,1197.180852863,None,1201.4309099089996,None,1201.4309099089996,None,1201.4309099089996,None,1201.4309099089996,None,,,,,,,,,,,,,,,,,,,,,,,,,,,,,,,,,,,,,,,,,,,,001,6,2020_Jan_28_1030,spring_faces,3.1.5,59.94195029701062,
condition files/Stage1_1.xlsx,,B2,T1,m,"['c', 'm']","['Clue', 'Monopoly']","[-0.15, 0.5]","[0.15, 0.5]",1,1,,,,,,,,,0,2,2,2,0,0,0,2,,,,,,,,,,,,,,,,,,,,,,,,,,,,,,,,,,,,,,,,,,,,,,,,,,,,,,,1203.3971401780009,None,1203.3971401780009,None,1203.3971401780009,None,c,0,1.7737381900005857,1204.930793601,None,1204.930793601,None,1204.930793601,None,1206.7807147289996,None,1206.7807147289996,None,1206.7807147289996,None,1206.7807147289996,None,,,,,,,,,,,,,,,,,,,,,,,,,,,,,,,,,,,,,,,,,,,,001,6,2020_Jan_28_1030,spring_faces,3.1.5,59.94195029701062,
condition files/Stage1_1.xlsx,,T1,B1,c,"['c', 'm']","['Clue', 'Monopoly']","[-0.15, 0.5]","[0.15, 0.5]",1,1,,,,,,,,,0,2,2,2,0,1,1,0,,,,,,,,,,,,,,,,,,,,,,,,,,,,,,,,,,,,,,,,,,,,,,,,,,,,,,,1208.7307016690002,None,1208.7307016690002,None,1208.7307016690002,None,m,0,1.0938608249998651,1210.2666014140004,None,1210.2666014140004,None,1210.2666014140004,None,1211.430579074001,None,1211.430579074001,None,1211.430579074001,None,1211.430579074001,None,,,,,,,,,,,,,,,,,,,,,,,,,,,,,,,,,,,,,,,,,,,,001,6,2020_Jan_28_1030,spring_faces,3.1.5,59.94195029701062,
condition files/Stage1_1.xlsx,,B3,T3,c,"['c', 'm']","['Clue', 'Monopoly']","[-0.15, 0.5]","[0.15, 0.5]",1,1,,,,,,,,,0,2,2,2,0,2,2,4,,,,,,,,,,,,,,,,,,,,,,,,,,,,,,,,,,,,,,,,,,,,,,,,,,,,,,,1213.3807841280004,None,1213.3807841280004,None,1213.3807841280004,None,c,1,0.28584831199987093,1214.914612812,None,1214.914612812,None,1214.914612812,None,1215.2645318019995,None,1215.2645318019995,None,1215.2645318019995,None,1215.2645318019995,None,,,,,,,,,,,,,,,,,,,,,,,,,,,,,,,,,,,,,,,,,,,,001,6,2020_Jan_28_1030,spring_faces,3.1.5,59.94195029701062,
condition files/Stage1_1.xlsx,,T2,B2,m,"['c', 'm']","['Clue', 'Monopoly']","[-0.15, 0.5]","[0.15, 0.5]",1,1,,,,,,,,,0,2,2,2,0,3,3,3,,,,,,,,,,,,,,,,,,,,,,,,,,,,,,,,,,,,,,,,,,,,,,,,,,,,,,,1217.2306673739995,None,1217.2306673739995,None,1217.2306673739995,None,m,1,1.7965756289995625,1218.7638696900003,None,1218.7638696900003,None,1218.7638696900003,None,1220.6163809529999,None,1220.6163809529999,None,1220.6163809529999,None,1220.6163809529999,None,,,,,,,,,,,,,,,,,,,,,,,,,,,,,,,,,,,,,,,,,,,,001,6,2020_Jan_28_1030,spring_faces,3.1.5,59.94195029701062,
condition files/Stage1_1.xlsx,,T3,B4,c,"['c', 'm']","['Clue', 'Monopoly']","[-0.15, 0.5]","[0.15, 0.5]",1,1,,,,,,,,,0,2,2,2,0,4,4,5,,,,,,,,,,,,,,,,,,,,,,,,,,,,,,,,,,,,,,,,,,,,,,,,,,,,,,,1222.5799684069998,None,1222.5799684069998,None,1222.5799684069998,None,m,0,0.7802531800007273,1224.1161943180005,None,1224.1161943180005,None,1224.1161943180005,None,1224.9640283520012,None,1224.9640283520012,None,1224.9640283520012,None,1224.9640283520012,None,,,,,,,,,,,,,,,,,,,,,,,,,,,,,,,,,,,,,,,,,,,,001,6,2020_Jan_28_1030,spring_faces,3.1.5,59.94195029701062,
condition files/Stage1_1.xlsx,,B4,T4,m,"['c', 'm']","['Clue', 'Monopoly']","[-0.15, 0.5]","[0.15, 0.5]",1,1,,,,,,,,,0,2,2,2,0,5,5,7,,,,,,,,,,,,,,,,,,,,,,,,,,,,,,,,,,,,,,,,,,,,,,,,,,,,,,,1226.914048603,None,1226.914048603,None,1226.914048603,None,c,0,0.11187557300036133,1228.464564031,None,1228.464564031,None,1228.464564031,None,1228.6476340750005,None,1228.6476340750005,None,1228.6476340750005,None,1228.6476340750005,None,,,,,,,,,,,,,,,,,,,,,,,,,,,,,,,,,,,,,,,,,,,,001,6,2020_Jan_28_1030,spring_faces,3.1.5,59.94195029701062,
condition files/Stage1_1.xlsx,,T4,B3,m,"['c', 'm']","['Clue', 'Monopoly']","[-0.15, 0.5]","[0.15, 0.5]",1,1,,,,,,,,,0,2,2,2,0,6,6,6,,,,,,,,,,,,,,,,,,,,,,,,,,,,,,,,,,,,,,,,,,,,,,,,,,,,,,,1230.5973711750003,None,1230.5973711750003,None,1230.5973711750003,None,c,0,1.1819739980001032,1232.130478219001,None,1232.130478219001,None,1232.130478219001,None,1233.3645941610002,None,1233.3645941610002,None,1233.3645941610002,None,1233.3645941610002,None,,,,,,,,,,,,,,,,,,,,,,,,,,,,,,,,,,,,,,,,,,,,001,6,2020_Jan_28_1030,spring_faces,3.1.5,59.94195029701062,
condition files/Stage1_1.xlsx,,B1,T2,c,"['c', 'm']","['Clue', 'Monopoly']","[-0.15, 0.5]","[0.15, 0.5]",1,1,,,,,,,,,0,2,2,2,0,7,7,1,,,,,,,,,,,,,,,,,,,,,,,,,,,,,,,,,,,,,,,,,,,,,,,,,,,,,,,1235.33083566,None,1235.33083566,None,1235.33083566,None,m,0,0.5433815610012971,1236.865119811001,None,1236.865119811001,None,1236.865119811001,None,1237.4810883600012,None,1237.4810883600012,None,1237.4810883600012,None,1237.4810883600012,None,,,,,,,,,,,,,,,,,,,,,,,,,,,,,,,,,,,,,,,,,,,,001,6,2020_Jan_28_1030,spring_faces,3.1.5,59.94195029701062,
condition files/Stage1_2.xlsx,,T2,B1,c,"['c', 'm']","['Clue', 'Monopoly']","[-0.15, 0.5]","[0.15, 0.5]",1,1,,,,,,,,,0,3,3,3,0,0,0,1,,,,,,,,,,,,,,,,,,,,,,,,,,,,,,,,,,,,,,,,,,,,,,,,,,,,,,,1239.4476786950008,None,1239.4476786950008,None,1239.4476786950008,None,c,1,1.2269921740007703,1240.9975129200002,None,1240.9975129200002,None,1240.9975129200002,None,1242.2809555020003,None,1242.2809555020003,None,1242.2809555020003,None,1242.2809555020003,None,,,,,,,,,,,,,,,,,,,,,,,,,,,,,,,,,,,,,,,,,,,,001,6,2020_Jan_28_1030,spring_faces,3.1.5,59.94195029701062,
condition files/Stage1_2.xlsx,,T1,B2,m,"['c', 'm']","['Clue', 'Monopoly']","[-0.15, 0.5]","[0.15, 0.5]",1,1,,,,,,,,,0,3,3,3,0,1,1,2,,,,,,,,,,,,,,,,,,,,,,,,,,,,,,,,,,,,,,,,,,,,,,,,,,,,,,,1244.2473680920002,None,1244.2473680920002,None,1244.2473680920002,None,c,0,2.058165176998955,1245.782303129,None,1245.782303129,None,1245.782303129,None,1247.9136214479995,None,1247.9136214479995,None,1247.9136214479995,None,1247.9136214479995,None,,,,,,,,,,,,,,,,,,,,,,,,,,,,,,,,,,,,,,,,,,,,001,6,2020_Jan_28_1030,spring_faces,3.1.5,59.94195029701062,
condition files/Stage1_2.xlsx,,T3,B3,c,"['c', 'm']","['Clue', 'Monopoly']","[-0.15, 0.5]","[0.15, 0.5]",1,1,,,,,,,,,0,3,3,3,0,2,2,4,,,,,,,,,,,,,,,,,,,,,,,,,,,,,,,,,,,,,,,,,,,,,,,,,,,,,,,1249.864010927001,None,1249.864010927001,None,1249.864010927001,None,m,0,2.3133608080006525,1251.3990886010006,None,1251.3990886010006,None,1251.3990886010006,None,1253.78056224,None,1253.78056224,None,1253.78056224,None,1253.78056224,None,,,,,,,,,,,,,,,,,,,,,,,,,,,,,,,,,,,,,,,,,,,,001,6,2020_Jan_28_1030,spring_faces,3.1.5,59.94195029701062,
condition files/Stage1_2.xlsx,,B3,T4,m,"['c', 'm']","['Clue', 'Monopoly']","[-0.15, 0.5]","[0.15, 0.5]",1,1,,,,,,,,,0,3,3,3,0,3,3,6,,,,,,,,,,,,,,,,,,,,,,,,,,,,,,,,,,,,,,,,,,,,,,,,,,,,,,,1255.7301007280012,None,1255.7301007280012,None,1255.7301007280012,None,c,0,1.3762946349997947,1257.2641592900009,None,1257.2641592900009,None,1257.2641592900009,None,1258.713557432001,None,1258.713557432001,None,1258.713557432001,None,1258.713557432001,None,,,,,,,,,,,,,,,,,,,,,,,,,,,,,,,,,,,,,,,,,,,,001,6,2020_Jan_28_1030,spring_faces,3.1.5,59.94195029701062,
condition files/Stage1_2.xlsx,,T4,B4,m,"['c', 'm']","['Clue', 'Monopoly']","[-0.15, 0.5]","[0.15, 0.5]",1,1,,,,,,,,,0,3,3,3,0,4,4,7,,,,,,,,,,,,,,,,,,,,,,,,,,,,,,,,,,,,,,,,,,,,,,,,,,,,,,,1260.6632961290006,None,1260.6632961290006,None,1260.6632961290006,None,m,1,3.562189964000936,1262.2142581939997,None,1262.2142581939997,None,1262.2142581939997,None,1265.8304235710011,None,1265.8304235710011,None,1265.8304235710011,None,1265.8304235710011,None,,,,,,,,,,,,,,,,,,,,,,,,,,,,,,,,,,,,,,,,,,,,001,6,2020_Jan_28_1030,spring_faces,3.1.5,59.94195029701062,
condition files/Stage1_2.xlsx,,B1,T1,c,"['c', 'm']","['Clue', 'Monopoly']","[-0.15, 0.5]","[0.15, 0.5]",1,1,,,,,,,,,0,3,3,3,0,5,5,0,,,,,,,,,,,,,,,,,,,,,,,,,,,,,,,,,,,,,,,,,,,,,,,,,,,,,,,1267.7975254679995,None,1267.7975254679995,None,1267.7975254679995,None,m,0,0.8128907669997716,1269.3475575420007,None,1269.3475575420007,None,1269.3475575420007,None,1270.2303962329997,None,1270.2303962329997,None,1270.2303962329997,None,1270.2303962329997,None,,,,,,,,,,,,,,,,,,,,,,,,,,,,,,,,,,,,,,,,,,,,001,6,2020_Jan_28_1030,spring_faces,3.1.5,59.94195029701062,
condition files/Stage1_2.xlsx,,B4,T3,c,"['c', 'm']","['Clue', 'Monopoly']","[-0.15, 0.5]","[0.15, 0.5]",1,1,,,,,,,,,0,3,3,3,0,6,6,5,,,,,,,,,,,,,,,,,,,,,,,,,,,,,,,,,,,,,,,,,,,,,,,,,,,,,,,1272.1808169820006,None,1272.1808169820006,None,1272.1808169820006,None,c,1,0.9565552160001971,1273.7159738170003,None,1273.7159738170003,None,1273.7159738170003,None,1274.7305777480005,None,1274.7305777480005,None,1274.7305777480005,None,1274.7305777480005,None,,,,,,,,,,,,,,,,,,,,,,,,,,,,,,,,,,,,,,,,,,,,001,6,2020_Jan_28_1030,spring_faces,3.1.5,59.94195029701062,
condition files/Stage1_2.xlsx,,B2,T2,m,"['c', 'm']","['Clue', 'Monopoly']","[-0.15, 0.5]","[0.15, 0.5]",1,1,,,,,,,,,0,3,3,3,0,7,7,3,,,,,,,,,,,,,,,,,,,,,,,,,,,,,,,,,,,,,,,,,,,,,,,,,,,,,,,1276.6974853269994,None,1276.6974853269994,None,1276.6974853269994,None,m,1,0.4580639460000384,1278.2304689620005,None,1278.2304689620005,None,1278.2304689620005,None,1278.7496830310001,None,1278.7496830310001,None,1278.7496830310001,None,1278.7496830310001,None,,,,,,,,,,,,,,,,,,,,,,,,,,,,,,,,,,,,,,,,,,,,001,6,2020_Jan_28_1030,spring_faces,3.1.5,59.94195029701062,
condition files/Stage1_1.xlsx,,B1,T2,c,"['c', 'm']","['Clue', 'Monopoly']","[-0.15, 0.5]","[0.15, 0.5]",1,1,,,,,,,,,0,4,4,4,0,0,0,1,,,,,,,,,,,,,,,,,,,,,,,,,,,,,,,,,,,,,,,,,,,,,,,,,,,,,,,1280.7301555839995,None,1280.7301555839995,None,1280.7301555839995,None,m,0,1.3679817330012156,1282.2804152979998,None,1282.2804152979998,None,1282.2804152979998,None,1283.7312288479998,None,1283.7312288479998,None,1283.7312288479998,None,1283.7312288479998,None,,,,,,,,,,,,,,,,,,,,,,,,,,,,,,,,,,,,,,,,,,,,001,6,2020_Jan_28_1030,spring_faces,3.1.5,59.94195029701062,
condition files/Stage1_1.xlsx,,T4,B3,m,"['c', 'm']","['Clue', 'Monopoly']","[-0.15, 0.5]","[0.15, 0.5]",1,1,,,,,,,,,0,4,4,4,0,1,1,6,,,,,,,,,,,,,,,,,,,,,,,,,,,,,,,,,,,,,,,,,,,,,,,,,,,,,,,1285.6799093600011,None,1285.6799093600011,None,1285.6799093600011,None,c,0,2.5459104390010907,1287.214530397,None,1287.214530397,None,1287.214530397,None,1289.8157333419995,None,1289.8157333419995,None,1289.8157333419995,None,1289.8157333419995,None,,,,,,,,,,,,,,,,,,,,,,,,,,,,,,,,,,,,,,,,,,,,001,6,2020_Jan_28_1030,spring_faces,3.1.5,59.94195029701062,
condition files/Stage1_1.xlsx,,T3,B4,c,"['c', 'm']","['Clue', 'Monopoly']","[-0.15, 0.5]","[0.15, 0.5]",1,1,,,,,,,,,0,4,4,4,0,2,2,5,,,,,,,,,,,,,,,,,,,,,,,,,,,,,,,,,,,,,,,,,,,,,,,,,,,,,,,1291.7809397680003,None,1291.7809397680003,None,1291.7809397680003,None,c,1,1.2620678499988571,1293.3143350809996,None,1293.3143350809996,None,1293.3143350809996,None,1294.6478478199997,None,1294.6478478199997,None,1294.6478478199997,None,1294.6478478199997,None,,,,,,,,,,,,,,,,,,,,,,,,,,,,,,,,,,,,,,,,,,,,001,6,2020_Jan_28_1030,spring_faces,3.1.5,59.94195029701062,
condition files/Stage1_1.xlsx,,B3,T3,c,"['c', 'm']","['Clue', 'Monopoly']","[-0.15, 0.5]","[0.15, 0.5]",1,1,,,,,,,,,0,4,4,4,0,3,3,4,,,,,,,,,,,,,,,,,,,,,,,,,,,,,,,,,,,,,,,,,,,,,,,,,,,,,,,1296.5973723689995,None,1296.5973723689995,None,1296.5973723689995,None,m,0,0.8132877349999035,1298.1311641450002,None,1298.1311641450002,None,1298.1311641450002,None,1298.9977120949998,None,1298.9977120949998,None,1298.9977120949998,None,1298.9977120949998,None,,,,,,,,,,,,,,,,,,,,,,,,,,,,,,,,,,,,,,,,,,,,001,6,2020_Jan_28_1030,spring_faces,3.1.5,59.94195029701062,
condition files/Stage1_1.xlsx,,T2,B2,m,"['c', 'm']","['Clue', 'Monopoly']","[-0.15, 0.5]","[0.15, 0.5]",1,1,,,,,,,,,0,4,4,4,0,4,4,3,,,,,,,,,,,,,,,,,,,,,,,,,,,,,,,,,,,,,,,,,,,,,,,,,,,,,,,1300.964047458,None,1300.964047458,None,1300.964047458,None,c,0,2.3169834050004283,1302.499480808,None,1302.499480808,None,1302.499480808,None,1304.8974603100005,None,1304.8974603100005,None,1304.8974603100005,None,1304.8974603100005,None,,,,,,,,,,,,,,,,,,,,,,,,,,,,,,,,,,,,,,,,,,,,001,6,2020_Jan_28_1030,spring_faces,3.1.5,59.94195029701062,
condition files/Stage1_1.xlsx,,B2,T1,m,"['c', 'm']","['Clue', 'Monopoly']","[-0.15, 0.5]","[0.15, 0.5]",1,1,,,,,,,,,0,4,4,4,0,5,5,2,,,,,,,,,,,,,,,,,,,,,,,,,,,,,,,,,,,,,,,,,,,,,,,,,,,,,,,1306.8471711230004,None,1306.8471711230004,None,1306.8471711230004,None,m,1,2.035934206998718,1308.3805229439995,None,1308.3805229439995,None,1308.3805229439995,None,1310.4810419610012,None,1310.4810419610012,None,1310.4810419610012,None,1310.4810419610012,None,,,,,,,,,,,,,,,,,,,,,,,,,,,,,,,,,,,,,,,,,,,,001,6,2020_Jan_28_1030,spring_faces,3.1.5,59.94195029701062,
condition files/Stage1_1.xlsx,,B4,T4,m,"['c', 'm']","['Clue', 'Monopoly']","[-0.15, 0.5]","[0.15, 0.5]",1,1,,,,,,,,,0,4,4,4,0,6,6,7,,,,,,,,,,,,,,,,,,,,,,,,,,,,,,,,,,,,,,,,,,,,,,,,,,,,,,,1312.4473809550009,None,1312.4473809550009,None,1312.4473809550009,None,m,1,0.9628611660009483,1313.9975810770002,None,1313.9975810770002,None,1313.9975810770002,None,1315.014200748,None,1315.014200748,None,1315.014200748,None,1315.014200748,None,,,,,,,,,,,,,,,,,,,,,,,,,,,,,,,,,,,,,,,,,,,,001,6,2020_Jan_28_1030,spring_faces,3.1.5,59.94195029701062,
condition files/Stage1_1.xlsx,,T1,B1,c,"['c', 'm']","['Clue', 'Monopoly']","[-0.15, 0.5]","[0.15, 0.5]",1,1,,,,,,,,,0,4,4,4,0,7,7,0,,,,,,,,,,,,,,,,,,,,,,,,,,,,,,,,,,,,,,,,,,,,,,,,,,,,,,,1316.9807153169995,None,1316.9807153169995,None,1316.9807153169995,None,m,0,0.9414827420005167,1318.5310107529995,None,1318.5310107529995,None,1318.5310107529995,None,1319.8642720540001,None,1319.8642720540001,None,1319.8642720540001,None,1319.8642720540001,None,,,,,,,,,,,,,,,,,,,,,,,,,,,,,,,,,,,,,,,,,,,,001,6,2020_Jan_28_1030,spring_faces,3.1.5,59.94195029701062,
condition files/Stage1_2.xlsx,,B2,T2,m,"['c', 'm']","['Clue', 'Monopoly']","[-0.15, 0.5]","[0.15, 0.5]",1,1,,,,,,,,,0,5,5,5,0,0,0,3,,,,,,,,,,,,,,,,,,,,,,,,,,,,,,,,,,,,,,,,,,,,,,,,,,,,,,,1321.5142508729996,None,1321.5142508729996,None,1321.5142508729996,None,c,0,1.0314441719983733,1323.0490096189997,None,1323.0490096189997,None,1323.0490096189997,None,1324.1474042479995,None,1324.1474042479995,None,1324.1474042479995,None,1324.1474042479995,None,,,,,,,,,,,,,,,,,,,,,,,,,,,,,,,,,,,,,,,,,,,,001,6,2020_Jan_28_1030,spring_faces,3.1.5,59.94195029701062,
condition files/Stage1_2.xlsx,,T2,B1,c,"['c', 'm']","['Clue', 'Monopoly']","[-0.15, 0.5]","[0.15, 0.5]",1,1,,,,,,,,,0,5,5,5,0,1,1,1,,,,,,,,,,,,,,,,,,,,,,,,,,,,,,,,,,,,,,,,,,,,,,,,,,,,,,,1326.0973572030007,None,1326.0973572030007,None,1326.0973572030007,None,m,0,0.4482856249996985,1327.6321725850003,None,1327.6321725850003,None,1327.6321725850003,None,1328.147555812001,None,1328.147555812001,None,1328.147555812001,None,1328.147555812001,None,,,,,,,,,,,,,,,,,,,,,,,,,,,,,,,,,,,,,,,,,,,,001,6,2020_Jan_28_1030,spring_faces,3.1.5,59.94195029701062,
condition files/Stage1_2.xlsx,,B3,T4,m,"['c', 'm']","['Clue', 'Monopoly']","[-0.15, 0.5]","[0.15, 0.5]",1,1,,,,,,,,,0,5,5,5,0,2,2,6,,,,,,,,,,,,,,,,,,,,,,,,,,,,,,,,,,,,,,,,,,,,,,,,,,,,,,,1330.0974484040007,None,1330.0974484040007,None,1330.0974484040007,None,c,0,0.6246300910006539,1331.6318969390004,None,1331.6318969390004,None,1331.6318969390004,None,1332.3139480830005,None,1332.3139480830005,None,1332.3139480830005,None,1332.3139480830005,None,,,,,,,,,,,,,,,,,,,,,,,,,,,,,,,,,,,,,,,,,,,,001,6,2020_Jan_28_1030,spring_faces,3.1.5,59.94195029701062,
condition files/Stage1_2.xlsx,,B4,T3,c,"['c', 'm']","['Clue', 'Monopoly']","[-0.15, 0.5]","[0.15, 0.5]",1,1,,,,,,,,,0,5,5,5,0,3,3,5,,,,,,,,,,,,,,,,,,,,,,,,,,,,,,,,,,,,,,,,,,,,,,,,,,,,,,,1334.2800354439996,None,1334.2800354439996,None,1334.2800354439996,None,m,0,1.1762211619989102,1335.816197827001,None,1335.816197827001,None,1335.816197827001,None,1337.049836411,None,1337.049836411,None,1337.049836411,None,1337.049836411,None,,,,,,,,,,,,,,,,,,,,,,,,,,,,,,,,,,,,,,,,,,,,001,6,2020_Jan_28_1030,spring_faces,3.1.5,59.94195029701062,
condition files/Stage1_2.xlsx,,T1,B2,m,"['c', 'm']","['Clue', 'Monopoly']","[-0.15, 0.5]","[0.15, 0.5]",1,1,,,,,,,,,0,5,5,5,0,4,4,2,,,,,,,,,,,,,,,,,,,,,,,,,,,,,,,,,,,,,,,,,,,,,,,,,,,,,,,1339.0140321110002,None,1339.0140321110002,None,1339.0140321110002,None,m,1,0.26847414300027594,1340.563967899,None,1340.563967899,None,1340.563967899,None,1340.899958115001,None,1340.899958115001,None,1340.899958115001,None,1340.899958115001,None,,,,,,,,,,,,,,,,,,,,,,,,,,,,,,,,,,,,,,,,,,,,001,6,2020_Jan_28_1030,spring_faces,3.1.5,59.94195029701062,
condition files/Stage1_2.xlsx,,T4,B4,m,"['c', 'm']","['Clue', 'Monopoly']","[-0.15, 0.5]","[0.15, 0.5]",1,1,,,,,,,,,0,5,5,5,0,5,5,7,,,,,,,,,,,,,,,,,,,,,,,,,,,,,,,,,,,,,,,,,,,,,,,,,,,,,,,1342.8641890400004,None,1342.8641890400004,None,1342.8641890400004,None,m,1,0.3366513679993659,1344.3998199360003,None,1344.3998199360003,None,1344.3998199360003,None,1344.7970363670001,None,1344.7970363670001,None,1344.7970363670001,None,1344.7970363670001,None,,,,,,,,,,,,,,,,,,,,,,,,,,,,,,,,,,,,,,,,,,,,001,6,2020_Jan_28_1030,spring_faces,3.1.5,59.94195029701062,
condition files/Stage1_2.xlsx,,T3,B3,c,"['c', 'm']","['Clue', 'Monopoly']","[-0.15, 0.5]","[0.15, 0.5]",1,1,,,,,,,,,0,5,5,5,0,6,6,4,,,,,,,,,,,,,,,,,,,,,,,,,,,,,,,,,,,,,,,,,,,,,,,,,,,,,,,1346.7640113320003,None,1346.7640113320003,None,1346.7640113320003,None,m,0,0.3910841609995259,1348.2974485660006,None,1348.2974485660006,None,1348.2974485660006,None,1348.7479041390006,None,1348.7479041390006,None,1348.7479041390006,None,1348.7479041390006,None,,,,,,,,,,,,,,,,,,,,,,,,,,,,,,,,,,,,,,,,,,,,001,6,2020_Jan_28_1030,spring_faces,3.1.5,59.94195029701062,
condition files/Stage1_2.xlsx,,B1,T1,c,"['c', 'm']","['Clue', 'Monopoly']","[-0.15, 0.5]","[0.15, 0.5]",1,1,,,,,,,,,0,5,5,5,0,7,7,0,,,,,,,,,,,,,,,,,,,,,,,,,,,,,,,,,,,,,,,,,,,,,,,,,,,,,,,1350.7140600499997,None,1350.7140600499997,None,1350.7140600499997,None,m,0,0.39246232799996505,1352.248017885001,None,1352.248017885001,None,1352.248017885001,None,1352.6973051180003,None,1352.6973051180003,None,1352.6973051180003,None,1352.6973051180003,None,,,,,,,,,,,,,,,,,,,,,,,,,,,,,,,,,,,,,,,,,,,,001,6,2020_Jan_28_1030,spring_faces,3.1.5,59.94195029701062,
condition files/Stage1_1.xlsx,,B2,T1,m,"['c', 'm']","['Clue', 'Monopoly']","[-0.15, 0.5]","[0.15, 0.5]",1,1,,,,,,,,,0,6,6,6,0,0,0,2,,,,,,,,,,,,,,,,,,,,,,,,,,,,,,,,,,,,,,,,,,,,,,,,,,,,,,,1354.6810881579995,None,1354.6810881579995,None,1354.6810881579995,None,m,1,1.001887987000373,1356.230554689001,None,1356.230554689001,None,1356.230554689001,None,1357.314050733,None,1357.314050733,None,1357.314050733,None,1357.314050733,None,,,,,,,,,,,,,,,,,,,,,,,,,,,,,,,,,,,,,,,,,,,,001,6,2020_Jan_28_1030,spring_faces,3.1.5,59.94195029701062,
condition files/Stage1_1.xlsx,,B4,T4,m,"['c', 'm']","['Clue', 'Monopoly']","[-0.15, 0.5]","[0.15, 0.5]",1,1,,,,,,,,,0,6,6,6,0,1,1,7,,,,,,,,,,,,,,,,,,,,,,,,,,,,,,,,,,,,,,,,,,,,,,,,,,,,,,,1359.2641612800007,None,1359.2641612800007,None,1359.2641612800007,None,m,1,0.36980014300024777,1360.798662141001,None,1360.798662141001,None,1360.798662141001,None,1361.2300711569997,None,1361.2300711569997,None,1361.2300711569997,None,1361.2300711569997,None,,,,,,,,,,,,,,,,,,,,,,,,,,,,,,,,,,,,,,,,,,,,001,6,2020_Jan_28_1030,spring_faces,3.1.5,59.94195029701062,
condition files/Stage1_1.xlsx,,T4,B3,m,"['c', 'm']","['Clue', 'Monopoly']","[-0.15, 0.5]","[0.15, 0.5]",1,1,,,,,,,,,0,6,6,6,0,2,2,6,,,,,,,,,,,,,,,,,,,,,,,,,,,,,,,,,,,,,,,,,,,,,,,,,,,,,,,1363.1976688950008,None,1363.1976688950008,None,1363.1976688950008,None,m,1,0.48480246200051624,1364.731655392,None,1364.731655392,None,1364.731655392,None,1365.280453055001,None,1365.280453055001,None,1365.280453055001,None,1365.280453055001,None,,,,,,,,,,,,,,,,,,,,,,,,,,,,,,,,,,,,,,,,,,,,001,6,2020_Jan_28_1030,spring_faces,3.1.5,59.94195029701062,
condition files/Stage1_1.xlsx,,T2,B2,m,"['c', 'm']","['Clue', 'Monopoly']","[-0.15, 0.5]","[0.15, 0.5]",1,1,,,,,,,,,0,6,6,6,0,3,3,3,,,,,,,,,,,,,,,,,,,,,,,,,,,,,,,,,,,,,,,,,,,,,,,,,,,,,,,1367.2472937730008,None,1367.2472937730008,None,1367.2472937730008,None,m,1,0.6417811890005396,1368.7826863300006,None,1368.7826863300006,None,1368.7826863300006,None,1369.4808490549995,None,1369.4808490549995,None,1369.4808490549995,None,1369.4808490549995,None,,,,,,,,,,,,,,,,,,,,,,,,,,,,,,,,,,,,,,,,,,,,001,6,2020_Jan_28_1030,spring_faces,3.1.5,59.94195029701062,
condition files/Stage1_1.xlsx,,B1,T2,c,"['c', 'm']","['Clue', 'Monopoly']","[-0.15, 0.5]","[0.15, 0.5]",1,1,,,,,,,,,0,6,6,6,0,4,4,1,,,,,,,,,,,,,,,,,,,,,,,,,,,,,,,,,,,,,,,,,,,,,,,,,,,,,,,1371.446718559001,None,1371.446718559001,None,1371.446718559001,None,m,0,0.7307894690002286,1372.997650847,None,1372.997650847,None,1372.997650847,None,1373.7970747000008,None,1373.7970747000008,None,1373.7970747000008,None,1373.7970747000008,None,,,,,,,,,,,,,,,,,,,,,,,,,,,,,,,,,,,,,,,,,,,,001,6,2020_Jan_28_1030,spring_faces,3.1.5,59.94195029701062,
condition files/Stage1_1.xlsx,,T1,B1,c,"['c', 'm']","['Clue', 'Monopoly']","[-0.15, 0.5]","[0.15, 0.5]",1,1,,,,,,,,,0,6,6,6,0,5,5,0,,,,,,,,,,,,,,,,,,,,,,,,,,,,,,,,,,,,,,,,,,,,,,,,,,,,,,,1375.7474125520012,None,1375.7474125520012,None,1375.7474125520012,None,m,0,0.35080345000096713,1377.281615500001,None,1377.281615500001,None,1377.281615500001,None,1377.6978044010002,None,1377.6978044010002,None,1377.6978044010002,None,1377.6978044010002,None,,,,,,,,,,,,,,,,,,,,,,,,,,,,,,,,,,,,,,,,,,,,001,6,2020_Jan_28_1030,spring_faces,3.1.5,59.94195029701062,
condition files/Stage1_1.xlsx,,T3,B4,c,"['c', 'm']","['Clue', 'Monopoly']","[-0.15, 0.5]","[0.15, 0.5]",1,1,,,,,,,,,0,6,6,6,0,6,6,5,,,,,,,,,,,,,,,,,,,,,,,,,,,,,,,,,,,,,,,,,,,,,,,,,,,,,,,1379.6634599580002,None,1379.6634599580002,None,1379.6634599580002,None,m,0,0.3861699810004211,1381.1982999069996,None,1381.1982999069996,None,1381.1982999069996,None,1381.6472242230002,None,1381.6472242230002,None,1381.6472242230002,None,1381.6472242230002,None,,,,,,,,,,,,,,,,,,,,,,,,,,,,,,,,,,,,,,,,,,,,001,6,2020_Jan_28_1030,spring_faces,3.1.5,59.94195029701062,
condition files/Stage1_1.xlsx,,B3,T3,c,"['c', 'm']","['Clue', 'Monopoly']","[-0.15, 0.5]","[0.15, 0.5]",1,1,,,,,,,,,0,6,6,6,0,7,7,4,,,,,,,,,,,,,,,,,,,,,,,,,,,,,,,,,,,,,,,,,,,,,,,,,,,,,,,1383.6141578819997,None,1383.6141578819997,None,1383.6141578819997,None,m,0,0.580148613998972,1385.1642964880002,None,1385.1642964880002,None,1385.1642964880002,None,1385.7975098279994,None,1385.7975098279994,None,1385.7975098279994,None,1385.7975098279994,None,,,,,,,,,,,,,,,,,,,,,,,,,,,,,,,,,,,,,,,,,,,,001,6,2020_Jan_28_1030,spring_faces,3.1.5,59.94195029701062,
condition files/Stage1_2.xlsx,,B4,T3,c,"['c', 'm']","['Clue', 'Monopoly']","[-0.15, 0.5]","[0.15, 0.5]",1,1,,,,,,,,,0,7,7,7,0,0,0,5,,,,,,,,,,,,,,,,,,,,,,,,,,,,,,,,,,,,,,,,,,,,,,,,,,,,,,,1387.7807819929994,None,1387.7807819929994,None,1387.7807819929994,None,c,1,0.9411717460006912,1389.3153724779995,None,1389.3153724779995,None,1389.3153724779995,None,1390.3144666649996,None,1390.3144666649996,None,1390.3144666649996,None,1390.3144666649996,None,,,,,,,,,,,,,,,,,,,,,,,,,,,,,,,,,,,,,,,,,,,,001,6,2020_Jan_28_1030,spring_faces,3.1.5,59.94195029701062,
condition files/Stage1_2.xlsx,,B1,T1,c,"['c', 'm']","['Clue', 'Monopoly']","[-0.15, 0.5]","[0.15, 0.5]",1,1,,,,,,,,,0,7,7,7,0,1,1,0,,,,,,,,,,,,,,,,,,,,,,,,,,,,,,,,,,,,,,,,,,,,,,,,,,,,,,,1392.2807223520003,None,1392.2807223520003,None,1392.2807223520003,None,c,1,0.47202091999861295,1393.8165016190005,None,1393.8165016190005,None,1393.8165016190005,None,1394.3479339249998,None,1394.3479339249998,None,1394.3479339249998,None,1394.3479339249998,None,,,,,,,,,,,,,,,,,,,,,,,,,,,,,,,,,,,,,,,,,,,,001,6,2020_Jan_28_1030,spring_faces,3.1.5,59.94195029701062,
condition files/Stage1_2.xlsx,,T3,B3,c,"['c', 'm']","['Clue', 'Monopoly']","[-0.15, 0.5]","[0.15, 0.5]",1,1,,,,,,,,,0,7,7,7,0,2,2,4,,,,,,,,,,,,,,,,,,,,,,,,,,,,,,,,,,,,,,,,,,,,,,,,,,,,,,,1396.3137947160003,None,1396.3137947160003,None,1396.3137947160003,None,c,1,0.5997970970001916,1397.848629430001,None,1397.848629430001,None,1397.848629430001,None,1398.5141421790004,None,1398.5141421790004,None,1398.5141421790004,None,1398.5141421790004,None,,,,,,,,,,,,,,,,,,,,,,,,,,,,,,,,,,,,,,,,,,,,001,6,2020_Jan_28_1030,spring_faces,3.1.5,59.94195029701062,
condition files/Stage1_2.xlsx,,T2,B1,c,"['c', 'm']","['Clue', 'Monopoly']","[-0.15, 0.5]","[0.15, 0.5]",1,1,,,,,,,,,0,7,7,7,0,3,3,1,,,,,,,,,,,,,,,,,,,,,,,,,,,,,,,,,,,,,,,,,,,,,,,,,,,,,,,1400.4803413430009,None,1400.4803413430009,None,1400.4803413430009,None,m,0,2.3866824789984094,1402.013760095001,None,1402.013760095001,None,1402.013760095001,None,1404.4642997889996,None,1404.4642997889996,None,1404.4642997889996,None,1404.4642997889996,None,,,,,,,,,,,,,,,,,,,,,,,,,,,,,,,,,,,,,,,,,,,,001,6,2020_Jan_28_1030,spring_faces,3.1.5,59.94195029701062,
condition files/Stage1_2.xlsx,,B3,T4,m,"['c', 'm']","['Clue', 'Monopoly']","[-0.15, 0.5]","[0.15, 0.5]",1,1,,,,,,,,,0,7,7,7,0,4,4,6,,,,,,,,,,,,,,,,,,,,,,,,,,,,,,,,,,,,,,,,,,,,,,,,,,,,,,,1406.4307123900007,None,1406.4307123900007,None,1406.4307123900007,None,c,0,0.38845546199991077,1407.964022594001,None,1407.964022594001,None,1407.964022594001,None,1408.4148879630002,None,1408.4148879630002,None,1408.4148879630002,None,1408.4148879630002,None,,,,,,,,,,,,,,,,,,,,,,,,,,,,,,,,,,,,,,,,,,,,001,6,2020_Jan_28_1030,spring_faces,3.1.5,59.94195029701062,
condition files/Stage1_2.xlsx,,B2,T2,m,"['c', 'm']","['Clue', 'Monopoly']","[-0.15, 0.5]","[0.15, 0.5]",1,1,,,,,,,,,0,7,7,7,0,5,5,3,,,,,,,,,,,,,,,,,,,,,,,,,,,,,,,,,,,,,,,,,,,,,,,,,,,,,,,1410.3804240920008,None,1410.3804240920008,None,1410.3804240920008,None,m,1,0.40563462800128036,1411.914828285001,None,1411.914828285001,None,1411.914828285001,None,1412.381993465001,None,1412.381993465001,None,1412.381993465001,None,1412.381993465001,None,,,,,,,,,,,,,,,,,,,,,,,,,,,,,,,,,,,,,,,,,,,,001,6,2020_Jan_28_1030,spring_faces,3.1.5,59.94195029701062,
condition files/Stage1_2.xlsx,,T1,B2,m,"['c', 'm']","['Clue', 'Monopoly']","[-0.15, 0.5]","[0.15, 0.5]",1,1,,,,,,,,,0,7,7,7,0,6,6,2,,,,,,,,,,,,,,,,,,,,,,,,,,,,,,,,,,,,,,,,,,,,,,,,,,,,,,,1414.3473441800006,None,1414.3473441800006,None,1414.3473441800006,None,m,1,0.6313959750004869,1415.8810598320006,None,1415.8810598320006,None,1415.8810598320006,None,1416.5636524089996,None,1416.5636524089996,None,1416.5636524089996,None,1416.5636524089996,None,,,,,,,,,,,,,,,,,,,,,,,,,,,,,,,,,,,,,,,,,,,,001,6,2020_Jan_28_1030,spring_faces,3.1.5,59.94195029701062,
condition files/Stage1_2.xlsx,,T4,B4,m,"['c', 'm']","['Clue', 'Monopoly']","[-0.15, 0.5]","[0.15, 0.5]",1,1,,,,,,,,,0,7,7,7,0,7,7,7,,,,,,,,,,,,,,,,,,,,,,,,,,,,,,,,,,,,,,,,,,,,,,,,,,,,,,,1418.5300762119996,None,1418.5300762119996,None,1418.5300762119996,None,m,1,1.2481954869999754,1420.0642620900007,None,1420.0642620900007,None,1420.0642620900007,None,1421.3640202920005,None,1421.3640202920005,None,1421.3640202920005,None,1421.3640202920005,None,,,,,,,,,,,,,,,,,,,,,,,,,,,,,,,,,,,,,,,,,,,,001,6,2020_Jan_28_1030,spring_faces,3.1.5,59.94195029701062,
condition files/Stage1_1.xlsx,,T4,B3,m,"['c', 'm']","['Clue', 'Monopoly']","[-0.15, 0.5]","[0.15, 0.5]",1,1,,,,,,,,,0,8,8,8,0,0,0,6,,,,,,,,,,,,,,,,,,,,,,,,,,,,,,,,,,,,,,,,,,,,,,,,,,,,,,,1423.3473965889998,None,1423.3473965889998,None,1423.3473965889998,None,m,1,0.5598965320004936,1424.880560177001,None,1424.880560177001,None,1424.880560177001,None,1425.4972932259998,None,1425.4972932259998,None,1425.4972932259998,None,1425.4972932259998,None,,,,,,,,,,,,,,,,,,,,,,,,,,,,,,,,,,,,,,,,,,,,001,6,2020_Jan_28_1030,spring_faces,3.1.5,59.94195029701062,
condition files/Stage1_1.xlsx,,B4,T4,m,"['c', 'm']","['Clue', 'Monopoly']","[-0.15, 0.5]","[0.15, 0.5]",1,1,,,,,,,,,0,8,8,8,0,1,1,7,,,,,,,,,,,,,,,,,,,,,,,,,,,,,,,,,,,,,,,,,,,,,,,,,,,,,,,1427.4644631230012,None,1427.4644631230012,None,1427.4644631230012,None,m,1,0.2822611860010511,1428.998188722001,None,1428.998188722001,None,1428.998188722001,None,1429.331088635,None,1429.331088635,None,1429.331088635,None,1429.331088635,None,,,,,,,,,,,,,,,,,,,,,,,,,,,,,,,,,,,,,,,,,,,,001,6,2020_Jan_28_1030,spring_faces,3.1.5,59.94195029701062,
condition files/Stage1_1.xlsx,,T3,B4,c,"['c', 'm']","['Clue', 'Monopoly']","[-0.15, 0.5]","[0.15, 0.5]",1,1,,,,,,,,,0,8,8,8,0,2,2,5,,,,,,,,,,,,,,,,,,,,,,,,,,,,,,,,,,,,,,,,,,,,,,,,,,,,,,,1431.2973090759997,None,1431.2973090759997,None,1431.2973090759997,None,m,0,0.36885913699916273,1432.8475850019995,None,1432.8475850019995,None,1432.8475850019995,None,1433.2970187870005,None,1433.2970187870005,None,1433.2970187870005,None,1433.2970187870005,None,,,,,,,,,,,,,,,,,,,,,,,,,,,,,,,,,,,,,,,,,,,,001,6,2020_Jan_28_1030,spring_faces,3.1.5,59.94195029701062,
condition files/Stage1_1.xlsx,,T1,B1,c,"['c', 'm']","['Clue', 'Monopoly']","[-0.15, 0.5]","[0.15, 0.5]",1,1,,,,,,,,,0,8,8,8,0,3,3,0,,,,,,,,,,,,,,,,,,,,,,,,,,,,,,,,,,,,,,,,,,,,,,,,,,,,,,,1435.2467078929994,None,1435.2467078929994,None,1435.2467078929994,None,m,0,0.32339297299949976,1436.7971267750008,None,1436.7971267750008,None,1436.7971267750008,None,1437.1809983850007,None,1437.1809983850007,None,1437.1809983850007,None,1437.1809983850007,None,,,,,,,,,,,,,,,,,,,,,,,,,,,,,,,,,,,,,,,,,,,,001,6,2020_Jan_28_1030,spring_faces,3.1.5,59.94195029701062,
condition files/Stage1_1.xlsx,,T2,B2,m,"['c', 'm']","['Clue', 'Monopoly']","[-0.15, 0.5]","[0.15, 0.5]",1,1,,,,,,,,,0,8,8,8,0,4,4,3,,,,,,,,,,,,,,,,,,,,,,,,,,,,,,,,,,,,,,,,,,,,,,,,,,,,,,,1439.1473970380002,None,1439.1473970380002,None,1439.1473970380002,None,m,1,2.0227483500002563,1440.6817827290006,None,1440.6817827290006,None,1440.6817827290006,None,1442.7808638760007,None,1442.7808638760007,None,1442.7808638760007,None,1442.7808638760007,None,,,,,,,,,,,,,,,,,,,,,,,,,,,,,,,,,,,,,,,,,,,,001,6,2020_Jan_28_1030,spring_faces,3.1.5,59.94195029701062,
condition files/Stage1_1.xlsx,,B1,T2,c,"['c', 'm']","['Clue', 'Monopoly']","[-0.15, 0.5]","[0.15, 0.5]",1,1,,,,,,,,,0,8,8,8,0,5,5,1,,,,,,,,,,,,,,,,,,,,,,,,,,,,,,,,,,,,,,,,,,,,,,,,,,,,,,,1444.7309700790001,None,1444.7309700790001,None,1444.7309700790001,None,m,0,0.5837214069997572,1446.2646966969996,None,1446.2646966969996,None,1446.2646966969996,None,1446.9303672230008,None,1446.9303672230008,None,1446.9303672230008,None,1446.9303672230008,None,,,,,,,,,,,,,,,,,,,,,,,,,,,,,,,,,,,,,,,,,,,,001,6,2020_Jan_28_1030,spring_faces,3.1.5,59.94195029701062,
condition files/Stage1_1.xlsx,,B2,T1,m,"['c', 'm']","['Clue', 'Monopoly']","[-0.15, 0.5]","[0.15, 0.5]",1,1,,,,,,,,,0,8,8,8,0,6,6,2,,,,,,,,,,,,,,,,,,,,,,,,,,,,,,,,,,,,,,,,,,,,,,,,,,,,,,,1448.880133810001,None,1448.880133810001,None,1448.880133810001,None,m,1,0.3681320310006413,1450.4163288909995,None,1450.4163288909995,None,1450.4163288909995,None,1450.8642798480005,None,1450.8642798480005,None,1450.8642798480005,None,1450.8642798480005,None,,,,,,,,,,,,,,,,,,,,,,,,,,,,,,,,,,,,,,,,,,,,001,6,2020_Jan_28_1030,spring_faces,3.1.5,59.94195029701062,
condition files/Stage1_1.xlsx,,B3,T3,c,"['c', 'm']","['Clue', 'Monopoly']","[-0.15, 0.5]","[0.15, 0.5]",1,1,,,,,,,,,0,8,8,8,0,7,7,4,,,,,,,,,,,,,,,,,,,,,,,,,,,,,,,,,,,,,,,,,,,,,,,,,,,,,,,1452.8140101529998,None,1452.8140101529998,None,1452.8140101529998,None,m,0,0.5480417590006255,1454.348417798,None,1454.348417798,None,1454.348417798,None,1454.9492611510004,None,1454.9492611510004,None,1454.9492611510004,None,1454.9492611510004,None,,,,,,,,,,,,,,,,,,,,,,,,,,,,,,,,,,,,,,,,,,,,001,6,2020_Jan_28_1030,spring_faces,3.1.5,59.94195029701062,
condition files/Stage1_2.xlsx,,B1,T1,c,"['c', 'm']","['Clue', 'Monopoly']","[-0.15, 0.5]","[0.15, 0.5]",1,1,,,,,,,,,0,9,9,9,0,0,0,0,,,,,,,,,,,,,,,,,,,,,,,,,,,,,,,,,,,,,,,,,,,,,,,,,,,,,,,1456.9309178560006,None,1456.9309178560006,None,1456.9309178560006,None,m,0,0.47844300100041437,1458.465967649,None,1458.465967649,None,1458.465967649,None,1458.9979357540005,None,1458.9979357540005,None,1458.9979357540005,None,1458.9979357540005,None,,,,,,,,,,,,,,,,,,,,,,,,,,,,,,,,,,,,,,,,,,,,001,6,2020_Jan_28_1030,spring_faces,3.1.5,59.94195029701062,
condition files/Stage1_2.xlsx,,T2,B1,c,"['c', 'm']","['Clue', 'Monopoly']","[-0.15, 0.5]","[0.15, 0.5]",1,1,,,,,,,,,0,9,9,9,0,1,1,1,,,,,,,,,,,,,,,,,,,,,,,,,,,,,,,,,,,,,,,,,,,,,,,,,,,,,,,1460.9639844080002,None,1460.9639844080002,None,1460.9639844080002,None,c,1,0.6549507020008605,1462.4975102319995,None,1462.4975102319995,None,1462.4975102319995,None,1463.2137617399994,None,1463.2137617399994,None,1463.2137617399994,None,1463.2137617399994,None,,,,,,,,,,,,,,,,,,,,,,,,,,,,,,,,,,,,,,,,,,,,001,6,2020_Jan_28_1030,spring_faces,3.1.5,59.94195029701062,
condition files/Stage1_2.xlsx,,B3,T4,m,"['c', 'm']","['Clue', 'Monopoly']","[-0.15, 0.5]","[0.15, 0.5]",1,1,,,,,,,,,0,9,9,9,0,2,2,6,,,,,,,,,,,,,,,,,,,,,,,,,,,,,,,,,,,,,,,,,,,,,,,,,,,,,,,1465.180562759001,None,1465.180562759001,None,1465.180562759001,None,c,0,0.2950204320004559,1466.7134080580008,None,1466.7134080580008,None,1466.7134080580008,None,1467.0650298980008,None,1467.0650298980008,None,1467.0650298980008,None,1467.0650298980008,None,,,,,,,,,,,,,,,,,,,,,,,,,,,,,,,,,,,,,,,,,,,,001,6,2020_Jan_28_1030,spring_faces,3.1.5,59.94195029701062,
condition files/Stage1_2.xlsx,,T1,B2,m,"['c', 'm']","['Clue', 'Monopoly']","[-0.15, 0.5]","[0.15, 0.5]",1,1,,,,,,,,,0,9,9,9,0,3,3,2,,,,,,,,,,,,,,,,,,,,,,,,,,,,,,,,,,,,,,,,,,,,,,,,,,,,,,,1469.030779615,None,1469.030779615,None,1469.030779615,None,c,0,1.4992767880012252,1470.5811572110006,None,1470.5811572110006,None,1470.5811572110006,None,1472.1312295710004,None,1472.1312295710004,None,1472.1312295710004,None,1472.1312295710004,None,,,,,,,,,,,,,,,,,,,,,,,,,,,,,,,,,,,,,,,,,,,,001,6,2020_Jan_28_1030,spring_faces,3.1.5,59.94195029701062,
condition files/Stage1_2.xlsx,,T3,B3,c,"['c', 'm']","['Clue', 'Monopoly']","[-0.15, 0.5]","[0.15, 0.5]",1,1,,,,,,,,,0,9,9,9,0,4,4,4,,,,,,,,,,,,,,,,,,,,,,,,,,,,,,,,,,,,,,,,,,,,,,,,,,,,,,,1474.0970204430005,None,1474.0970204430005,None,1474.0970204430005,None,m,0,0.08179806099906273,1475.6306617729997,None,1475.6306617729997,None,1475.6306617729997,None,1475.7671997709995,None,1475.7671997709995,None,1475.7671997709995,None,1475.7671997709995,None,,,,,,,,,,,,,,,,,,,,,,,,,,,,,,,,,,,,,,,,,,,,001,6,2020_Jan_28_1030,spring_faces,3.1.5,59.94195029701062,
condition files/Stage1_2.xlsx,,B2,T2,m,"['c', 'm']","['Clue', 'Monopoly']","[-0.15, 0.5]","[0.15, 0.5]",1,1,,,,,,,,,0,9,9,9,0,5,5,3,,,,,,,,,,,,,,,,,,,,,,,,,,,,,,,,,,,,,,,,,,,,,,,,,,,,,,,1477.7307624350005,None,1477.7307624350005,None,1477.7307624350005,None,m,1,0.3362852649988781,1479.2801636739996,None,1479.2801636739996,None,1479.2801636739996,None,1479.6970681619996,None,1479.6970681619996,None,1479.6970681619996,None,1479.6970681619996,None,,,,,,,,,,,,,,,,,,,,,,,,,,,,,,,,,,,,,,,,,,,,001,6,2020_Jan_28_1030,spring_faces,3.1.5,59.94195029701062,
condition files/Stage1_2.xlsx,,T4,B4,m,"['c', 'm']","['Clue', 'Monopoly']","[-0.15, 0.5]","[0.15, 0.5]",1,1,,,,,,,,,0,9,9,9,0,6,6,7,,,,,,,,,,,,,,,,,,,,,,,,,,,,,,,,,,,,,,,,,,,,,,,,,,,,,,,1481.6475001629997,None,1481.6475001629997,None,1481.6475001629997,None,m,1,0.8674951499997405,1483.1809053940005,None,1483.1809053940005,None,1483.1809053940005,None,1484.1143936990002,None,1484.1143936990002,None,1484.1143936990002,None,1484.1143936990002,None,,,,,,,,,,,,,,,,,,,,,,,,,,,,,,,,,,,,,,,,,,,,001,6,2020_Jan_28_1030,spring_faces,3.1.5,59.94195029701062,
condition files/Stage1_2.xlsx,,B4,T3,c,"['c', 'm']","['Clue', 'Monopoly']","[-0.15, 0.5]","[0.15, 0.5]",1,1,,,,,,,,,0,9,9,9,0,7,7,5,,,,,,,,,,,,,,,,,,,,,,,,,,,,,,,,,,,,,,,,,,,,,,,,,,,,,,,1486.0808363210008,None,1486.0808363210008,None,1486.0808363210008,None,m,0,0.6095250149992353,1487.6309125729995,None,1487.6309125729995,None,1487.6309125729995,None,1488.299878756,None,1488.299878756,None,1488.299878756,None,1488.299878756,None,,,,,,,,,,,,,,,,,,,,,,,,,,,,,,,,,,,,,,,,,,,,001,6,2020_Jan_28_1030,spring_faces,3.1.5,59.94195029701062,
condition files/Stage1_1.xlsx,,T4,B3,m,"['c', 'm']","['Clue', 'Monopoly']","[-0.15, 0.5]","[0.15, 0.5]",1,1,,,,,,,,,0,10,10,10,0,0,0,6,,,,,,,,,,,,,,,,,,,,,,,,,,,,,,,,,,,,,,,,,,,,,,,,,,,,,,,1490.2807318959995,None,1490.2807318959995,None,1490.2807318959995,None,m,1,0.7145373940002173,1491.8139251620005,None,1491.8139251620005,None,1491.8139251620005,None,1492.5826632850012,None,1492.5826632850012,None,1492.5826632850012,None,1492.5826632850012,None,,,,,,,,,,,,,,,,,,,,,,,,,,,,,,,,,,,,,,,,,,,,001,6,2020_Jan_28_1030,spring_faces,3.1.5,59.94195029701062,
condition files/Stage1_1.xlsx,,T3,B4,c,"['c', 'm']","['Clue', 'Monopoly']","[-0.15, 0.5]","[0.15, 0.5]",1,1,,,,,,,,,0,10,10,10,0,1,1,5,,,,,,,,,,,,,,,,,,,,,,,,,,,,,,,,,,,,,,,,,,,,,,,,,,,,,,,1494.5466506000002,None,1494.5466506000002,None,1494.5466506000002,None,m,0,0.5091908020003757,1496.0832566340005,None,1496.0832566340005,None,1496.0832566340005,None,1496.6498250350005,None,1496.6498250350005,None,1496.6498250350005,None,1496.6498250350005,None,,,,,,,,,,,,,,,,,,,,,,,,,,,,,,,,,,,,,,,,,,,,001,6,2020_Jan_28_1030,spring_faces,3.1.5,59.94195029701062,
condition files/Stage1_1.xlsx,,B4,T4,m,"['c', 'm']","['Clue', 'Monopoly']","[-0.15, 0.5]","[0.15, 0.5]",1,1,,,,,,,,,0,10,10,10,0,2,2,7,,,,,,,,,,,,,,,,,,,,,,,,,,,,,,,,,,,,,,,,,,,,,,,,,,,,,,,1498.6141052510002,None,1498.6141052510002,None,1498.6141052510002,None,c,0,1.9304665449999447,1500.1499850049995,None,1500.1499850049995,None,1500.1499850049995,None,1502.1475721390007,None,1502.1475721390007,None,1502.1475721390007,None,1502.1475721390007,None,,,,,,,,,,,,,,,,,,,,,,,,,,,,,,,,,,,,,,,,,,,,001,6,2020_Jan_28_1030,spring_faces,3.1.5,59.94195029701062,
condition files/Stage1_1.xlsx,,B1,T2,c,"['c', 'm']","['Clue', 'Monopoly']","[-0.15, 0.5]","[0.15, 0.5]",1,1,,,,,,,,,0,10,10,10,0,3,3,1,,,,,,,,,,,,,,,,,,,,,,,,,,,,,,,,,,,,,,,,,,,,,,,,,,,,,,,1504.0973878089999,None,1504.0973878089999,None,1504.0973878089999,None,m,0,0.5442856600002415,1505.632156939001,None,1505.632156939001,None,1505.632156939001,None,1506.2475746270002,None,1506.2475746270002,None,1506.2475746270002,None,1506.2475746270002,None,,,,,,,,,,,,,,,,,,,,,,,,,,,,,,,,,,,,,,,,,,,,001,6,2020_Jan_28_1030,spring_faces,3.1.5,59.94195029701062,
condition files/Stage1_1.xlsx,,B3,T3,c,"['c', 'm']","['Clue', 'Monopoly']","[-0.15, 0.5]","[0.15, 0.5]",1,1,,,,,,,,,0,10,10,10,0,4,4,4,,,,,,,,,,,,,,,,,,,,,,,,,,,,,,,,,,,,,,,,,,,,,,,,,,,,,,,1508.1967885109998,None,1508.1967885109998,None,1508.1967885109998,None,m,0,0.38055707800049277,1509.7478833449995,None,1509.7478833449995,None,1509.7478833449995,None,1510.180741725001,None,1510.180741725001,None,1510.180741725001,None,1510.180741725001,None,,,,,,,,,,,,,,,,,,,,,,,,,,,,,,,,,,,,,,,,,,,,001,6,2020_Jan_28_1030,spring_faces,3.1.5,59.94195029701062,
condition files/Stage1_1.xlsx,,T1,B1,c,"['c', 'm']","['Clue', 'Monopoly']","[-0.15, 0.5]","[0.15, 0.5]",1,1,,,,,,,,,0,10,10,10,0,5,5,0,,,,,,,,,,,,,,,,,,,,,,,,,,,,,,,,,,,,,,,,,,,,,,,,,,,,,,,1512.1473576840008,None,1512.1473576840008,None,1512.1473576840008,None,c,1,1.4871093210003892,1513.697339229001,None,1513.697339229001,None,1513.697339229001,None,1515.2477349909996,None,1515.2477349909996,None,1515.2477349909996,None,1515.2477349909996,None,,,,,,,,,,,,,,,,,,,,,,,,,,,,,,,,,,,,,,,,,,,,001,6,2020_Jan_28_1030,spring_faces,3.1.5,59.94195029701062,
condition files/Stage1_1.xlsx,,B2,T1,m,"['c', 'm']","['Clue', 'Monopoly']","[-0.15, 0.5]","[0.15, 0.5]",1,1,,,,,,,,,0,10,10,10,0,6,6,2,,,,,,,,,,,,,,,,,,,,,,,,,,,,,,,,,,,,,,,,,,,,,,,,,,,,,,,1517.213842293001,None,1517.213842293001,None,1517.213842293001,None,c,0,0.5007310880009754,1518.7476836710002,None,1518.7476836710002,None,1518.7476836710002,None,1519.331030368,None,1519.331030368,None,1519.331030368,None,1519.331030368,None,,,,,,,,,,,,,,,,,,,,,,,,,,,,,,,,,,,,,,,,,,,,001,6,2020_Jan_28_1030,spring_faces,3.1.5,59.94195029701062,
condition files/Stage1_1.xlsx,,T2,B2,m,"['c', 'm']","['Clue', 'Monopoly']","[-0.15, 0.5]","[0.15, 0.5]",1,1,,,,,,,,,0,10,10,10,0,7,7,3,,,,,,,,,,,,,,,,,,,,,,,,,,,,,,,,,,,,,,,,,,,,,,,,,,,,,,,1521.2811573500012,None,1521.2811573500012,None,1521.2811573500012,None,c,0,0.46709885699965525,1522.813365848001,None,1522.813365848001,None,1522.813365848001,None,1523.3303238260005,None,1523.3303238260005,None,1523.3303238260005,None,1523.3303238260005,None,,,,,,,,,,,,,,,,,,,,,,,,,,,,,,,,,,,,,,,,,,,,001,6,2020_Jan_28_1030,spring_faces,3.1.5,59.94195029701062,
condition files/Stage1_2.xlsx,,B1,T1,c,"['c', 'm']","['Clue', 'Monopoly']","[-0.15, 0.5]","[0.15, 0.5]",1,1,,,,,,,,,0,11,11,11,0,0,0,0,,,,,,,,,,,,,,,,,,,,,,,,,,,,,,,,,,,,,,,,,,,,,,,,,,,,,,,1525.3143134129996,None,1525.3143134129996,None,1525.3143134129996,None,m,0,0.6243212919998768,1526.8642048280008,None,1526.8642048280008,None,1526.8642048280008,None,1527.5489516870011,None,1527.5489516870011,None,1527.5489516870011,None,1527.5489516870011,None,,,,,,,,,,,,,,,,,,,,,,,,,,,,,,,,,,,,,,,,,,,,001,6,2020_Jan_28_1030,spring_faces,3.1.5,59.94195029701062,
condition files/Stage1_2.xlsx,,T2,B1,c,"['c', 'm']","['Clue', 'Monopoly']","[-0.15, 0.5]","[0.15, 0.5]",1,1,,,,,,,,,0,11,11,11,0,1,1,1,,,,,,,,,,,,,,,,,,,,,,,,,,,,,,,,,,,,,,,,,,,,,,,,,,,,,,,1529.5140008879998,None,1529.5140008879998,None,1529.5140008879998,None,m,0,0.6789959090001503,1531.0494603329998,None,1531.0494603329998,None,1531.0494603329998,None,1531.7811299970008,None,1531.7811299970008,None,1531.7811299970008,None,1531.7811299970008,None,,,,,,,,,,,,,,,,,,,,,,,,,,,,,,,,,,,,,,,,,,,,001,6,2020_Jan_28_1030,spring_faces,3.1.5,59.94195029701062,
condition files/Stage1_2.xlsx,,B4,T3,c,"['c', 'm']","['Clue', 'Monopoly']","[-0.15, 0.5]","[0.15, 0.5]",1,1,,,,,,,,,0,11,11,11,0,2,2,5,,,,,,,,,,,,,,,,,,,,,,,,,,,,,,,,,,,,,,,,,,,,,,,,,,,,,,,1533.7474520410005,None,1533.7474520410005,None,1533.7474520410005,None,c,1,0.638367305000429,1535.2821499330012,None,1535.2821499330012,None,1535.2821499330012,None,1535.9809735560002,None,1535.9809735560002,None,1535.9809735560002,None,1535.9809735560002,None,,,,,,,,,,,,,,,,,,,,,,,,,,,,,,,,,,,,,,,,,,,,001,6,2020_Jan_28_1030,spring_faces,3.1.5,59.94195029701062,
condition files/Stage1_2.xlsx,,T3,B3,c,"['c', 'm']","['Clue', 'Monopoly']","[-0.15, 0.5]","[0.15, 0.5]",1,1,,,,,,,,,0,11,11,11,0,3,3,4,,,,,,,,,,,,,,,,,,,,,,,,,,,,,,,,,,,,,,,,,,,,,,,,,,,,,,,1537.9474338150003,None,1537.9474338150003,None,1537.9474338150003,None,c,1,2.5671250250015873,1539.497270424,None,1539.497270424,None,1539.497270424,None,1542.1307581190003,None,1542.1307581190003,None,1542.1307581190003,None,1542.1307581190003,None,,,,,,,,,,,,,,,,,,,,,,,,,,,,,,,,,,,,,,,,,,,,001,6,2020_Jan_28_1030,spring_faces,3.1.5,59.94195029701062,
condition files/Stage1_2.xlsx,,B2,T2,m,"['c', 'm']","['Clue', 'Monopoly']","[-0.15, 0.5]","[0.15, 0.5]",1,1,,,,,,,,,0,11,11,11,0,4,4,3,,,,,,,,,,,,,,,,,,,,,,,,,,,,,,,,,,,,,,,,,,,,,,,,,,,,,,,1544.0968109350006,None,1544.0968109350006,None,1544.0968109350006,None,c,0,0.8968768880004063,1545.6475710019995,None,1545.6475710019995,None,1545.6475710019995,None,1546.5998033120004,None,1546.5998033120004,None,1546.5998033120004,None,1546.5998033120004,None,,,,,,,,,,,,,,,,,,,,,,,,,,,,,,,,,,,,,,,,,,,,001,6,2020_Jan_28_1030,spring_faces,3.1.5,59.94195029701062,
condition files/Stage1_2.xlsx,,B3,T4,m,"['c', 'm']","['Clue', 'Monopoly']","[-0.15, 0.5]","[0.15, 0.5]",1,1,,,,,,,,,0,11,11,11,0,5,5,6,,,,,,,,,,,,,,,,,,,,,,,,,,,,,,,,,,,,,,,,,,,,,,,,,,,,,,,1548.5637536990007,None,1548.5637536990007,None,1548.5637536990007,None,c,0,2.430730078000124,1550.097727913001,None,1550.097727913001,None,1550.097727913001,None,1552.5810390720007,None,1552.5810390720007,None,1552.5810390720007,None,1552.5810390720007,None,,,,,,,,,,,,,,,,,,,,,,,,,,,,,,,,,,,,,,,,,,,,001,6,2020_Jan_28_1030,spring_faces,3.1.5,59.94195029701062,
condition files/Stage1_2.xlsx,,T4,B4,m,"['c', 'm']","['Clue', 'Monopoly']","[-0.15, 0.5]","[0.15, 0.5]",1,1,,,,,,,,,0,11,11,11,0,6,6,7,,,,,,,,,,,,,,,,,,,,,,,,,,,,,,,,,,,,,,,,,,,,,,,,,,,,,,,1554.5475091090002,None,1554.5475091090002,None,1554.5475091090002,None,c,0,0.431630633000168,1556.0808311179999,None,1556.0808311179999,None,1556.0808311179999,None,1556.5638576890005,None,1556.5638576890005,None,1556.5638576890005,None,1556.5638576890005,None,,,,,,,,,,,,,,,,,,,,,,,,,,,,,,,,,,,,,,,,,,,,001,6,2020_Jan_28_1030,spring_faces,3.1.5,59.94195029701062,
condition files/Stage1_2.xlsx,,T1,B2,m,"['c', 'm']","['Clue', 'Monopoly']","[-0.15, 0.5]","[0.15, 0.5]",1,1,,,,,,,,,0,11,11,11,0,7,7,2,,,,,,,,,,,,,,,,,,,,,,,,,,,,,,,,,,,,,,,,,,,,,,,,,,,,,,,1558.5304087060003,None,1558.5304087060003,None,1558.5304087060003,None,c,0,1.6462021419993107,1560.0662565820012,None,1560.0662565820012,None,1560.0662565820012,None,1561.7645247669998,None,1561.7645247669998,None,1561.7645247669998,None,1561.7645247669998,None,,,,,,,,,,,,,,,,,,,,,,,,,,,,,,,,,,,,,,,,,,,,001,6,2020_Jan_28_1030,spring_faces,3.1.5,59.94195029701062,
,,,,,,,,,,,,,,,,,,,,,,,,,,,,,,,,,,,,,,,,,,,,,,,,,,,,,,,,,,,,,,,,,,,,,,,,,,,,,,,,,,,,,,,,,,,,,,,,,,,,,,,,,,,,,,,,1563.7474467800012,None,space,5.220827500999803,1568.747618362001,None,,,,,,,,,,,,,,,,,,,,,,,,,,,,,,001,6,2020_Jan_28_1030,spring_faces,3.1.5,59.94195029701062,
condition files/Stage2_1.xlsx,,T1,B1,s,"['s', 'r']","['Stratego', 'Risk']","[-0.15, 0.5]","[0.15, 0.5]",1,1,,,,,,,,,,,,,,,,,0,0,0,0,0,0,0,2,,,,,,,,,,,,,,,,,,,,,,,,,,,,,,,,,,,,,,,,,,,,,,,1574.0307989000003,None,1574.0307989000003,None,1574.0307989000003,None,s,1,1.2049217820003832,1575.5475584900005,None,1575.5475584900005,None,1575.5475584900005,None,1576.815163847,None,1576.815163847,None,1576.815163847,None,1576.815163847,None,,,,,,,,,,,,,,,1568.747618362001,None,,,,,,,,,,,,,,,,,,,,,,,,,,,,001,6,2020_Jan_28_1030,spring_faces,3.1.5,59.94195029701062,
condition files/Stage2_1.xlsx,,T5,B5,s,"['s', 'r']","['Stratego', 'Risk']","[-0.15, 0.5]","[0.15, 0.5]",1,1,,,,,,,,,,,,,,,,,0,0,0,0,0,1,1,0,,,,,,,,,,,,,,,,,,,,,,,,,,,,,,,,,,,,,,,,,,,,,,,1578.7806459040012,None,1578.7806459040012,None,1578.7806459040012,None,r,0,1.3665435980001348,1580.313913031,None,1580.313913031,None,1580.313913031,None,1581.7306041390011,None,1581.7306041390011,None,1581.7306041390011,None,1581.7306041390011,None,,,,,,,,,,,,,,,,,,,,,,,,,,,,,,,,,,,,,,,,,,,,001,6,2020_Jan_28_1030,spring_faces,3.1.5,59.94195029701062,
condition files/Stage2_1.xlsx,,B2,T2,r,"['s', 'r']","['Stratego', 'Risk']","[-0.15, 0.5]","[0.15, 0.5]",1,1,,,,,,,,,,,,,,,,,0,0,0,0,0,2,2,3,,,,,,,,,,,,,,,,,,,,,,,,,,,,,,,,,,,,,,,,,,,,,,,1583.6975650640006,None,1583.6975650640006,None,1583.6975650640006,None,r,1,1.7138819550000335,1585.2305686560003,None,1585.2305686560003,None,1585.2305686560003,None,1586.997806642,None,1586.997806642,None,1586.997806642,None,1586.997806642,None,,,,,,,,,,,,,,,,,,,,,,,,,,,,,,,,,,,,,,,,,,,,001,6,2020_Jan_28_1030,spring_faces,3.1.5,59.94195029701062,
condition files/Stage2_1.xlsx,,T3,B3,s,"['s', 'r']","['Stratego', 'Risk']","[-0.15, 0.5]","[0.15, 0.5]",1,1,,,,,,,,,,,,,,,,,0,0,0,0,0,3,3,4,,,,,,,,,,,,,,,,,,,,,,,,,,,,,,,,,,,,,,,,,,,,,,,1588.9638396029995,None,1588.9638396029995,None,1588.9638396029995,None,r,0,1.1671485799997754,1590.4972634209998,None,1590.4972634209998,None,1590.4972634209998,None,1591.7477593859994,None,1591.7477593859994,None,1591.7477593859994,None,1591.7477593859994,None,,,,,,,,,,,,,,,,,,,,,,,,,,,,,,,,,,,,,,,,,,,,001,6,2020_Jan_28_1030,spring_faces,3.1.5,59.94195029701062,
condition files/Stage2_1.xlsx,,B4,T4,r,"['s', 'r']","['Stratego', 'Risk']","[-0.15, 0.5]","[0.15, 0.5]",1,1,,,,,,,,,,,,,,,,,0,0,0,0,0,4,4,5,,,,,,,,,,,,,,,,,,,,,,,,,,,,,,,,,,,,,,,,,,,,,,,1593.6972202099996,None,1593.6972202099996,None,1593.6972202099996,None,r,1,1.0897168329993292,1595.230821555001,None,1595.230821555001,None,1595.230821555001,None,1596.3807054529998,None,1596.3807054529998,None,1596.3807054529998,None,1596.3807054529998,None,,,,,,,,,,,,,,,,,,,,,,,,,,,,,,,,,,,,,,,,,,,,001,6,2020_Jan_28_1030,spring_faces,3.1.5,59.94195029701062,
condition files/Stage2_1.xlsx,,B6,T6,r,"['s', 'r']","['Stratego', 'Risk']","[-0.15, 0.5]","[0.15, 0.5]",1,1,,,,,,,,,,,,,,,,,0,0,0,0,0,5,5,1,,,,,,,,,,,,,,,,,,,,,,,,,,,,,,,,,,,,,,,,,,,,,,,1598.3474176360005,None,1598.3474176360005,None,1598.3474176360005,None,s,0,0.8229523940008221,1599.8815841229998,None,1599.8815841229998,None,1599.8815841229998,None,1600.763685799001,None,1600.763685799001,None,1600.763685799001,None,1600.763685799001,None,,,,,,,,,,,,,,,,,,,,,,,,,,,,,,,,,,,,,,,,,,,,001,6,2020_Jan_28_1030,spring_faces,3.1.5,59.94195029701062,
condition files/Stage2_2.xlsx,,T2,B2,r,"['s', 'r']","['Stratego', 'Risk']","[-0.15, 0.5]","[0.15, 0.5]",1,1,,,,,,,,,,,,,,,,,0,1,1,1,0,0,0,3,,,,,,,,,,,,,,,,,,,,,,,,,,,,,,,,,,,,,,,,,,,,,,,1602.7471556829996,None,1602.7471556829996,None,1602.7471556829996,None,r,1,1.7820462340005179,1604.282375328,None,1604.282375328,None,1604.282375328,None,1606.1310073980012,None,1606.1310073980012,None,1606.1310073980012,None,1606.1310073980012,None,,,,,,,,,,,,,,,,,,,,,,,,,,,,,,,,,,,,,,,,,,,,001,6,2020_Jan_28_1030,spring_faces,3.1.5,59.94195029701062,
condition files/Stage2_2.xlsx,,B3,T3,s,"['s', 'r']","['Stratego', 'Risk']","[-0.15, 0.5]","[0.15, 0.5]",1,1,,,,,,,,,,,,,,,,,0,1,1,1,0,1,1,4,,,,,,,,,,,,,,,,,,,,,,,,,,,,,,,,,,,,,,,,,,,,,,,1608.0974349950002,None,1608.0974349950002,None,1608.0974349950002,None,s,1,0.9767545850008901,1609.631721502,None,1609.631721502,None,1609.631721502,None,1610.681012072001,None,1610.681012072001,None,1610.681012072001,None,1610.681012072001,None,,,,,,,,,,,,,,,,,,,,,,,,,,,,,,,,,,,,,,,,,,,,001,6,2020_Jan_28_1030,spring_faces,3.1.5,59.94195029701062,
condition files/Stage2_2.xlsx,,B5,T5,s,"['s', 'r']","['Stratego', 'Risk']","[-0.15, 0.5]","[0.15, 0.5]",1,1,,,,,,,,,,,,,,,,,0,1,1,1,0,2,2,0,,,,,,,,,,,,,,,,,,,,,,,,,,,,,,,,,,,,,,,,,,,,,,,1612.6308355089996,None,1612.6308355089996,None,1612.6308355089996,None,r,0,2.028534311999465,1614.163898625001,None,1614.163898625001,None,1614.163898625001,None,1616.2478451140005,None,1616.2478451140005,None,1616.2478451140005,None,1616.2478451140005,None,,,,,,,,,,,,,,,,,,,,,,,,,,,,,,,,,,,,,,,,,,,,001,6,2020_Jan_28_1030,spring_faces,3.1.5,59.94195029701062,
condition files/Stage2_2.xlsx,,T6,B6,r,"['s', 'r']","['Stratego', 'Risk']","[-0.15, 0.5]","[0.15, 0.5]",1,1,,,,,,,,,,,,,,,,,0,1,1,1,0,3,3,1,,,,,,,,,,,,,,,,,,,,,,,,,,,,,,,,,,,,,,,,,,,,,,,1618.213513863001,None,1618.213513863001,None,1618.213513863001,None,r,1,1.4052947209984268,1619.7471755569995,None,1619.7471755569995,None,1619.7471755569995,None,1621.2312294060002,None,1621.2312294060002,None,1621.2312294060002,None,1621.2312294060002,None,,,,,,,,,,,,,,,,,,,,,,,,,,,,,,,,,,,,,,,,,,,,001,6,2020_Jan_28_1030,spring_faces,3.1.5,59.94195029701062,
condition files/Stage2_2.xlsx,,B1,T1,s,"['s', 'r']","['Stratego', 'Risk']","[-0.15, 0.5]","[0.15, 0.5]",1,1,,,,,,,,,,,,,,,,,0,1,1,1,0,4,4,2,,,,,,,,,,,,,,,,,,,,,,,,,,,,,,,,,,,,,,,,,,,,,,,1623.1805826150003,None,1623.1805826150003,None,1623.1805826150003,None,s,1,1.7970599260006566,1624.7154027080005,None,1624.7154027080005,None,1624.7154027080005,None,1626.580390786,None,1626.580390786,None,1626.580390786,None,1626.580390786,None,,,,,,,,,,,,,,,,,,,,,,,,,,,,,,,,,,,,,,,,,,,,001,6,2020_Jan_28_1030,spring_faces,3.1.5,59.94195029701062,
condition files/Stage2_2.xlsx,,T4,B4,r,"['s', 'r']","['Stratego', 'Risk']","[-0.15, 0.5]","[0.15, 0.5]",1,1,,,,,,,,,,,,,,,,,0,1,1,1,0,5,5,5,,,,,,,,,,,,,,,,,,,,,,,,,,,,,,,,,,,,,,,,,,,,,,,1628.5307889330006,None,1628.5307889330006,None,1628.5307889330006,None,s,0,1.7274526649998734,1630.0809867769995,None,1630.0809867769995,None,1630.0809867769995,None,1631.8809137199996,None,1631.8809137199996,None,1631.8809137199996,None,1631.8809137199996,None,,,,,,,,,,,,,,,,,,,,,,,,,,,,,,,,,,,,,,,,,,,,001,6,2020_Jan_28_1030,spring_faces,3.1.5,59.94195029701062,
condition files/Stage2_1.xlsx,,B2,T2,r,"['s', 'r']","['Stratego', 'Risk']","[-0.15, 0.5]","[0.15, 0.5]",1,1,,,,,,,,,,,,,,,,,0,2,2,2,0,0,0,3,,,,,,,,,,,,,,,,,,,,,,,,,,,,,,,,,,,,,,,,,,,,,,,1633.8477062539996,None,1633.8477062539996,None,1633.8477062539996,None,r,1,1.8657806730006996,1635.382642392001,None,1635.382642392001,None,1635.382642392001,None,1637.3135342640007,None,1637.3135342640007,None,1637.3135342640007,None,1637.3135342640007,None,,,,,,,,,,,,,,,,,,,,,,,,,,,,,,,,,,,,,,,,,,,,001,6,2020_Jan_28_1030,spring_faces,3.1.5,59.94195029701062,
condition files/Stage2_1.xlsx,,B6,T6,r,"['s', 'r']","['Stratego', 'Risk']","[-0.15, 0.5]","[0.15, 0.5]",1,1,,,,,,,,,,,,,,,,,0,2,2,2,0,1,1,1,,,,,,,,,,,,,,,,,,,,,,,,,,,,,,,,,,,,,,,,,,,,,,,1639.2806499789995,None,1639.2806499789995,None,1639.2806499789995,None,r,1,2.098215411999263,1640.8142483740003,None,1640.8142483740003,None,1640.8142483740003,None,1642.9640874690003,None,1642.9640874690003,None,1642.9640874690003,None,1642.9640874690003,None,,,,,,,,,,,,,,,,,,,,,,,,,,,,,,,,,,,,,,,,,,,,001,6,2020_Jan_28_1030,spring_faces,3.1.5,59.94195029701062,
condition files/Stage2_1.xlsx,,T5,B5,s,"['s', 'r']","['Stratego', 'Risk']","[-0.15, 0.5]","[0.15, 0.5]",1,1,,,,,,,,,,,,,,,,,0,2,2,2,0,2,2,0,,,,,,,,,,,,,,,,,,,,,,,,,,,,,,,,,,,,,,,,,,,,,,,1644.9308567819999,None,1644.9308567819999,None,1644.9308567819999,None,s,1,0.8474097830003302,1646.481035363001,None,1646.481035363001,None,1646.481035363001,None,1647.3969258820007,None,1647.3969258820007,None,1647.3969258820007,None,1647.3969258820007,None,,,,,,,,,,,,,,,,,,,,,,,,,,,,,,,,,,,,,,,,,,,,001,6,2020_Jan_28_1030,spring_faces,3.1.5,59.94195029701062,
condition files/Stage2_1.xlsx,,B4,T4,r,"['s', 'r']","['Stratego', 'Risk']","[-0.15, 0.5]","[0.15, 0.5]",1,1,,,,,,,,,,,,,,,,,0,2,2,2,0,3,3,5,,,,,,,,,,,,,,,,,,,,,,,,,,,,,,,,,,,,,,,,,,,,,,,1649.3474816030002,None,1649.3474816030002,None,1649.3474816030002,None,s,0,4.542269223000403,1650.8822676900008,None,1650.8822676900008,None,1650.8822676900008,None,1655.496949786001,None,1655.496949786001,None,1655.496949786001,None,1655.496949786001,None,,,,,,,,,,,,,,,,,,,,,,,,,,,,,,,,,,,,,,,,,,,,001,6,2020_Jan_28_1030,spring_faces,3.1.5,59.94195029701062,
condition files/Stage2_1.xlsx,,T1,B1,s,"['s', 'r']","['Stratego', 'Risk']","[-0.15, 0.5]","[0.15, 0.5]",1,1,,,,,,,,,,,,,,,,,0,2,2,2,0,4,4,2,,,,,,,,,,,,,,,,,,,,,,,,,,,,,,,,,,,,,,,,,,,,,,,1657.4474260310008,None,1657.4474260310008,None,1657.4474260310008,None,s,1,1.6750457629987068,1658.981487035001,None,1658.981487035001,None,1658.981487035001,None,1660.716534084001,None,1660.716534084001,None,1660.716534084001,None,1660.716534084001,None,,,,,,,,,,,,,,,,,,,,,,,,,,,,,,,,,,,,,,,,,,,,001,6,2020_Jan_28_1030,spring_faces,3.1.5,59.94195029701062,
condition files/Stage2_1.xlsx,,T3,B3,s,"['s', 'r']","['Stratego', 'Risk']","[-0.15, 0.5]","[0.15, 0.5]",1,1,,,,,,,,,,,,,,,,,0,2,2,2,0,5,5,4,,,,,,,,,,,,,,,,,,,,,,,,,,,,,,,,,,,,,,,,,,,,,,,1662.6807523710004,None,1662.6807523710004,None,1662.6807523710004,None,s,1,1.8161661289996118,1664.2162715780005,None,1664.2162715780005,None,1664.2162715780005,None,1666.0974969850004,None,1666.0974969850004,None,1666.0974969850004,None,1666.0974969850004,None,,,,,,,,,,,,,,,,,,,,,,,,,,,,,,,,,,,,,,,,,,,,001,6,2020_Jan_28_1030,spring_faces,3.1.5,59.94195029701062,
condition files/Stage2_2.xlsx,,B5,T5,s,"['s', 'r']","['Stratego', 'Risk']","[-0.15, 0.5]","[0.15, 0.5]",1,1,,,,,,,,,,,,,,,,,0,3,3,3,0,0,0,0,,,,,,,,,,,,,,,,,,,,,,,,,,,,,,,,,,,,,,,,,,,,,,,1668.0806780129997,None,1668.0806780129997,None,1668.0806780129997,None,r,0,0.5945628450008371,1669.6139149029996,None,1669.6139149029996,None,1669.6139149029996,None,1670.2639015570012,None,1670.2639015570012,None,1670.2639015570012,None,1670.2639015570012,None,,,,,,,,,,,,,,,,,,,,,,,,,,,,,,,,,,,,,,,,,,,,001,6,2020_Jan_28_1030,spring_faces,3.1.5,59.94195029701062,
condition files/Stage2_2.xlsx,,T4,B4,r,"['s', 'r']","['Stratego', 'Risk']","[-0.15, 0.5]","[0.15, 0.5]",1,1,,,,,,,,,,,,,,,,,0,3,3,3,0,1,1,5,,,,,,,,,,,,,,,,,,,,,,,,,,,,,,,,,,,,,,,,,,,,,,,1672.2305991149997,None,1672.2305991149997,None,1672.2305991149997,None,r,1,2.155887270999301,1673.7646500500005,None,1673.7646500500005,None,1673.7646500500005,None,1675.9977470940003,None,1675.9977470940003,None,1675.9977470940003,None,1675.9977470940003,None,,,,,,,,,,,,,,,,,,,,,,,,,,,,,,,,,,,,,,,,,,,,001,6,2020_Jan_28_1030,spring_faces,3.1.5,59.94195029701062,
condition files/Stage2_2.xlsx,,T2,B2,r,"['s', 'r']","['Stratego', 'Risk']","[-0.15, 0.5]","[0.15, 0.5]",1,1,,,,,,,,,,,,,,,,,0,3,3,3,0,2,2,3,,,,,,,,,,,,,,,,,,,,,,,,,,,,,,,,,,,,,,,,,,,,,,,1677.9469955310005,None,1677.9469955310005,None,1677.9469955310005,None,r,1,1.3192728350004472,1679.4811883780012,None,1679.4811883780012,None,1679.4811883780012,None,1680.8640452730006,None,1680.8640452730006,None,1680.8640452730006,None,1680.8640452730006,None,,,,,,,,,,,,,,,,,,,,,,,,,,,,,,,,,,,,,,,,,,,,001,6,2020_Jan_28_1030,spring_faces,3.1.5,59.94195029701062,
condition files/Stage2_2.xlsx,,T6,B6,r,"['s', 'r']","['Stratego', 'Risk']","[-0.15, 0.5]","[0.15, 0.5]",1,1,,,,,,,,,,,,,,,,,0,3,3,3,0,3,3,1,,,,,,,,,,,,,,,,,,,,,,,,,,,,,,,,,,,,,,,,,,,,,,,1682.830671783001,None,1682.830671783001,None,1682.830671783001,None,s,0,2.4521462530010467,1684.3643177700005,None,1684.3643177700005,None,1684.3643177700005,None,1686.881466011001,None,1686.881466011001,None,1686.881466011001,None,1686.881466011001,None,,,,,,,,,,,,,,,,,,,,,,,,,,,,,,,,,,,,,,,,,,,,001,6,2020_Jan_28_1030,spring_faces,3.1.5,59.94195029701062,
condition files/Stage2_2.xlsx,,B3,T3,s,"['s', 'r']","['Stratego', 'Risk']","[-0.15, 0.5]","[0.15, 0.5]",1,1,,,,,,,,,,,,,,,,,0,3,3,3,0,4,4,4,,,,,,,,,,,,,,,,,,,,,,,,,,,,,,,,,,,,,,,,,,,,,,,1688.8474370570011,None,1688.8474370570011,None,1688.8474370570011,None,s,1,1.746464253999875,1690.3820041690005,None,1690.3820041690005,None,1690.3820041690005,None,1692.182928692001,None,1692.182928692001,None,1692.182928692001,None,1692.182928692001,None,,,,,,,,,,,,,,,,,,,,,,,,,,,,,,,,,,,,,,,,,,,,001,6,2020_Jan_28_1030,spring_faces,3.1.5,59.94195029701062,
condition files/Stage2_2.xlsx,,B1,T1,s,"['s', 'r']","['Stratego', 'Risk']","[-0.15, 0.5]","[0.15, 0.5]",1,1,,,,,,,,,,,,,,,,,0,3,3,3,0,5,5,2,,,,,,,,,,,,,,,,,,,,,,,,,,,,,,,,,,,,,,,,,,,,,,,1694.1474039350005,None,1694.1474039350005,None,1694.1474039350005,None,r,0,4.638668917001269,1695.6978029650008,None,1695.6978029650008,None,1695.6978029650008,None,1700.3973714619997,None,1700.3973714619997,None,1700.3973714619997,None,1700.3973714619997,None,,,,,,,,,,,,,,,,,,,,,,,,,,,,,,,,,,,,,,,,,,,,001,6,2020_Jan_28_1030,spring_faces,3.1.5,59.94195029701062,
condition files/Stage2_1.xlsx,,B2,T2,r,"['s', 'r']","['Stratego', 'Risk']","[-0.15, 0.5]","[0.15, 0.5]",1,1,,,,,,,,,,,,,,,,,0,4,4,4,0,0,0,3,,,,,,,,,,,,,,,,,,,,,,,,,,,,,,,,,,,,,,,,,,,,,,,1702.3804491889996,None,1702.3804491889996,None,1702.3804491889996,None,r,1,1.97403724600008,1703.914382504,None,1703.914382504,None,1703.914382504,None,1705.9635147670006,None,1705.9635147670006,None,1705.9635147670006,None,1705.9635147670006,None,,,,,,,,,,,,,,,,,,,,,,,,,,,,,,,,,,,,,,,,,,,,001,6,2020_Jan_28_1030,spring_faces,3.1.5,59.94195029701062,
condition files/Stage2_1.xlsx,,T5,B5,s,"['s', 'r']","['Stratego', 'Risk']","[-0.15, 0.5]","[0.15, 0.5]",1,1,,,,,,,,,,,,,,,,,0,4,4,4,0,1,1,0,,,,,,,,,,,,,,,,,,,,,,,,,,,,,,,,,,,,,,,,,,,,,,,1707.9139314449994,None,1707.9139314449994,None,1707.9139314449994,None,r,0,1.7346348989995022,1709.4498295330004,None,1709.4498295330004,None,1709.4498295330004,None,1711.250256018001,None,1711.250256018001,None,1711.250256018001,None,1711.250256018001,None,,,,,,,,,,,,,,,,,,,,,,,,,,,,,,,,,,,,,,,,,,,,001,6,2020_Jan_28_1030,spring_faces,3.1.5,59.94195029701062,
condition files/Stage2_1.xlsx,,B4,T4,r,"['s', 'r']","['Stratego', 'Risk']","[-0.15, 0.5]","[0.15, 0.5]",1,1,,,,,,,,,,,,,,,,,0,4,4,4,0,2,2,5,,,,,,,,,,,,,,,,,,,,,,,,,,,,,,,,,,,,,,,,,,,,,,,1713.2140406379995,None,1713.2140406379995,None,1713.2140406379995,None,s,0,1.7483335329998226,1714.7481288070003,None,1714.7481288070003,None,1714.7481288070003,None,1716.5642893440008,None,1716.5642893440008,None,1716.5642893440008,None,1716.5642893440008,None,,,,,,,,,,,,,,,,,,,,,,,,,,,,,,,,,,,,,,,,,,,,001,6,2020_Jan_28_1030,spring_faces,3.1.5,59.94195029701062,
condition files/Stage2_1.xlsx,,T1,B1,s,"['s', 'r']","['Stratego', 'Risk']","[-0.15, 0.5]","[0.15, 0.5]",1,1,,,,,,,,,,,,,,,,,0,4,4,4,0,3,3,2,,,,,,,,,,,,,,,,,,,,,,,,,,,,,,,,,,,,,,,,,,,,,,,1718.5142047090003,None,1718.5142047090003,None,1718.5142047090003,None,r,0,0.43107361500005936,1720.0493910140003,None,1720.0493910140003,None,1720.0493910140003,None,1720.5329007669998,None,1720.5329007669998,None,1720.5329007669998,None,1720.5329007669998,None,,,,,,,,,,,,,,,,,,,,,,,,,,,,,,,,,,,,,,,,,,,,001,6,2020_Jan_28_1030,spring_faces,3.1.5,59.94195029701062,
