condsFile,subStage,cue1,cue2,correct,responseKeys,responseNames,cue1Position,cue2Position,cue1Opacity,cue2Opacity,stageLoop0.thisRepN,stageLoop0.thisTrialN,stageLoop0.thisN,stageLoop0.thisIndex,blockLoop0.thisRepN,blockLoop0.thisTrialN,blockLoop0.thisN,blockLoop0.thisIndex,stage1Loop.thisRepN,stage1Loop.thisTrialN,stage1Loop.thisN,stage1Loop.thisIndex,blockLoop1.thisRepN,blockLoop1.thisTrialN,blockLoop1.thisN,blockLoop1.thisIndex,stage2Loop.thisRepN,stage2Loop.thisTrialN,stage2Loop.thisN,stage2Loop.thisIndex,blockLoop2.thisRepN,blockLoop2.thisTrialN,blockLoop2.thisN,blockLoop2.thisIndex,testLoop.thisRepN,testLoop.thisTrialN,testLoop.thisN,testLoop.thisIndex,blockLoopTest.thisRepN,blockLoopTest.thisTrialN,blockLoopTest.thisN,blockLoopTest.thisIndex,cuePics,id_instr_text.started,id_instr_text.stopped,space_to_continue_2.started,space_to_continue_2.stopped,end_instructions_resp_3.keys,end_instructions_resp_3.rt,end_instructions_resp_3.started,end_instructions_resp_3.stopped,id_input_instr.started,id_input_instr.stopped,id_input_rect.started,id_input_rect.stopped,id_input_resp.keys,id_input_resp.rt,id_input_resp.started,id_input_resp.stopped,sonaID,id_input_text.started,id_input_text.stopped,final_text.started,final_text.stopped,instructions.started,instructions.stopped,end_instructions_resp.keys,end_instructions_resp.rt,end_instructions_resp.started,end_instructions_resp.stopped,space_to_continue.started,space_to_continue.stopped,instructions_stage0.started,instructions_stage0.stopped,end_instructions_resp_stage0.keys,end_instructions_resp_stage0.rt,end_instructions_resp_stage0.started,end_instructions_resp_stage0.stopped,space_to_continue_stage0.started,space_to_continue_stage0.stopped,text.started,text.stopped,resp_text1.started,resp_text1.stopped,resp_text2.started,resp_text2.stopped,trial_resp.keys,trial_resp.corr,trial_resp.rt,trial_resp.started,trial_resp.stopped,cue1Image.started,cue1Image.stopped,cue2Image.started,cue2Image.stopped,cue1Image_fb.started,cue1Image_fb.stopped,cue2Image_fb.started,cue2Image_fb.stopped,fb_text_answer.started,fb_text_answer.stopped,feedback_image.started,feedback_image.stopped,instructions_stage1.started,instructions_stage1.stopped,end_instructions_resp_stage1.keys,end_instructions_resp_stage1.rt,end_instructions_resp_stage1.started,end_instructions_resp_stage1.stopped,space_to_continue_stage1.started,space_to_continue_stage1.stopped,instructions_2.started,instructions_2.stopped,end_instructions_resp_2.keys,end_instructions_resp_2.rt,end_instructions_resp_2.started,end_instructions_resp_2.stopped,press_space_to_continue_stage2.started,press_space_to_continue_stage2.stopped,instructions_testStage1.started,instructions_testStage1.stopped,end_instructions_resp_test1.keys,end_instructions_resp_test1.rt,end_instructions_resp_test1.started,end_instructions_resp_test1.stopped,press_space_to_continue_test1.started,press_space_to_continue_test1.stopped,cue1Image_testChoice.started,cue1Image_testChoice.stopped,cue2Image_testChoice.started,cue2Image_testChoice.stopped,test_resp.keys,test_resp.corr,test_resp.rt,test_resp.started,test_resp.stopped,cue1Image_testConf.started,cue1Image_testConf.stopped,cue2Image_testConf.started,cue2Image_testConf.stopped,conf_reminder.started,conf_reminder.stopped,conf_rating.response,conf_rating.rt,conf_rating.started,conf_rating.stopped,session,participant,date,expName,psychopyVersion,frameRate,
,,,,,,,,,,,,,,,,,,,,,,,,,,,,,,,,,,,,,,,,,,,"{'none': 'pictures/20M_AN_C.png', 'alpha': 'pictures/SHINEd_pear.png', 'beta': 'pictures/SHINEd_melon.png', 'theta': 'pictures/SHINEd_pepper.png', 'phi': 'pictures/SHINEd_apple.png', 'T1': 'pictures/37M_AN_C.png', 'T2': 'pictures/26M_AN_C.png', 'T3': 'pictures/38M_AN_C.png', 'T4': 'pictures/31M_AN_C.png', 'T5': 'pictures/32M_AN_C.png', 'T6': 'pictures/20M_AN_C.png', 'B1': 'pictures/33M_NE_C.png', 'B2': 'pictures/25M_NE_C.png', 'B3': 'pictures/22M_NE_C.png', 'B4': 'pictures/36M_NE_C.png', 'B5': 'pictures/34M_NE_C.png', 'B6': 'pictures/23M_NE_C.png'}",10.669398119000107,None,15.670191973000328,None,space,26.201398020999477,15.670191973000328,None,,,,,,,,,,,,,,,,,,,,,,,,,,,,,,,,,,,,,,,,,,,,,,,,,,,,,,,,,,,,,,,,,,,,,,,,,,,,,,,,,,,,,,,,,,,,,,,,001,70,2020_Feb_04_1513,spring_faces,3.1.5,59.9692363808799,
,,,,,,,,,,,,,,,,,,,,,,,,,,,,,,,,,,,,,,,,,,,,,,,,,,,,42.26969138599816,None,42.26969138599816,None,"['1', '2', '2', '8', 'j', 'i', 'k', 'a', 'i', '1', '2', '2', '8', 'j', 'i', 'e', 'backspace', 'k', 's', 'backspace', 'a', 'i', '1', '2', '2', '8', 'j', 'i', 'k', 'a', 'i']","[6.593943733998458, 6.817845446999854, 13.201822484999866, 13.313884529998177, 20.62594606299899, 20.817847277998226, 33.921885108000424, 34.12989008599834, 34.27388893800162, 47.39394875599828, 47.64986909599975, 49.64991617600026, 49.777867453998624, 54.27389318600035, 54.51388998699986, 54.70588843099904, 56.497876746001566, 64.48187952599983, 64.73788877400148, 65.56988082899989, 65.85794124500171, 66.06586761400104, 74.97784458000024, 75.21782378499847, 76.97786969899971, 77.1378976820015, 78.20987723299913, 78.84986927800128, 79.84194656600084, 79.96989010299876, 80.09786983799859]",42.26969138599816,None,,,,,,,,,,,,,,,,,,,,,,,,,,,,,,,,,,,,,,,,,,,,,,,,,,,,,,,,,,,,,,,,,,,,,,,,,,,,,,,,,,,,,,,,001,70,2020_Feb_04_1513,spring_faces,3.1.5,59.9692363808799,
,,,,,,,,,,,,,,,,,,,,,,,,,,,,,,,,,,,,,,,,,,,,,,,,,,,,,,,,,,,,1228jikai,42.26969138599816,None,42.26969138599816,None,127.4368554069988,None,space,16.587207192002097,132.4364020469984,None,,,,,,,,,,,,,,,,,,,,,,,,,,,,,,,,,,,,,,,,,,,,,,,,,,,,,,,,,,,,,,,,,,,,,,,,,,,,,001,70,2020_Feb_04_1513,spring_faces,3.1.5,59.9692363808799,
,,,,,,,,,,,,,,,,,,,,,,,,,,,,,,,,,,,,,,,,,,,,,,,,,,,,,,,,,,,,,,,,,,,,,,,132.4364020469984,None,149.0700652380001,None,space,17.465429115000006,154.07015911200142,None,,,,,,,,,,,,,,,,,,,,,,,,,,,,,,,,,,,,,,,,,,,,,,,,,,,,,,,,,,,,,,,,,,,,,001,70,2020_Feb_04_1513,spring_faces,3.1.5,59.9692363808799,
condition files/Stage0a.xlsx,0a,beta,none,g,"['h', 'g']","['Chess', 'Go']","[0, 0.5]","[0, 0]",1,0,0,0,0,0,0,0,0,1,,,,,,,,,,,,,,,,,,,,,,,,,,,,,,,,,,,,,,,,,,,,,,,,,,,,,,,,,,,,,154.07015911200142,None,171.63673922299859,None,171.63673922299859,None,171.63673922299859,None,h,0,3.593317516002571,173.27034154599824,None,173.27034154599824,None,173.27034154599824,None,176.93682758700015,None,176.93682758700015,None,176.93682758700015,None,176.93682758700015,None,,,,,,,,,,,,,,,,,,,,,,,,,,,,,,,,,,,,,,,,,,,,001,70,2020_Feb_04_1513,spring_faces,3.1.5,59.9692363808799,
condition files/Stage0a.xlsx,0a,alpha,none,h,"['h', 'g']","['Chess', 'Go']","[0, 0.5]","[0, 0]",1,0,0,0,0,0,0,1,1,0,,,,,,,,,,,,,,,,,,,,,,,,,,,,,,,,,,,,,,,,,,,,,,,,,,,,,,,,,,,,,,,178.88622319899878,None,178.88622319899878,None,178.88622319899878,None,h,1,3.465862326000206,180.42166397300025,None,180.42166397300025,None,180.42166397300025,None,183.95300393700018,None,183.95300393700018,None,183.95300393700018,None,183.95300393700018,None,,,,,,,,,,,,,,,,,,,,,,,,,,,,,,,,,,,,,,,,,,,,001,70,2020_Feb_04_1513,spring_faces,3.1.5,59.9692363808799,
condition files/Stage0a.xlsx,0a,alpha,none,h,"['h', 'g']","['Chess', 'Go']","[0, 0.5]","[0, 0]",1,0,0,1,1,1,0,0,0,0,,,,,,,,,,,,,,,,,,,,,,,,,,,,,,,,,,,,,,,,,,,,,,,,,,,,,,,,,,,,,,,185.9361245229993,None,185.9361245229993,None,185.9361245229993,None,h,1,1.9695336210024834,187.47005230500145,None,187.47005230500145,None,187.47005230500145,None,189.50345654099874,None,189.50345654099874,None,189.50345654099874,None,189.50345654099874,None,,,,,,,,,,,,,,,,,,,,,,,,,,,,,,,,,,,,,,,,,,,,001,70,2020_Feb_04_1513,spring_faces,3.1.5,59.9692363808799,
condition files/Stage0a.xlsx,0a,beta,none,g,"['h', 'g']","['Chess', 'Go']","[0, 0.5]","[0, 0]",1,0,0,1,1,1,0,1,1,1,,,,,,,,,,,,,,,,,,,,,,,,,,,,,,,,,,,,,,,,,,,,,,,,,,,,,,,,,,,,,,,191.46967004800172,None,191.46967004800172,None,191.46967004800172,None,g,1,2.228257063001365,193.00326729299923,None,193.00326729299923,None,193.00326729299923,None,195.2868763990009,None,195.2868763990009,None,195.2868763990009,None,195.2868763990009,None,,,,,,,,,,,,,,,,,,,,,,,,,,,,,,,,,,,,,,,,,,,,001,70,2020_Feb_04_1513,spring_faces,3.1.5,59.9692363808799,
condition files/Stage0a.xlsx,0a,beta,none,g,"['h', 'g']","['Chess', 'Go']","[0, 0.5]","[0, 0]",1,0,0,2,2,2,0,0,0,1,,,,,,,,,,,,,,,,,,,,,,,,,,,,,,,,,,,,,,,,,,,,,,,,,,,,,,,,,,,,,,,197.2699122640006,None,197.2699122640006,None,197.2699122640006,None,g,1,1.0520858600029896,198.80349277999994,None,198.80349277999994,None,198.80349277999994,None,199.9199962950006,None,199.9199962950006,None,199.9199962950006,None,199.9199962950006,None,,,,,,,,,,,,,,,,,,,,,,,,,,,,,,,,,,,,,,,,,,,,001,70,2020_Feb_04_1513,spring_faces,3.1.5,59.9692363808799,
condition files/Stage0a.xlsx,0a,alpha,none,h,"['h', 'g']","['Chess', 'Go']","[0, 0.5]","[0, 0]",1,0,0,2,2,2,0,1,1,0,,,,,,,,,,,,,,,,,,,,,,,,,,,,,,,,,,,,,,,,,,,,,,,,,,,,,,,,,,,,,,,201.88647844799925,None,201.88647844799925,None,201.88647844799925,None,h,1,1.091507584998908,203.4201269639998,None,203.4201269639998,None,203.4201269639998,None,204.5693867279988,None,204.5693867279988,None,204.5693867279988,None,204.5693867279988,None,,,,,,,,,,,,,,,,,,,,,,,,,,,,,,,,,,,,,,,,,,,,001,70,2020_Feb_04_1513,spring_faces,3.1.5,59.9692363808799,
condition files/Stage0a.xlsx,0a,alpha,none,h,"['h', 'g']","['Chess', 'Go']","[0, 0.5]","[0, 0]",1,0,0,3,3,3,0,0,0,0,,,,,,,,,,,,,,,,,,,,,,,,,,,,,,,,,,,,,,,,,,,,,,,,,,,,,,,,,,,,,,,206.5534398689997,None,206.5534398689997,None,206.5534398689997,None,g,0,0.7128271129986388,208.0867058139993,None,208.0867058139993,None,208.0867058139993,None,208.85284673799833,None,208.85284673799833,None,208.85284673799833,None,208.85284673799833,None,,,,,,,,,,,,,,,,,,,,,,,,,,,,,,,,,,,,,,,,,,,,001,70,2020_Feb_04_1513,spring_faces,3.1.5,59.9692363808799,
condition files/Stage0a.xlsx,0a,beta,none,g,"['h', 'g']","['Chess', 'Go']","[0, 0.5]","[0, 0]",1,0,0,3,3,3,0,1,1,1,,,,,,,,,,,,,,,,,,,,,,,,,,,,,,,,,,,,,,,,,,,,,,,,,,,,,,,,,,,,,,,210.81975129499915,None,210.81975129499915,None,210.81975129499915,None,g,1,3.150003642000229,212.3535228510009,None,212.3535228510009,None,212.3535228510009,None,215.57006899299813,None,215.57006899299813,None,215.57006899299813,None,215.57006899299813,None,,,,,,,,,,,,,,,,,,,,,,,,,,,,,,,,,,,,,,,,,,,,001,70,2020_Feb_04_1513,spring_faces,3.1.5,59.9692363808799,
condition files/Stage0a.xlsx,0a,beta,none,g,"['h', 'g']","['Chess', 'Go']","[0, 0.5]","[0, 0]",1,0,0,4,4,4,0,0,0,1,,,,,,,,,,,,,,,,,,,,,,,,,,,,,,,,,,,,,,,,,,,,,,,,,,,,,,,,,,,,,,,217.5533788219982,None,217.5533788219982,None,217.5533788219982,None,g,1,2.273363385000266,219.0862155040013,None,219.0862155040013,None,219.0862155040013,None,221.4200796699988,None,221.4200796699988,None,221.4200796699988,None,221.4200796699988,None,,,,,,,,,,,,,,,,,,,,,,,,,,,,,,,,,,,,,,,,,,,,001,70,2020_Feb_04_1513,spring_faces,3.1.5,59.9692363808799,
condition files/Stage0a.xlsx,0a,alpha,none,h,"['h', 'g']","['Chess', 'Go']","[0, 0.5]","[0, 0]",1,0,0,4,4,4,0,1,1,0,,,,,,,,,,,,,,,,,,,,,,,,,,,,,,,,,,,,,,,,,,,,,,,,,,,,,,,,,,,,,,,223.38573761899897,None,223.38573761899897,None,223.38573761899897,None,h,1,0.7757956620007462,224.91984622699965,None,224.91984622699965,None,224.91984622699965,None,225.75321071500002,None,225.75321071500002,None,225.75321071500002,None,225.75321071500002,None,,,,,,,,,,,,,,,,,,,,,,,,,,,,,,,,,,,,,,,,,,,,001,70,2020_Feb_04_1513,spring_faces,3.1.5,59.9692363808799,
condition files/Stage0a.xlsx,0a,beta,none,g,"['h', 'g']","['Chess', 'Go']","[0, 0.5]","[0, 0]",1,0,0,5,5,5,0,0,0,1,,,,,,,,,,,,,,,,,,,,,,,,,,,,,,,,,,,,,,,,,,,,,,,,,,,,,,,,,,,,,,,227.73687827200047,None,227.73687827200047,None,227.73687827200047,None,g,1,0.6497073579994321,229.2698865400016,None,229.2698865400016,None,229.2698865400016,None,229.96935887400105,None,229.96935887400105,None,229.96935887400105,None,229.96935887400105,None,,,,,,,,,,,,,,,,,,,,,,,,,,,,,,,,,,,,,,,,,,,,001,70,2020_Feb_04_1513,spring_faces,3.1.5,59.9692363808799,
condition files/Stage0a.xlsx,0a,alpha,none,h,"['h', 'g']","['Chess', 'Go']","[0, 0.5]","[0, 0]",1,0,0,5,5,5,0,1,1,0,,,,,,,,,,,,,,,,,,,,,,,,,,,,,,,,,,,,,,,,,,,,,,,,,,,,,,,,,,,,,,,231.93643852600144,None,231.93643852600144,None,231.93643852600144,None,h,1,0.7694188859968563,233.47016625299875,None,233.47016625299875,None,233.47016625299875,None,234.3034289770003,None,234.3034289770003,None,234.3034289770003,None,234.3034289770003,None,,,,,,,,,,,,,,,,,,,,,,,,,,,,,,,,,,,,,,,,,,,,001,70,2020_Feb_04_1513,spring_faces,3.1.5,59.9692363808799,
condition files/Stage0b_1.xlsx,0b,none,beta,g,"['h', 'g']","['Chess', 'Go']","[-0.15, 0.5]","[0.15, 0.5]",0,1,0,6,6,6,0,0,0,1,,,,,,,,,,,,,,,,,,,,,,,,,,,,,,,,,,,,,,,,,,,,,,,,,,,,,,,,,,,,,,,236.28676873199947,None,236.28676873199947,None,236.28676873199947,None,h,0,3.967250394001894,237.82433679500173,None,237.82433679500173,None,237.82433679500173,None,241.85694636599874,None,241.85694636599874,None,241.85694636599874,None,241.85694636599874,None,,,,,,,,,,,,,,,,,,,,,,,,,,,,,,,,,,,,,,,,,,,,001,70,2020_Feb_04_1513,spring_faces,3.1.5,59.9692363808799,
condition files/Stage0b_1.xlsx,0b,alpha,none,h,"['h', 'g']","['Chess', 'Go']","[-0.15, 0.5]","[0.15, 0.5]",1,0,0,6,6,6,0,1,1,0,,,,,,,,,,,,,,,,,,,,,,,,,,,,,,,,,,,,,,,,,,,,,,,,,,,,,,,,,,,,,,,243.8194964860013,None,243.8194964860013,None,243.8194964860013,None,h,1,0.7866272050014231,245.35701418999815,None,245.35701418999815,None,245.35701418999815,None,246.20437919599863,None,246.20437919599863,None,246.20437919599863,None,246.20437919599863,None,,,,,,,,,,,,,,,,,,,,,,,,,,,,,,,,,,,,,,,,,,,,001,70,2020_Feb_04_1513,spring_faces,3.1.5,59.9692363808799,
condition files/Stage0b_2.xlsx,0b,beta,none,g,"['h', 'g']","['Chess', 'Go']","[-0.15, 0.5]","[0.15, 0.5]",1,0,0,7,7,7,0,0,0,1,,,,,,,,,,,,,,,,,,,,,,,,,,,,,,,,,,,,,,,,,,,,,,,,,,,,,,,,,,,,,,,248.1868889010002,None,248.1868889010002,None,248.1868889010002,None,g,1,0.55204859800142,249.7195305690002,None,249.7195305690002,None,249.7195305690002,None,250.33622837700023,None,250.33622837700023,None,250.33622837700023,None,250.33622837700023,None,,,,,,,,,,,,,,,,,,,,,,,,,,,,,,,,,,,,,,,,,,,,001,70,2020_Feb_04_1513,spring_faces,3.1.5,59.9692363808799,
condition files/Stage0b_2.xlsx,0b,none,alpha,h,"['h', 'g']","['Chess', 'Go']","[-0.15, 0.5]","[0.15, 0.5]",0,1,0,7,7,7,0,1,1,0,,,,,,,,,,,,,,,,,,,,,,,,,,,,,,,,,,,,,,,,,,,,,,,,,,,,,,,,,,,,,,,252.3030223780006,None,252.3030223780006,None,252.3030223780006,None,h,1,1.9179231449998042,253.8416464719994,None,253.8416464719994,None,253.8416464719994,None,255.82504984999832,None,255.82504984999832,None,255.82504984999832,None,255.82504984999832,None,,,,,,,,,,,,,,,,,,,,,,,,,,,,,,,,,,,,,,,,,,,,001,70,2020_Feb_04_1513,spring_faces,3.1.5,59.9692363808799,
condition files/Stage0b_1.xlsx,0b,none,beta,g,"['h', 'g']","['Chess', 'Go']","[-0.15, 0.5]","[0.15, 0.5]",0,1,0,8,8,8,0,0,0,1,,,,,,,,,,,,,,,,,,,,,,,,,,,,,,,,,,,,,,,,,,,,,,,,,,,,,,,,,,,,,,,257.803495696,None,257.803495696,None,257.803495696,None,g,1,1.4627620499995828,259.3368021979986,None,259.3368021979986,None,259.3368021979986,None,260.8532427380014,None,260.8532427380014,None,260.8532427380014,None,260.8532427380014,None,,,,,,,,,,,,,,,,,,,,,,,,,,,,,,,,,,,,,,,,,,,,001,70,2020_Feb_04_1513,spring_faces,3.1.5,59.9692363808799,
condition files/Stage0b_1.xlsx,0b,alpha,none,h,"['h', 'g']","['Chess', 'Go']","[-0.15, 0.5]","[0.15, 0.5]",1,0,0,8,8,8,0,1,1,0,,,,,,,,,,,,,,,,,,,,,,,,,,,,,,,,,,,,,,,,,,,,,,,,,,,,,,,,,,,,,,,262.8197846000003,None,262.8197846000003,None,262.8197846000003,None,h,1,2.283784519000619,264.3558073540007,None,264.3558073540007,None,264.3558073540007,None,266.70502564599883,None,266.70502564599883,None,266.70502564599883,None,266.70502564599883,None,,,,,,,,,,,,,,,,,,,,,,,,,,,,,,,,,,,,,,,,,,,,001,70,2020_Feb_04_1513,spring_faces,3.1.5,59.9692363808799,
condition files/Stage0b_2.xlsx,0b,beta,none,g,"['h', 'g']","['Chess', 'Go']","[-0.15, 0.5]","[0.15, 0.5]",1,0,0,9,9,9,0,0,0,1,,,,,,,,,,,,,,,,,,,,,,,,,,,,,,,,,,,,,,,,,,,,,,,,,,,,,,,,,,,,,,,268.68601759100056,None,268.68601759100056,None,268.68601759100056,None,g,1,0.5639407389971893,270.21964092000053,None,270.21964092000053,None,270.21964092000053,None,270.8361123049981,None,270.8361123049981,None,270.8361123049981,None,270.8361123049981,None,,,,,,,,,,,,,,,,,,,,,,,,,,,,,,,,,,,,,,,,,,,,001,70,2020_Feb_04_1513,spring_faces,3.1.5,59.9692363808799,
condition files/Stage0b_2.xlsx,0b,none,alpha,h,"['h', 'g']","['Chess', 'Go']","[-0.15, 0.5]","[0.15, 0.5]",0,1,0,9,9,9,0,1,1,0,,,,,,,,,,,,,,,,,,,,,,,,,,,,,,,,,,,,,,,,,,,,,,,,,,,,,,,,,,,,,,,272.80307593199905,None,272.80307593199905,None,272.80307593199905,None,h,1,1.2133177380019333,274.3382688689999,None,274.3382688689999,None,274.3382688689999,None,275.6199343449989,None,275.6199343449989,None,275.6199343449989,None,275.6199343449989,None,,,,,,,,,,,,,,,,,,,,,,,,,,,,,,,,,,,,,,,,,,,,001,70,2020_Feb_04_1513,spring_faces,3.1.5,59.9692363808799,
condition files/Stage0b_1.xlsx,0b,none,beta,g,"['h', 'g']","['Chess', 'Go']","[-0.15, 0.5]","[0.15, 0.5]",0,1,0,10,10,10,0,0,0,1,,,,,,,,,,,,,,,,,,,,,,,,,,,,,,,,,,,,,,,,,,,,,,,,,,,,,,,,,,,,,,,277.5862874880004,None,277.5862874880004,None,277.5862874880004,None,g,1,0.6235640229970159,279.12008624699956,None,279.12008624699956,None,279.12008624699956,None,279.80307957699915,None,279.80307957699915,None,279.80307957699915,None,279.80307957699915,None,,,,,,,,,,,,,,,,,,,,,,,,,,,,,,,,,,,,,,,,,,,,001,70,2020_Feb_04_1513,spring_faces,3.1.5,59.9692363808799,
condition files/Stage0b_1.xlsx,0b,alpha,none,h,"['h', 'g']","['Chess', 'Go']","[-0.15, 0.5]","[0.15, 0.5]",1,0,0,10,10,10,0,1,1,0,,,,,,,,,,,,,,,,,,,,,,,,,,,,,,,,,,,,,,,,,,,,,,,,,,,,,,,,,,,,,,,281.7697649619986,None,281.7697649619986,None,281.7697649619986,None,h,1,0.4545701039969572,283.3050395419996,None,283.3050395419996,None,283.3050395419996,None,283.83642342000167,None,283.83642342000167,None,283.83642342000167,None,283.83642342000167,None,,,,,,,,,,,,,,,,,,,,,,,,,,,,,,,,,,,,,,,,,,,,001,70,2020_Feb_04_1513,spring_faces,3.1.5,59.9692363808799,
condition files/Stage0b_2.xlsx,0b,beta,none,g,"['h', 'g']","['Chess', 'Go']","[-0.15, 0.5]","[0.15, 0.5]",1,0,0,11,11,11,0,0,0,1,,,,,,,,,,,,,,,,,,,,,,,,,,,,,,,,,,,,,,,,,,,,,,,,,,,,,,,,,,,,,,,285.80323338000017,None,285.80323338000017,None,285.80323338000017,None,h,0,0.615415464999387,287.33616710799834,None,287.33616710799834,None,287.33616710799834,None,288.0037896920003,None,288.0037896920003,None,288.0037896920003,None,288.0037896920003,None,,,,,,,,,,,,,,,,,,,,,,,,,,,,,,,,,,,,,,,,,,,,001,70,2020_Feb_04_1513,spring_faces,3.1.5,59.9692363808799,
condition files/Stage0b_2.xlsx,0b,none,alpha,h,"['h', 'g']","['Chess', 'Go']","[-0.15, 0.5]","[0.15, 0.5]",0,1,0,11,11,11,0,1,1,0,,,,,,,,,,,,,,,,,,,,,,,,,,,,,,,,,,,,,,,,,,,,,,,,,,,,,,,,,,,,,,,289.96980645000076,None,289.96980645000076,None,289.96980645000076,None,h,1,0.7658924400020624,291.50565430999995,None,291.50565430999995,None,291.50565430999995,None,292.3420259480008,None,292.3420259480008,None,292.3420259480008,None,292.3420259480008,None,,,,,,,,,,,,,,,,,,,,,,,,,,,,,,,,,,,,,,,,,,,,001,70,2020_Feb_04_1513,spring_faces,3.1.5,59.9692363808799,
condition files/Stage0c_1.xlsx,0c,beta,theta,g,"['h', 'g']","['Chess', 'Go']","[-0.15, 0.5]","[0.15, 0.5]",1,1,0,12,12,12,0,0,0,2,,,,,,,,,,,,,,,,,,,,,,,,,,,,,,,,,,,,,,,,,,,,,,,,,,,,,,,,,,,,,,,294.3197424229984,None,294.3197424229984,None,294.3197424229984,None,g,1,6.7223398860005545,295.85325246499997,None,295.85325246499997,None,295.85325246499997,None,302.6370497470016,None,302.6370497470016,None,302.6370497470016,None,302.6370497470016,None,,,,,,,,,,,,,,,,,,,,,,,,,,,,,,,,,,,,,,,,,,,,001,70,2020_Feb_04_1513,spring_faces,3.1.5,59.9692363808799,
condition files/Stage0c_1.xlsx,0c,phi,beta,g,"['h', 'g']","['Chess', 'Go']","[-0.15, 0.5]","[0.15, 0.5]",1,1,0,12,12,12,0,1,1,3,,,,,,,,,,,,,,,,,,,,,,,,,,,,,,,,,,,,,,,,,,,,,,,,,,,,,,,,,,,,,,,304.60304678800094,None,304.60304678800094,None,304.60304678800094,None,g,1,1.9267422900011297,306.1369002329993,None,306.1369002329993,None,306.1369002329993,None,308.1202282769991,None,308.1202282769991,None,308.1202282769991,None,308.1202282769991,None,,,,,,,,,,,,,,,,,,,,,,,,,,,,,,,,,,,,,,,,,,,,001,70,2020_Feb_04_1513,spring_faces,3.1.5,59.9692363808799,
condition files/Stage0c_1.xlsx,0c,theta,alpha,h,"['h', 'g']","['Chess', 'Go']","[-0.15, 0.5]","[0.15, 0.5]",1,1,0,12,12,12,0,2,2,0,,,,,,,,,,,,,,,,,,,,,,,,,,,,,,,,,,,,,,,,,,,,,,,,,,,,,,,,,,,,,,,310.0866407329995,None,310.0866407329995,None,310.0866407329995,None,h,1,1.6918872069982172,311.61975431500105,None,311.61975431500105,None,311.61975431500105,None,313.37012009499813,None,313.37012009499813,None,313.37012009499813,None,313.37012009499813,None,,,,,,,,,,,,,,,,,,,,,,,,,,,,,,,,,,,,,,,,,,,,001,70,2020_Feb_04_1513,spring_faces,3.1.5,59.9692363808799,
condition files/Stage0c_1.xlsx,0c,alpha,phi,h,"['h', 'g']","['Chess', 'Go']","[-0.15, 0.5]","[0.15, 0.5]",1,1,0,12,12,12,0,3,3,1,,,,,,,,,,,,,,,,,,,,,,,,,,,,,,,,,,,,,,,,,,,,,,,,,,,,,,,,,,,,,,,315.3361178209998,None,315.3361178209998,None,315.3361178209998,None,h,1,1.2898273499995412,316.86975667599836,None,316.86975667599836,None,316.86975667599836,None,318.2040877979998,None,318.2040877979998,None,318.2040877979998,None,318.2040877979998,None,,,,,,,,,,,,,,,,,,,,,,,,,,,,,,,,,,,,,,,,,,,,001,70,2020_Feb_04_1513,spring_faces,3.1.5,59.9692363808799,
condition files/Stage0c_2.xlsx,0c,theta,beta,g,"['h', 'g']","['Chess', 'Go']","[-0.15, 0.5]","[0.15, 0.5]",1,1,0,13,13,13,0,0,0,2,,,,,,,,,,,,,,,,,,,,,,,,,,,,,,,,,,,,,,,,,,,,,,,,,,,,,,,,,,,,,,,320.2033953099999,None,320.2033953099999,None,320.2033953099999,None,g,1,1.2873689970001578,321.7362218099988,None,321.7362218099988,None,321.7362218099988,None,323.0866288940015,None,323.0866288940015,None,323.0866288940015,None,323.0866288940015,None,,,,,,,,,,,,,,,,,,,,,,,,,,,,,,,,,,,,,,,,,,,,001,70,2020_Feb_04_1513,spring_faces,3.1.5,59.9692363808799,
condition files/Stage0c_2.xlsx,0c,phi,alpha,h,"['h', 'g']","['Chess', 'Go']","[-0.15, 0.5]","[0.15, 0.5]",1,1,0,13,13,13,0,1,1,1,,,,,,,,,,,,,,,,,,,,,,,,,,,,,,,,,,,,,,,,,,,,,,,,,,,,,,,,,,,,,,,325.0531071869991,None,325.0531071869991,None,325.0531071869991,None,h,1,0.5648907699978736,326.58668423799827,None,326.58668423799827,None,326.58668423799827,None,327.2031388389987,None,327.2031388389987,None,327.2031388389987,None,327.2031388389987,None,,,,,,,,,,,,,,,,,,,,,,,,,,,,,,,,,,,,,,,,,,,,001,70,2020_Feb_04_1513,spring_faces,3.1.5,59.9692363808799,
condition files/Stage0c_2.xlsx,0c,alpha,theta,h,"['h', 'g']","['Chess', 'Go']","[-0.15, 0.5]","[0.15, 0.5]",1,1,0,13,13,13,0,2,2,0,,,,,,,,,,,,,,,,,,,,,,,,,,,,,,,,,,,,,,,,,,,,,,,,,,,,,,,,,,,,,,,329.1693834379985,None,329.1693834379985,None,329.1693834379985,None,g,0,0.7041532269977324,330.7034351779985,None,330.7034351779985,None,330.7034351779985,None,331.45293638899966,None,331.45293638899966,None,331.45293638899966,None,331.45293638899966,None,,,,,,,,,,,,,,,,,,,,,,,,,,,,,,,,,,,,,,,,,,,,001,70,2020_Feb_04_1513,spring_faces,3.1.5,59.9692363808799,
condition files/Stage0c_2.xlsx,0c,beta,phi,g,"['h', 'g']","['Chess', 'Go']","[-0.15, 0.5]","[0.15, 0.5]",1,1,0,13,13,13,0,3,3,3,,,,,,,,,,,,,,,,,,,,,,,,,,,,,,,,,,,,,,,,,,,,,,,,,,,,,,,,,,,,,,,333.43642210599864,None,333.43642210599864,None,333.43642210599864,None,g,1,1.7338364099996397,334.96973016799893,None,334.96973016799893,None,334.96973016799893,None,336.75283852199937,None,336.75283852199937,None,336.75283852199937,None,336.75283852199937,None,,,,,,,,,,,,,,,,,,,,,,,,,,,,,,,,,,,,,,,,,,,,001,70,2020_Feb_04_1513,spring_faces,3.1.5,59.9692363808799,
condition files/Stage0c_1.xlsx,0c,phi,beta,g,"['h', 'g']","['Chess', 'Go']","[-0.15, 0.5]","[0.15, 0.5]",1,1,0,14,14,14,0,0,0,3,,,,,,,,,,,,,,,,,,,,,,,,,,,,,,,,,,,,,,,,,,,,,,,,,,,,,,,,,,,,,,,338.73652698799924,None,338.73652698799924,None,338.73652698799924,None,h,0,1.2334744200015848,340.2700514780008,None,340.2700514780008,None,340.2700514780008,None,341.55374414299877,None,341.55374414299877,None,341.55374414299877,None,341.55374414299877,None,,,,,,,,,,,,,,,,,,,,,,,,,,,,,,,,,,,,,,,,,,,,001,70,2020_Feb_04_1513,spring_faces,3.1.5,59.9692363808799,
condition files/Stage0c_1.xlsx,0c,alpha,phi,h,"['h', 'g']","['Chess', 'Go']","[-0.15, 0.5]","[0.15, 0.5]",1,1,0,14,14,14,0,1,1,1,,,,,,,,,,,,,,,,,,,,,,,,,,,,,,,,,,,,,,,,,,,,,,,,,,,,,,,,,,,,,,,343.5364767249994,None,343.5364767249994,None,343.5364767249994,None,h,1,1.3935885669998243,345.0700531910006,None,345.0700531910006,None,345.0700531910006,None,346.5198556239993,None,346.5198556239993,None,346.5198556239993,None,346.5198556239993,None,,,,,,,,,,,,,,,,,,,,,,,,,,,,,,,,,,,,,,,,,,,,001,70,2020_Feb_04_1513,spring_faces,3.1.5,59.9692363808799,
condition files/Stage0c_1.xlsx,0c,beta,theta,g,"['h', 'g']","['Chess', 'Go']","[-0.15, 0.5]","[0.15, 0.5]",1,1,0,14,14,14,0,2,2,2,,,,,,,,,,,,,,,,,,,,,,,,,,,,,,,,,,,,,,,,,,,,,,,,,,,,,,,,,,,,,,,348.486665542001,None,348.486665542001,None,348.486665542001,None,g,1,1.0195610569971905,350.0200146149982,None,350.0200146149982,None,350.0200146149982,None,351.103130214,None,351.103130214,None,351.103130214,None,351.103130214,None,,,,,,,,,,,,,,,,,,,,,,,,,,,,,,,,,,,,,,,,,,,,001,70,2020_Feb_04_1513,spring_faces,3.1.5,59.9692363808799,
condition files/Stage0c_1.xlsx,0c,theta,alpha,h,"['h', 'g']","['Chess', 'Go']","[-0.15, 0.5]","[0.15, 0.5]",1,1,0,14,14,14,0,3,3,0,,,,,,,,,,,,,,,,,,,,,,,,,,,,,,,,,,,,,,,,,,,,,,,,,,,,,,,,,,,,,,,353.08688232200075,None,353.08688232200075,None,353.08688232200075,None,h,1,1.0601311219979834,354.6035200229999,None,354.6035200229999,None,354.6035200229999,None,355.7200701180009,None,355.7200701180009,None,355.7200701180009,None,355.7200701180009,None,,,,,,,,,,,,,,,,,,,,,,,,,,,,,,,,,,,,,,,,,,,,001,70,2020_Feb_04_1513,spring_faces,3.1.5,59.9692363808799,
condition files/Stage0c_2.xlsx,0c,theta,beta,g,"['h', 'g']","['Chess', 'Go']","[-0.15, 0.5]","[0.15, 0.5]",1,1,0,15,15,15,0,0,0,2,,,,,,,,,,,,,,,,,,,,,,,,,,,,,,,,,,,,,,,,,,,,,,,,,,,,,,,,,,,,,,,357.70320048099893,None,357.70320048099893,None,357.70320048099893,None,g,1,0.6031874000000244,359.2363937980008,None,359.2363937980008,None,359.2363937980008,None,359.90334096399965,None,359.90334096399965,None,359.90334096399965,None,359.90334096399965,None,,,,,,,,,,,,,,,,,,,,,,,,,,,,,,,,,,,,,,,,,,,,001,70,2020_Feb_04_1513,spring_faces,3.1.5,59.9692363808799,
condition files/Stage0c_2.xlsx,0c,phi,alpha,h,"['h', 'g']","['Chess', 'Go']","[-0.15, 0.5]","[0.15, 0.5]",1,1,0,15,15,15,0,1,1,1,,,,,,,,,,,,,,,,,,,,,,,,,,,,,,,,,,,,,,,,,,,,,,,,,,,,,,,,,,,,,,,361.86897092599975,None,361.86897092599975,None,361.86897092599975,None,h,1,3.4766256349976175,363.4029008910002,None,363.4029008910002,None,363.4029008910002,None,366.9360571610014,None,366.9360571610014,None,366.9360571610014,None,366.9360571610014,None,,,,,,,,,,,,,,,,,,,,,,,,,,,,,,,,,,,,,,,,,,,,001,70,2020_Feb_04_1513,spring_faces,3.1.5,59.9692363808799,
condition files/Stage0c_2.xlsx,0c,beta,phi,g,"['h', 'g']","['Chess', 'Go']","[-0.15, 0.5]","[0.15, 0.5]",1,1,0,15,15,15,0,2,2,3,,,,,,,,,,,,,,,,,,,,,,,,,,,,,,,,,,,,,,,,,,,,,,,,,,,,,,,,,,,,,,,368.90289444899827,None,368.90289444899827,None,368.90289444899827,None,g,1,2.123023379001097,370.43655872900126,None,370.43655872900126,None,370.43655872900126,None,372.61976629700075,None,372.61976629700075,None,372.61976629700075,None,372.61976629700075,None,,,,,,,,,,,,,,,,,,,,,,,,,,,,,,,,,,,,,,,,,,,,001,70,2020_Feb_04_1513,spring_faces,3.1.5,59.9692363808799,
condition files/Stage0c_2.xlsx,0c,alpha,theta,h,"['h', 'g']","['Chess', 'Go']","[-0.15, 0.5]","[0.15, 0.5]",1,1,0,15,15,15,0,3,3,0,,,,,,,,,,,,,,,,,,,,,,,,,,,,,,,,,,,,,,,,,,,,,,,,,,,,,,,,,,,,,,,374.5864264810007,None,374.5864264810007,None,374.5864264810007,None,h,1,0.9035898110014386,376.1199901399996,None,376.1199901399996,None,376.1199901399996,None,377.08602139600043,None,377.08602139600043,None,377.08602139600043,None,377.08602139600043,None,,,,,,,,,,,,,,,,,,,,,,,,,,,,,,,,,,,,,,,,,,,,001,70,2020_Feb_04_1513,spring_faces,3.1.5,59.9692363808799,
condition files/Stage0c_1.xlsx,0c,alpha,phi,h,"['h', 'g']","['Chess', 'Go']","[-0.15, 0.5]","[0.15, 0.5]",1,1,0,16,16,16,0,0,0,1,,,,,,,,,,,,,,,,,,,,,,,,,,,,,,,,,,,,,,,,,,,,,,,,,,,,,,,,,,,,,,,379.0700944849996,None,379.0700944849996,None,379.0700944849996,None,h,1,0.5804025899997214,380.60312861299826,None,380.60312861299826,None,380.60312861299826,None,381.2216845469993,None,381.2216845469993,None,381.2216845469993,None,381.2216845469993,None,,,,,,,,,,,,,,,,,,,,,,,,,,,,,,,,,,,,,,,,,,,,001,70,2020_Feb_04_1513,spring_faces,3.1.5,59.9692363808799,
condition files/Stage0c_1.xlsx,0c,phi,beta,g,"['h', 'g']","['Chess', 'Go']","[-0.15, 0.5]","[0.15, 0.5]",1,1,0,16,16,16,0,1,1,3,,,,,,,,,,,,,,,,,,,,,,,,,,,,,,,,,,,,,,,,,,,,,,,,,,,,,,,,,,,,,,,383.2028931060013,None,383.2028931060013,None,383.2028931060013,None,g,1,1.0229296939978667,384.736652612999,None,384.736652612999,None,384.736652612999,None,385.8198332770007,None,385.8198332770007,None,385.8198332770007,None,385.8198332770007,None,,,,,,,,,,,,,,,,,,,,,,,,,,,,,,,,,,,,,,,,,,,,001,70,2020_Feb_04_1513,spring_faces,3.1.5,59.9692363808799,
condition files/Stage0c_1.xlsx,0c,theta,alpha,h,"['h', 'g']","['Chess', 'Go']","[-0.15, 0.5]","[0.15, 0.5]",1,1,0,16,16,16,0,2,2,0,,,,,,,,,,,,,,,,,,,,,,,,,,,,,,,,,,,,,,,,,,,,,,,,,,,,,,,,,,,,,,,387.78648176099887,None,387.78648176099887,None,387.78648176099887,None,h,1,3.320122398999956,389.3194661310008,None,389.3194661310008,None,389.3194661310008,None,392.70339758800037,None,392.70339758800037,None,392.70339758800037,None,392.70339758800037,None,,,,,,,,,,,,,,,,,,,,,,,,,,,,,,,,,,,,,,,,,,,,001,70,2020_Feb_04_1513,spring_faces,3.1.5,59.9692363808799,
condition files/Stage0c_1.xlsx,0c,beta,theta,g,"['h', 'g']","['Chess', 'Go']","[-0.15, 0.5]","[0.15, 0.5]",1,1,0,16,16,16,0,3,3,2,,,,,,,,,,,,,,,,,,,,,,,,,,,,,,,,,,,,,,,,,,,,,,,,,,,,,,,,,,,,,,,394.66939771000034,None,394.66939771000034,None,394.66939771000034,None,g,1,0.9164375559994369,396.2031408119983,None,396.2031408119983,None,396.2031408119983,None,397.17009268699985,None,397.17009268699985,None,397.17009268699985,None,397.17009268699985,None,,,,,,,,,,,,,,,,,,,,,,,,,,,,,,,,,,,,,,,,,,,,001,70,2020_Feb_04_1513,spring_faces,3.1.5,59.9692363808799,
condition files/Stage0c_2.xlsx,0c,alpha,theta,h,"['h', 'g']","['Chess', 'Go']","[-0.15, 0.5]","[0.15, 0.5]",1,1,0,17,17,17,0,0,0,0,,,,,,,,,,,,,,,,,,,,,,,,,,,,,,,,,,,,,,,,,,,,,,,,,,,,,,,,,,,,,,,399.15283916299813,None,399.15283916299813,None,399.15283916299813,None,h,1,1.3608237019980152,400.6867538480001,None,400.6867538480001,None,400.6867538480001,None,402.10311159699995,None,402.10311159699995,None,402.10311159699995,None,402.10311159699995,None,,,,,,,,,,,,,,,,,,,,,,,,,,,,,,,,,,,,,,,,,,,,001,70,2020_Feb_04_1513,spring_faces,3.1.5,59.9692363808799,
condition files/Stage0c_2.xlsx,0c,theta,beta,g,"['h', 'g']","['Chess', 'Go']","[-0.15, 0.5]","[0.15, 0.5]",1,1,0,17,17,17,0,1,1,2,,,,,,,,,,,,,,,,,,,,,,,,,,,,,,,,,,,,,,,,,,,,,,,,,,,,,,,,,,,,,,,404.0698612009983,None,404.0698612009983,None,404.0698612009983,None,g,1,0.7801813799997035,405.60339092399954,None,405.60339092399954,None,405.60339092399954,None,406.4366533829998,None,406.4366533829998,None,406.4366533829998,None,406.4366533829998,None,,,,,,,,,,,,,,,,,,,,,,,,,,,,,,,,,,,,,,,,,,,,001,70,2020_Feb_04_1513,spring_faces,3.1.5,59.9692363808799,
condition files/Stage0c_2.xlsx,0c,phi,alpha,h,"['h', 'g']","['Chess', 'Go']","[-0.15, 0.5]","[0.15, 0.5]",1,1,0,17,17,17,0,2,2,1,,,,,,,,,,,,,,,,,,,,,,,,,,,,,,,,,,,,,,,,,,,,,,,,,,,,,,,,,,,,,,,408.40303630500057,None,408.40303630500057,None,408.40303630500057,None,h,1,0.7506862549998914,409.93686229300147,None,409.93686229300147,None,409.93686229300147,None,410.7530834019999,None,410.7530834019999,None,410.7530834019999,None,410.7530834019999,None,,,,,,,,,,,,,,,,,,,,,,,,,,,,,,,,,,,,,,,,,,,,001,70,2020_Feb_04_1513,spring_faces,3.1.5,59.9692363808799,
condition files/Stage0c_2.xlsx,0c,beta,phi,g,"['h', 'g']","['Chess', 'Go']","[-0.15, 0.5]","[0.15, 0.5]",1,1,0,17,17,17,0,3,3,3,,,,,,,,,,,,,,,,,,,,,,,,,,,,,,,,,,,,,,,,,,,,,,,,,,,,,,,,,,,,,,,412.71916392099956,None,412.71916392099956,None,412.71916392099956,None,g,1,0.5942457269993611,414.2533294120003,None,414.2533294120003,None,414.2533294120003,None,414.90363044699916,None,414.90363044699916,None,414.90363044699916,None,414.90363044699916,None,,,,,,,,,,,,,,,,,,,,,,,,,,,,,,,,,,,,,,,,,,,,001,70,2020_Feb_04_1513,spring_faces,3.1.5,59.9692363808799,
,,,,,,,,,,,,,,,,,,,,,,,,,,,,,,,,,,,,,,,,,,,,,,,,,,,,,,,,,,,,,,,,,,,,,,,,,,,,,,,,,,,,,,,,,,,,,,,,,,,,,,,,416.8868319530011,None,space,1.1049541690008482,421.8866516989983,None,,,,,,,,,,,,,,,,,,,,,,,,,,,,,,,,,,,,,,001,70,2020_Feb_04_1513,spring_faces,3.1.5,59.9692363808799,
condition files/Stage1_1.xlsx,,T1,B1,c,"['c', 'm']","['Clue', 'Monopoly']","[-0.15, 0.5]","[0.15, 0.5]",1,1,,,,,,,,,0,0,0,0,0,0,0,0,,,,,,,,,,,,,,,,,,,,,,,,,,,,,,,,,,,,,,,,,,,,,,,,,,,,,,,423.05280789899916,None,423.05280789899916,None,423.05280789899916,None,c,1,3.926237014002254,424.5694177020014,None,424.5694177020014,None,424.5694177020014,None,428.57028010200156,None,428.57028010200156,None,428.57028010200156,None,428.57028010200156,None,,,,,,,421.8866516989983,None,,,,,,,,,,,,,,,,,,,,,,,,,,,,,,,,,,,,001,70,2020_Feb_04_1513,spring_faces,3.1.5,59.9692363808799,
condition files/Stage1_1.xlsx,,B3,T3,c,"['c', 'm']","['Clue', 'Monopoly']","[-0.15, 0.5]","[0.15, 0.5]",1,1,,,,,,,,,0,0,0,0,0,1,1,4,,,,,,,,,,,,,,,,,,,,,,,,,,,,,,,,,,,,,,,,,,,,,,,,,,,,,,,430.519777507001,None,430.519777507001,None,430.519777507001,None,m,0,1.25864988900139,432.0529905170006,None,432.0529905170006,None,432.0529905170006,None,433.36944017099813,None,433.36944017099813,None,433.36944017099813,None,433.36944017099813,None,,,,,,,,,,,,,,,,,,,,,,,,,,,,,,,,,,,,,,,,,,,,001,70,2020_Feb_04_1513,spring_faces,3.1.5,59.9692363808799,
condition files/Stage1_1.xlsx,,B4,T4,m,"['c', 'm']","['Clue', 'Monopoly']","[-0.15, 0.5]","[0.15, 0.5]",1,1,,,,,,,,,0,0,0,0,0,2,2,7,,,,,,,,,,,,,,,,,,,,,,,,,,,,,,,,,,,,,,,,,,,,,,,,,,,,,,,435.336801671001,None,435.336801671001,None,435.336801671001,None,m,1,1.8336936460000288,436.86991836000016,None,436.86991836000016,None,436.86991836000016,None,438.7700911460015,None,438.7700911460015,None,438.7700911460015,None,438.7700911460015,None,,,,,,,,,,,,,,,,,,,,,,,,,,,,,,,,,,,,,,,,,,,,001,70,2020_Feb_04_1513,spring_faces,3.1.5,59.9692363808799,
condition files/Stage1_1.xlsx,,T2,B2,m,"['c', 'm']","['Clue', 'Monopoly']","[-0.15, 0.5]","[0.15, 0.5]",1,1,,,,,,,,,0,0,0,0,0,3,3,3,,,,,,,,,,,,,,,,,,,,,,,,,,,,,,,,,,,,,,,,,,,,,,,,,,,,,,,440.71978367799966,None,440.71978367799966,None,440.71978367799966,None,c,0,2.625571584998397,442.2540099830003,None,442.2540099830003,None,442.2540099830003,None,444.9360892449986,None,444.9360892449986,None,444.9360892449986,None,444.9360892449986,None,,,,,,,,,,,,,,,,,,,,,,,,,,,,,,,,,,,,,,,,,,,,001,70,2020_Feb_04_1513,spring_faces,3.1.5,59.9692363808799,
condition files/Stage1_1.xlsx,,B1,T2,c,"['c', 'm']","['Clue', 'Monopoly']","[-0.15, 0.5]","[0.15, 0.5]",1,1,,,,,,,,,0,0,0,0,0,4,4,1,,,,,,,,,,,,,,,,,,,,,,,,,,,,,,,,,,,,,,,,,,,,,,,,,,,,,,,446.9024886010011,None,446.9024886010011,None,446.9024886010011,None,m,0,2.0904368640003668,448.4531945080016,None,448.4531945080016,None,448.4531945080016,None,450.60405295999954,None,450.60405295999954,None,450.60405295999954,None,450.60405295999954,None,,,,,,,,,,,,,,,,,,,,,,,,,,,,,,,,,,,,,,,,,,,,001,70,2020_Feb_04_1513,spring_faces,3.1.5,59.9692363808799,
condition files/Stage1_1.xlsx,,B2,T1,m,"['c', 'm']","['Clue', 'Monopoly']","[-0.15, 0.5]","[0.15, 0.5]",1,1,,,,,,,,,0,0,0,0,0,5,5,2,,,,,,,,,,,,,,,,,,,,,,,,,,,,,,,,,,,,,,,,,,,,,,,,,,,,,,,452.5698649959995,None,452.5698649959995,None,452.5698649959995,None,c,0,2.8883911700031604,454.1032125919992,None,454.1032125919992,None,454.1032125919992,None,457.05373159100054,None,457.05373159100054,None,457.05373159100054,None,457.05373159100054,None,,,,,,,,,,,,,,,,,,,,,,,,,,,,,,,,,,,,,,,,,,,,001,70,2020_Feb_04_1513,spring_faces,3.1.5,59.9692363808799,
condition files/Stage1_1.xlsx,,T3,B4,c,"['c', 'm']","['Clue', 'Monopoly']","[-0.15, 0.5]","[0.15, 0.5]",1,1,,,,,,,,,0,0,0,0,0,6,6,5,,,,,,,,,,,,,,,,,,,,,,,,,,,,,,,,,,,,,,,,,,,,,,,,,,,,,,,459.0196010139989,None,459.0196010139989,None,459.0196010139989,None,m,0,2.9158892759987793,460.5556751240001,None,460.5556751240001,None,460.5556751240001,None,463.536692433001,None,463.536692433001,None,463.536692433001,None,463.536692433001,None,,,,,,,,,,,,,,,,,,,,,,,,,,,,,,,,,,,,,,,,,,,,001,70,2020_Feb_04_1513,spring_faces,3.1.5,59.9692363808799,
condition files/Stage1_1.xlsx,,T4,B3,m,"['c', 'm']","['Clue', 'Monopoly']","[-0.15, 0.5]","[0.15, 0.5]",1,1,,,,,,,,,0,0,0,0,0,7,7,6,,,,,,,,,,,,,,,,,,,,,,,,,,,,,,,,,,,,,,,,,,,,,,,,,,,,,,,465.50242533799974,None,465.50242533799974,None,465.50242533799974,None,m,1,4.067155446999095,467.0363904650003,None,467.0363904650003,None,467.0363904650003,None,471.1722275380016,None,471.1722275380016,None,471.1722275380016,None,471.1722275380016,None,,,,,,,,,,,,,,,,,,,,,,,,,,,,,,,,,,,,,,,,,,,,001,70,2020_Feb_04_1513,spring_faces,3.1.5,59.9692363808799,
condition files/Stage1_2.xlsx,,B1,T1,c,"['c', 'm']","['Clue', 'Monopoly']","[-0.15, 0.5]","[0.15, 0.5]",1,1,,,,,,,,,0,1,1,1,0,0,0,0,,,,,,,,,,,,,,,,,,,,,,,,,,,,,,,,,,,,,,,,,,,,,,,,,,,,,,,473.16964672999893,None,473.16964672999893,None,473.16964672999893,None,c,1,2.5758747270010645,474.68778284200016,None,474.68778284200016,None,474.68778284200016,None,477.33622395400016,None,477.33622395400016,None,477.33622395400016,None,477.33622395400016,None,,,,,,,,,,,,,,,,,,,,,,,,,,,,,,,,,,,,,,,,,,,,001,70,2020_Feb_04_1513,spring_faces,3.1.5,59.9692363808799,
condition files/Stage1_2.xlsx,,T4,B4,m,"['c', 'm']","['Clue', 'Monopoly']","[-0.15, 0.5]","[0.15, 0.5]",1,1,,,,,,,,,0,1,1,1,0,1,1,7,,,,,,,,,,,,,,,,,,,,,,,,,,,,,,,,,,,,,,,,,,,,,,,,,,,,,,,479.2863094960012,None,479.2863094960012,None,479.2863094960012,None,c,0,3.179678492997482,480.8199208160004,None,480.8199208160004,None,480.8199208160004,None,484.05522344400015,None,484.05522344400015,None,484.05522344400015,None,484.05522344400015,None,,,,,,,,,,,,,,,,,,,,,,,,,,,,,,,,,,,,,,,,,,,,001,70,2020_Feb_04_1513,spring_faces,3.1.5,59.9692363808799,
condition files/Stage1_2.xlsx,,B2,T2,m,"['c', 'm']","['Clue', 'Monopoly']","[-0.15, 0.5]","[0.15, 0.5]",1,1,,,,,,,,,0,1,1,1,0,2,2,3,,,,,,,,,,,,,,,,,,,,,,,,,,,,,,,,,,,,,,,,,,,,,,,,,,,,,,,486.0200929019993,None,486.0200929019993,None,486.0200929019993,None,m,1,3.3426750599974184,487.55298964300164,None,487.55298964300164,None,487.55298964300164,None,490.95329735199994,None,490.95329735199994,None,490.95329735199994,None,490.95329735199994,None,,,,,,,,,,,,,,,,,,,,,,,,,,,,,,,,,,,,,,,,,,,,001,70,2020_Feb_04_1513,spring_faces,3.1.5,59.9692363808799,
condition files/Stage1_2.xlsx,,B3,T4,m,"['c', 'm']","['Clue', 'Monopoly']","[-0.15, 0.5]","[0.15, 0.5]",1,1,,,,,,,,,0,1,1,1,0,3,3,6,,,,,,,,,,,,,,,,,,,,,,,,,,,,,,,,,,,,,,,,,,,,,,,,,,,,,,,492.91976988399983,None,492.91976988399983,None,492.91976988399983,None,m,1,3.834384466998017,494.4531396480015,None,494.4531396480015,None,494.4531396480015,None,498.3534084109997,None,498.3534084109997,None,498.3534084109997,None,498.3534084109997,None,,,,,,,,,,,,,,,,,,,,,,,,,,,,,,,,,,,,,,,,,,,,001,70,2020_Feb_04_1513,spring_faces,3.1.5,59.9692363808799,
condition files/Stage1_2.xlsx,,T3,B3,c,"['c', 'm']","['Clue', 'Monopoly']","[-0.15, 0.5]","[0.15, 0.5]",1,1,,,,,,,,,0,1,1,1,0,4,4,4,,,,,,,,,,,,,,,,,,,,,,,,,,,,,,,,,,,,,,,,,,,,,,,,,,,,,,,500.319711832999,None,500.319711832999,None,500.319711832999,None,m,0,1.426179598998715,501.8533515909985,None,501.8533515909985,None,501.8533515909985,None,503.33681476700076,None,503.33681476700076,None,503.33681476700076,None,503.33681476700076,None,,,,,,,,,,,,,,,,,,,,,,,,,,,,,,,,,,,,,,,,,,,,001,70,2020_Feb_04_1513,spring_faces,3.1.5,59.9692363808799,
condition files/Stage1_2.xlsx,,T2,B1,c,"['c', 'm']","['Clue', 'Monopoly']","[-0.15, 0.5]","[0.15, 0.5]",1,1,,,,,,,,,0,1,1,1,0,5,5,1,,,,,,,,,,,,,,,,,,,,,,,,,,,,,,,,,,,,,,,,,,,,,,,,,,,,,,,505.3032190109989,None,505.3032190109989,None,505.3032190109989,None,c,1,4.571326436001982,506.83627528799843,None,506.83627528799843,None,506.83627528799843,None,511.4702396139983,None,511.4702396139983,None,511.4702396139983,None,511.4702396139983,None,,,,,,,,,,,,,,,,,,,,,,,,,,,,,,,,,,,,,,,,,,,,001,70,2020_Feb_04_1513,spring_faces,3.1.5,59.9692363808799,
condition files/Stage1_2.xlsx,,T1,B2,m,"['c', 'm']","['Clue', 'Monopoly']","[-0.15, 0.5]","[0.15, 0.5]",1,1,,,,,,,,,0,1,1,1,0,6,6,2,,,,,,,,,,,,,,,,,,,,,,,,,,,,,,,,,,,,,,,,,,,,,,,,,,,,,,,513.4363759059997,None,513.4363759059997,None,513.4363759059997,None,m,1,2.3073551999987103,514.9722004100004,None,514.9722004100004,None,514.9722004100004,None,517.3368292509986,None,517.3368292509986,None,517.3368292509986,None,517.3368292509986,None,,,,,,,,,,,,,,,,,,,,,,,,,,,,,,,,,,,,,,,,,,,,001,70,2020_Feb_04_1513,spring_faces,3.1.5,59.9692363808799,
condition files/Stage1_2.xlsx,,B4,T3,c,"['c', 'm']","['Clue', 'Monopoly']","[-0.15, 0.5]","[0.15, 0.5]",1,1,,,,,,,,,0,1,1,1,0,7,7,5,,,,,,,,,,,,,,,,,,,,,,,,,,,,,,,,,,,,,,,,,,,,,,,,,,,,,,,519.3032956030002,None,519.3032956030002,None,519.3032956030002,None,c,1,2.2350727320008446,520.8364525180004,None,520.8364525180004,None,520.8364525180004,None,523.1371456300003,None,523.1371456300003,None,523.1371456300003,None,523.1371456300003,None,,,,,,,,,,,,,,,,,,,,,,,,,,,,,,,,,,,,,,,,,,,,001,70,2020_Feb_04_1513,spring_faces,3.1.5,59.9692363808799,
condition files/Stage1_1.xlsx,,T4,B3,m,"['c', 'm']","['Clue', 'Monopoly']","[-0.15, 0.5]","[0.15, 0.5]",1,1,,,,,,,,,0,2,2,2,0,0,0,6,,,,,,,,,,,,,,,,,,,,,,,,,,,,,,,,,,,,,,,,,,,,,,,,,,,,,,,525.1195616110017,None,525.1195616110017,None,525.1195616110017,None,c,0,2.7543241499988653,526.6532826719995,None,526.6532826719995,None,526.6532826719995,None,529.4712239110013,None,529.4712239110013,None,529.4712239110013,None,529.4712239110013,None,,,,,,,,,,,,,,,,,,,,,,,,,,,,,,,,,,,,,,,,,,,,001,70,2020_Feb_04_1513,spring_faces,3.1.5,59.9692363808799,
condition files/Stage1_1.xlsx,,B4,T4,m,"['c', 'm']","['Clue', 'Monopoly']","[-0.15, 0.5]","[0.15, 0.5]",1,1,,,,,,,,,0,2,2,2,0,1,1,7,,,,,,,,,,,,,,,,,,,,,,,,,,,,,,,,,,,,,,,,,,,,,,,,,,,,,,,531.4364880920002,None,531.4364880920002,None,531.4364880920002,None,m,1,2.644670955996844,532.9868741749997,None,532.9868741749997,None,532.9868741749997,None,535.6860898400009,None,535.6860898400009,None,535.6860898400009,None,535.6860898400009,None,,,,,,,,,,,,,,,,,,,,,,,,,,,,,,,,,,,,,,,,,,,,001,70,2020_Feb_04_1513,spring_faces,3.1.5,59.9692363808799,
condition files/Stage1_1.xlsx,,B2,T1,m,"['c', 'm']","['Clue', 'Monopoly']","[-0.15, 0.5]","[0.15, 0.5]",1,1,,,,,,,,,0,2,2,2,0,2,2,2,,,,,,,,,,,,,,,,,,,,,,,,,,,,,,,,,,,,,,,,,,,,,,,,,,,,,,,537.6532931030015,None,537.6532931030015,None,537.6532931030015,None,c,0,1.0206444809991808,539.1869615600008,None,539.1869615600008,None,539.1869615600008,None,540.2696945460011,None,540.2696945460011,None,540.2696945460011,None,540.2696945460011,None,,,,,,,,,,,,,,,,,,,,,,,,,,,,,,,,,,,,,,,,,,,,001,70,2020_Feb_04_1513,spring_faces,3.1.5,59.9692363808799,
condition files/Stage1_1.xlsx,,B3,T3,c,"['c', 'm']","['Clue', 'Monopoly']","[-0.15, 0.5]","[0.15, 0.5]",1,1,,,,,,,,,0,2,2,2,0,3,3,4,,,,,,,,,,,,,,,,,,,,,,,,,,,,,,,,,,,,,,,,,,,,,,,,,,,,,,,542.2362463419995,None,542.2362463419995,None,542.2362463419995,None,m,0,1.9582164249986818,543.7694410340009,None,543.7694410340009,None,543.7694410340009,None,545.7891237359981,None,545.7891237359981,None,545.7891237359981,None,545.7891237359981,None,,,,,,,,,,,,,,,,,,,,,,,,,,,,,,,,,,,,,,,,,,,,001,70,2020_Feb_04_1513,spring_faces,3.1.5,59.9692363808799,
condition files/Stage1_1.xlsx,,T2,B2,m,"['c', 'm']","['Clue', 'Monopoly']","[-0.15, 0.5]","[0.15, 0.5]",1,1,,,,,,,,,0,2,2,2,0,4,4,3,,,,,,,,,,,,,,,,,,,,,,,,,,,,,,,,,,,,,,,,,,,,,,,,,,,,,,,547.753111484999,None,547.753111484999,None,547.753111484999,None,c,0,3.6722138689983694,549.3033661139998,None,549.3033661139998,None,549.3033661139998,None,553.0532266480004,None,553.0532266480004,None,553.0532266480004,None,553.0532266480004,None,,,,,,,,,,,,,,,,,,,,,,,,,,,,,,,,,,,,,,,,,,,,001,70,2020_Feb_04_1513,spring_faces,3.1.5,59.9692363808799,
condition files/Stage1_1.xlsx,,T3,B4,c,"['c', 'm']","['Clue', 'Monopoly']","[-0.15, 0.5]","[0.15, 0.5]",1,1,,,,,,,,,0,2,2,2,0,5,5,5,,,,,,,,,,,,,,,,,,,,,,,,,,,,,,,,,,,,,,,,,,,,,,,,,,,,,,,555.0031009390004,None,555.0031009390004,None,555.0031009390004,None,m,0,3.3332105349982157,556.5383833820015,None,556.5383833820015,None,556.5383833820015,None,559.9529271920001,None,559.9529271920001,None,559.9529271920001,None,559.9529271920001,None,,,,,,,,,,,,,,,,,,,,,,,,,,,,,,,,,,,,,,,,,,,,001,70,2020_Feb_04_1513,spring_faces,3.1.5,59.9692363808799,
condition files/Stage1_1.xlsx,,T1,B1,c,"['c', 'm']","['Clue', 'Monopoly']","[-0.15, 0.5]","[0.15, 0.5]",1,1,,,,,,,,,0,2,2,2,0,6,6,0,,,,,,,,,,,,,,,,,,,,,,,,,,,,,,,,,,,,,,,,,,,,,,,,,,,,,,,561.9028470869998,None,561.9028470869998,None,561.9028470869998,None,c,1,1.3472748399981356,563.4363352719993,None,563.4363352719993,None,563.4363352719993,None,564.8367188619995,None,564.8367188619995,None,564.8367188619995,None,564.8367188619995,None,,,,,,,,,,,,,,,,,,,,,,,,,,,,,,,,,,,,,,,,,,,,001,70,2020_Feb_04_1513,spring_faces,3.1.5,59.9692363808799,
condition files/Stage1_1.xlsx,,B1,T2,c,"['c', 'm']","['Clue', 'Monopoly']","[-0.15, 0.5]","[0.15, 0.5]",1,1,,,,,,,,,0,2,2,2,0,7,7,1,,,,,,,,,,,,,,,,,,,,,,,,,,,,,,,,,,,,,,,,,,,,,,,,,,,,,,,566.8028689640014,None,566.8028689640014,None,566.8028689640014,None,m,0,2.606818273998215,568.3368425000008,None,568.3368425000008,None,568.3368425000008,None,571.003389816,None,571.003389816,None,571.003389816,None,571.003389816,None,,,,,,,,,,,,,,,,,,,,,,,,,,,,,,,,,,,,,,,,,,,,001,70,2020_Feb_04_1513,spring_faces,3.1.5,59.9692363808799,
condition files/Stage1_2.xlsx,,T4,B4,m,"['c', 'm']","['Clue', 'Monopoly']","[-0.15, 0.5]","[0.15, 0.5]",1,1,,,,,,,,,0,3,3,3,0,0,0,7,,,,,,,,,,,,,,,,,,,,,,,,,,,,,,,,,,,,,,,,,,,,,,,,,,,,,,,572.986889066,None,572.986889066,None,572.986889066,None,m,1,2.6634984690026613,574.5360937879996,None,574.5360937879996,None,574.5360937879996,None,577.2557663219995,None,577.2557663219995,None,577.2557663219995,None,577.2557663219995,None,,,,,,,,,,,,,,,,,,,,,,,,,,,,,,,,,,,,,,,,,,,,001,70,2020_Feb_04_1513,spring_faces,3.1.5,59.9692363808799,
condition files/Stage1_2.xlsx,,T1,B2,m,"['c', 'm']","['Clue', 'Monopoly']","[-0.15, 0.5]","[0.15, 0.5]",1,1,,,,,,,,,0,3,3,3,0,1,1,2,,,,,,,,,,,,,,,,,,,,,,,,,,,,,,,,,,,,,,,,,,,,,,,,,,,,,,,579.2193819489985,None,579.2193819489985,None,579.2193819489985,None,m,1,4.045388152000669,580.7701666110006,None,580.7701666110006,None,580.7701666110006,None,584.869371372999,None,584.869371372999,None,584.869371372999,None,584.869371372999,None,,,,,,,,,,,,,,,,,,,,,,,,,,,,,,,,,,,,,,,,,,,,001,70,2020_Feb_04_1513,spring_faces,3.1.5,59.9692363808799,
condition files/Stage1_2.xlsx,,B1,T1,c,"['c', 'm']","['Clue', 'Monopoly']","[-0.15, 0.5]","[0.15, 0.5]",1,1,,,,,,,,,0,3,3,3,0,2,2,0,,,,,,,,,,,,,,,,,,,,,,,,,,,,,,,,,,,,,,,,,,,,,,,,,,,,,,,586.836248298001,None,586.836248298001,None,586.836248298001,None,c,1,1.740590859000804,588.387054548999,None,588.387054548999,None,588.387054548999,None,590.1881718350014,None,590.1881718350014,None,590.1881718350014,None,590.1881718350014,None,,,,,,,,,,,,,,,,,,,,,,,,,,,,,,,,,,,,,,,,,,,,001,70,2020_Feb_04_1513,spring_faces,3.1.5,59.9692363808799,
condition files/Stage1_2.xlsx,,B2,T2,m,"['c', 'm']","['Clue', 'Monopoly']","[-0.15, 0.5]","[0.15, 0.5]",1,1,,,,,,,,,0,3,3,3,0,3,3,3,,,,,,,,,,,,,,,,,,,,,,,,,,,,,,,,,,,,,,,,,,,,,,,,,,,,,,,592.1530558419981,None,592.1530558419981,None,592.1530558419981,None,c,0,1.9926298559985298,593.6869598910016,None,593.6869598910016,None,593.6869598910016,None,595.7527299760004,None,595.7527299760004,None,595.7527299760004,None,595.7527299760004,None,,,,,,,,,,,,,,,,,,,,,,,,,,,,,,,,,,,,,,,,,,,,001,70,2020_Feb_04_1513,spring_faces,3.1.5,59.9692363808799,
condition files/Stage1_2.xlsx,,T3,B3,c,"['c', 'm']","['Clue', 'Monopoly']","[-0.15, 0.5]","[0.15, 0.5]",1,1,,,,,,,,,0,3,3,3,0,4,4,4,,,,,,,,,,,,,,,,,,,,,,,,,,,,,,,,,,,,,,,,,,,,,,,,,,,,,,,597.7024913290006,None,597.7024913290006,None,597.7024913290006,None,m,0,1.5473522009997396,599.2361699370013,None,599.2361699370013,None,599.2361699370013,None,600.8371302289997,None,600.8371302289997,None,600.8371302289997,None,600.8371302289997,None,,,,,,,,,,,,,,,,,,,,,,,,,,,,,,,,,,,,,,,,,,,,001,70,2020_Feb_04_1513,spring_faces,3.1.5,59.9692363808799,
condition files/Stage1_2.xlsx,,B4,T3,c,"['c', 'm']","['Clue', 'Monopoly']","[-0.15, 0.5]","[0.15, 0.5]",1,1,,,,,,,,,0,3,3,3,0,5,5,5,,,,,,,,,,,,,,,,,,,,,,,,,,,,,,,,,,,,,,,,,,,,,,,,,,,,,,,602.8028715949986,None,602.8028715949986,None,602.8028715949986,None,c,1,1.7908244829995965,604.3368384130008,None,604.3368384130008,None,604.3368384130008,None,606.1870695879988,None,606.1870695879988,None,606.1870695879988,None,606.1870695879988,None,,,,,,,,,,,,,,,,,,,,,,,,,,,,,,,,,,,,,,,,,,,,001,70,2020_Feb_04_1513,spring_faces,3.1.5,59.9692363808799,
condition files/Stage1_2.xlsx,,B3,T4,m,"['c', 'm']","['Clue', 'Monopoly']","[-0.15, 0.5]","[0.15, 0.5]",1,1,,,,,,,,,0,3,3,3,0,6,6,6,,,,,,,,,,,,,,,,,,,,,,,,,,,,,,,,,,,,,,,,,,,,,,,,,,,,,,,608.1524814570002,None,608.1524814570002,None,608.1524814570002,None,c,0,1.7688116110002738,609.6867899149984,None,609.6867899149984,None,609.6867899149984,None,611.5370890829981,None,611.5370890829981,None,611.5370890829981,None,611.5370890829981,None,,,,,,,,,,,,,,,,,,,,,,,,,,,,,,,,,,,,,,,,,,,,001,70,2020_Feb_04_1513,spring_faces,3.1.5,59.9692363808799,
condition files/Stage1_2.xlsx,,T2,B1,c,"['c', 'm']","['Clue', 'Monopoly']","[-0.15, 0.5]","[0.15, 0.5]",1,1,,,,,,,,,0,3,3,3,0,7,7,1,,,,,,,,,,,,,,,,,,,,,,,,,,,,,,,,,,,,,,,,,,,,,,,,,,,,,,,613.4857784380001,None,613.4857784380001,None,613.4857784380001,None,c,1,2.307620687002782,615.0200410010002,None,615.0200410010002,None,615.0200410010002,None,617.3861785230001,None,617.3861785230001,None,617.3861785230001,None,617.3861785230001,None,,,,,,,,,,,,,,,,,,,,,,,,,,,,,,,,,,,,,,,,,,,,001,70,2020_Feb_04_1513,spring_faces,3.1.5,59.9692363808799,
condition files/Stage1_1.xlsx,,T3,B4,c,"['c', 'm']","['Clue', 'Monopoly']","[-0.15, 0.5]","[0.15, 0.5]",1,1,,,,,,,,,0,4,4,4,0,0,0,5,,,,,,,,,,,,,,,,,,,,,,,,,,,,,,,,,,,,,,,,,,,,,,,,,,,,,,,619.3695285879985,None,619.3695285879985,None,619.3695285879985,None,m,0,1.8635037160020147,620.9040954519987,None,620.9040954519987,None,620.9040954519987,None,622.8200111439983,None,622.8200111439983,None,622.8200111439983,None,622.8200111439983,None,,,,,,,,,,,,,,,,,,,,,,,,,,,,,,,,,,,,,,,,,,,,001,70,2020_Feb_04_1513,spring_faces,3.1.5,59.9692363808799,
condition files/Stage1_1.xlsx,,T1,B1,c,"['c', 'm']","['Clue', 'Monopoly']","[-0.15, 0.5]","[0.15, 0.5]",1,1,,,,,,,,,0,4,4,4,0,1,1,0,,,,,,,,,,,,,,,,,,,,,,,,,,,,,,,,,,,,,,,,,,,,,,,,,,,,,,,624.785629471,None,624.785629471,None,624.785629471,None,m,0,2.542932912998367,626.3366441860016,None,626.3366441860016,None,626.3366441860016,None,628.9361851760004,None,628.9361851760004,None,628.9361851760004,None,628.9361851760004,None,,,,,,,,,,,,,,,,,,,,,,,,,,,,,,,,,,,,,,,,,,,,001,70,2020_Feb_04_1513,spring_faces,3.1.5,59.9692363808799,
condition files/Stage1_1.xlsx,,B3,T3,c,"['c', 'm']","['Clue', 'Monopoly']","[-0.15, 0.5]","[0.15, 0.5]",1,1,,,,,,,,,0,4,4,4,0,2,2,4,,,,,,,,,,,,,,,,,,,,,,,,,,,,,,,,,,,,,,,,,,,,,,,,,,,,,,,630.9027614769984,None,630.9027614769984,None,630.9027614769984,None,m,0,7.6911409120002645,632.4365207949995,None,632.4365207949995,None,632.4365207949995,None,640.1863890880013,None,640.1863890880013,None,640.1863890880013,None,640.1863890880013,None,,,,,,,,,,,,,,,,,,,,,,,,,,,,,,,,,,,,,,,,,,,,001,70,2020_Feb_04_1513,spring_faces,3.1.5,59.9692363808799,
condition files/Stage1_1.xlsx,,B2,T1,m,"['c', 'm']","['Clue', 'Monopoly']","[-0.15, 0.5]","[0.15, 0.5]",1,1,,,,,,,,,0,4,4,4,0,3,3,2,,,,,,,,,,,,,,,,,,,,,,,,,,,,,,,,,,,,,,,,,,,,,,,,,,,,,,,642.1531118769999,None,642.1531118769999,None,642.1531118769999,None,m,1,2.313267404999351,643.6863386520017,None,643.6863386520017,None,643.6863386520017,None,646.0698375350003,None,646.0698375350003,None,646.0698375350003,None,646.0698375350003,None,,,,,,,,,,,,,,,,,,,,,,,,,,,,,,,,,,,,,,,,,,,,001,70,2020_Feb_04_1513,spring_faces,3.1.5,59.9692363808799,
condition files/Stage1_1.xlsx,,B4,T4,m,"['c', 'm']","['Clue', 'Monopoly']","[-0.15, 0.5]","[0.15, 0.5]",1,1,,,,,,,,,0,4,4,4,0,4,4,7,,,,,,,,,,,,,,,,,,,,,,,,,,,,,,,,,,,,,,,,,,,,,,,,,,,,,,,648.0197804339987,None,648.0197804339987,None,648.0197804339987,None,c,0,2.6372041030008404,649.5544057109983,None,649.5544057109983,None,649.5544057109983,None,652.253504766999,None,652.253504766999,None,652.253504766999,None,652.253504766999,None,,,,,,,,,,,,,,,,,,,,,,,,,,,,,,,,,,,,,,,,,,,,001,70,2020_Feb_04_1513,spring_faces,3.1.5,59.9692363808799,
condition files/Stage1_1.xlsx,,B1,T2,c,"['c', 'm']","['Clue', 'Monopoly']","[-0.15, 0.5]","[0.15, 0.5]",1,1,,,,,,,,,0,4,4,4,0,5,5,1,,,,,,,,,,,,,,,,,,,,,,,,,,,,,,,,,,,,,,,,,,,,,,,,,,,,,,,654.2194810479996,None,654.2194810479996,None,654.2194810479996,None,c,1,2.3426746889999777,655.7529868620004,None,655.7529868620004,None,655.7529868620004,None,658.1535839319986,None,658.1535839319986,None,658.1535839319986,None,658.1535839319986,None,,,,,,,,,,,,,,,,,,,,,,,,,,,,,,,,,,,,,,,,,,,,001,70,2020_Feb_04_1513,spring_faces,3.1.5,59.9692363808799,
condition files/Stage1_1.xlsx,,T4,B3,m,"['c', 'm']","['Clue', 'Monopoly']","[-0.15, 0.5]","[0.15, 0.5]",1,1,,,,,,,,,0,4,4,4,0,6,6,6,,,,,,,,,,,,,,,,,,,,,,,,,,,,,,,,,,,,,,,,,,,,,,,,,,,,,,,660.1201738790005,None,660.1201738790005,None,660.1201738790005,None,c,0,3.595109409001452,661.6524819059996,None,661.6524819059996,None,661.6524819059996,None,665.3033018720016,None,665.3033018720016,None,665.3033018720016,None,665.3033018720016,None,,,,,,,,,,,,,,,,,,,,,,,,,,,,,,,,,,,,,,,,,,,,001,70,2020_Feb_04_1513,spring_faces,3.1.5,59.9692363808799,
condition files/Stage1_1.xlsx,,T2,B2,m,"['c', 'm']","['Clue', 'Monopoly']","[-0.15, 0.5]","[0.15, 0.5]",1,1,,,,,,,,,0,4,4,4,0,7,7,3,,,,,,,,,,,,,,,,,,,,,,,,,,,,,,,,,,,,,,,,,,,,,,,,,,,,,,,667.269852985999,None,667.269852985999,None,667.269852985999,None,c,0,2.396224580999842,668.8033550610016,None,668.8033550610016,None,668.8033550610016,None,671.252784979999,None,671.252784979999,None,671.252784979999,None,671.252784979999,None,,,,,,,,,,,,,,,,,,,,,,,,,,,,,,,,,,,,,,,,,,,,001,70,2020_Feb_04_1513,spring_faces,3.1.5,59.9692363808799,
condition files/Stage1_2.xlsx,,B4,T3,c,"['c', 'm']","['Clue', 'Monopoly']","[-0.15, 0.5]","[0.15, 0.5]",1,1,,,,,,,,,0,5,5,5,0,0,0,5,,,,,,,,,,,,,,,,,,,,,,,,,,,,,,,,,,,,,,,,,,,,,,,,,,,,,,,673.2362982509985,None,673.2362982509985,None,673.2362982509985,None,c,1,7.48548311400009,674.7701258650013,None,674.7701258650013,None,674.7701258650013,None,682.3223412549996,None,682.3223412549996,None,682.3223412549996,None,682.3223412549996,None,,,,,,,,,,,,,,,,,,,,,,,,,,,,,,,,,,,,,,,,,,,,001,70,2020_Feb_04_1513,spring_faces,3.1.5,59.9692363808799,
condition files/Stage1_2.xlsx,,T3,B3,c,"['c', 'm']","['Clue', 'Monopoly']","[-0.15, 0.5]","[0.15, 0.5]",1,1,,,,,,,,,0,5,5,5,0,1,1,4,,,,,,,,,,,,,,,,,,,,,,,,,,,,,,,,,,,,,,,,,,,,,,,,,,,,,,,684.2863982390008,None,684.2863982390008,None,684.2863982390008,None,m,0,7.380216402998485,685.819380066001,None,685.819380066001,None,685.819380066001,None,693.2533547909989,None,693.2533547909989,None,693.2533547909989,None,693.2533547909989,None,,,,,,,,,,,,,,,,,,,,,,,,,,,,,,,,,,,,,,,,,,,,001,70,2020_Feb_04_1513,spring_faces,3.1.5,59.9692363808799,
condition files/Stage1_2.xlsx,,B2,T2,m,"['c', 'm']","['Clue', 'Monopoly']","[-0.15, 0.5]","[0.15, 0.5]",1,1,,,,,,,,,0,5,5,5,0,2,2,3,,,,,,,,,,,,,,,,,,,,,,,,,,,,,,,,,,,,,,,,,,,,,,,,,,,,,,,695.2197948799985,None,695.2197948799985,None,695.2197948799985,None,m,1,5.101203202000761,696.7703344580004,None,696.7703344580004,None,696.7703344580004,None,701.9384551799994,None,701.9384551799994,None,701.9384551799994,None,701.9384551799994,None,,,,,,,,,,,,,,,,,,,,,,,,,,,,,,,,,,,,,,,,,,,,001,70,2020_Feb_04_1513,spring_faces,3.1.5,59.9692363808799,
condition files/Stage1_2.xlsx,,T4,B4,m,"['c', 'm']","['Clue', 'Monopoly']","[-0.15, 0.5]","[0.15, 0.5]",1,1,,,,,,,,,0,5,5,5,0,3,3,7,,,,,,,,,,,,,,,,,,,,,,,,,,,,,,,,,,,,,,,,,,,,,,,,,,,,,,,703.9030778779997,None,703.9030778779997,None,703.9030778779997,None,m,1,2.2908868239974254,705.4367728899997,None,705.4367728899997,None,705.4367728899997,None,707.7862224540004,None,707.7862224540004,None,707.7862224540004,None,707.7862224540004,None,,,,,,,,,,,,,,,,,,,,,,,,,,,,,,,,,,,,,,,,,,,,001,70,2020_Feb_04_1513,spring_faces,3.1.5,59.9692363808799,
condition files/Stage1_2.xlsx,,T1,B2,m,"['c', 'm']","['Clue', 'Monopoly']","[-0.15, 0.5]","[0.15, 0.5]",1,1,,,,,,,,,0,5,5,5,0,4,4,2,,,,,,,,,,,,,,,,,,,,,,,,,,,,,,,,,,,,,,,,,,,,,,,,,,,,,,,709.7533062279981,None,709.7533062279981,None,709.7533062279981,None,c,0,1.0967190789997403,711.3028718019996,None,711.3028718019996,None,711.3028718019996,None,712.4529321699993,None,712.4529321699993,None,712.4529321699993,None,712.4529321699993,None,,,,,,,,,,,,,,,,,,,,,,,,,,,,,,,,,,,,,,,,,,,,001,70,2020_Feb_04_1513,spring_faces,3.1.5,59.9692363808799,
condition files/Stage1_2.xlsx,,T2,B1,c,"['c', 'm']","['Clue', 'Monopoly']","[-0.15, 0.5]","[0.15, 0.5]",1,1,,,,,,,,,0,5,5,5,0,5,5,1,,,,,,,,,,,,,,,,,,,,,,,,,,,,,,,,,,,,,,,,,,,,,,,,,,,,,,,714.4200917630005,None,714.4200917630005,None,714.4200917630005,None,m,0,2.830538747999526,715.9529788229993,None,715.9529788229993,None,715.9529788229993,None,718.8370657449996,None,718.8370657449996,None,718.8370657449996,None,718.8370657449996,None,,,,,,,,,,,,,,,,,,,,,,,,,,,,,,,,,,,,,,,,,,,,001,70,2020_Feb_04_1513,spring_faces,3.1.5,59.9692363808799,
condition files/Stage1_2.xlsx,,B1,T1,c,"['c', 'm']","['Clue', 'Monopoly']","[-0.15, 0.5]","[0.15, 0.5]",1,1,,,,,,,,,0,5,5,5,0,6,6,0,,,,,,,,,,,,,,,,,,,,,,,,,,,,,,,,,,,,,,,,,,,,,,,,,,,,,,,720.8026463249989,None,720.8026463249989,None,720.8026463249989,None,m,0,1.8869699130009394,722.3366154719988,None,722.3366154719988,None,722.3366154719988,None,724.2864504999998,None,724.2864504999998,None,724.2864504999998,None,724.2864504999998,None,,,,,,,,,,,,,,,,,,,,,,,,,,,,,,,,,,,,,,,,,,,,001,70,2020_Feb_04_1513,spring_faces,3.1.5,59.9692363808799,
condition files/Stage1_2.xlsx,,B3,T4,m,"['c', 'm']","['Clue', 'Monopoly']","[-0.15, 0.5]","[0.15, 0.5]",1,1,,,,,,,,,0,5,5,5,0,7,7,6,,,,,,,,,,,,,,,,,,,,,,,,,,,,,,,,,,,,,,,,,,,,,,,,,,,,,,,726.2530687619983,None,726.2530687619983,None,726.2530687619983,None,c,0,4.16432906800037,727.787263885999,None,727.787263885999,None,727.787263885999,None,732.0029430120012,None,732.0029430120012,None,732.0029430120012,None,732.0029430120012,None,,,,,,,,,,,,,,,,,,,,,,,,,,,,,,,,,,,,,,,,,,,,001,70,2020_Feb_04_1513,spring_faces,3.1.5,59.9692363808799,
condition files/Stage1_1.xlsx,,T3,B4,c,"['c', 'm']","['Clue', 'Monopoly']","[-0.15, 0.5]","[0.15, 0.5]",1,1,,,,,,,,,0,6,6,6,0,0,0,5,,,,,,,,,,,,,,,,,,,,,,,,,,,,,,,,,,,,,,,,,,,,,,,,,,,,,,,733.9866343590002,None,733.9866343590002,None,733.9866343590002,None,c,1,2.6555698689990095,735.5200047059989,None,735.5200047059989,None,735.5200047059989,None,738.2372633720006,None,738.2372633720006,None,738.2372633720006,None,738.2372633720006,None,,,,,,,,,,,,,,,,,,,,,,,,,,,,,,,,,,,,,,,,,,,,001,70,2020_Feb_04_1513,spring_faces,3.1.5,59.9692363808799,
condition files/Stage1_1.xlsx,,B2,T1,m,"['c', 'm']","['Clue', 'Monopoly']","[-0.15, 0.5]","[0.15, 0.5]",1,1,,,,,,,,,0,6,6,6,0,1,1,2,,,,,,,,,,,,,,,,,,,,,,,,,,,,,,,,,,,,,,,,,,,,,,,,,,,,,,,740.2028771680016,None,740.2028771680016,None,740.2028771680016,None,c,0,5.7828638430000865,741.7367253250013,None,741.7367253250013,None,741.7367253250013,None,747.5866638010011,None,747.5866638010011,None,747.5866638010011,None,747.5866638010011,None,,,,,,,,,,,,,,,,,,,,,,,,,,,,,,,,,,,,,,,,,,,,001,70,2020_Feb_04_1513,spring_faces,3.1.5,59.9692363808799,
condition files/Stage1_1.xlsx,,B4,T4,m,"['c', 'm']","['Clue', 'Monopoly']","[-0.15, 0.5]","[0.15, 0.5]",1,1,,,,,,,,,0,6,6,6,0,2,2,7,,,,,,,,,,,,,,,,,,,,,,,,,,,,,,,,,,,,,,,,,,,,,,,,,,,,,,,749.5357513199997,None,749.5357513199997,None,749.5357513199997,None,c,0,2.2086034099993412,751.0709939560002,None,751.0709939560002,None,751.0709939560002,None,753.3369246260008,None,753.3369246260008,None,753.3369246260008,None,753.3369246260008,None,,,,,,,,,,,,,,,,,,,,,,,,,,,,,,,,,,,,,,,,,,,,001,70,2020_Feb_04_1513,spring_faces,3.1.5,59.9692363808799,
condition files/Stage1_1.xlsx,,B3,T3,c,"['c', 'm']","['Clue', 'Monopoly']","[-0.15, 0.5]","[0.15, 0.5]",1,1,,,,,,,,,0,6,6,6,0,3,3,4,,,,,,,,,,,,,,,,,,,,,,,,,,,,,,,,,,,,,,,,,,,,,,,,,,,,,,,755.3032797080014,None,755.3032797080014,None,755.3032797080014,None,c,1,2.9546903900009056,756.8369062320016,None,756.8369062320016,None,756.8369062320016,None,759.8526982529984,None,759.8526982529984,None,759.8526982529984,None,759.8526982529984,None,,,,,,,,,,,,,,,,,,,,,,,,,,,,,,,,,,,,,,,,,,,,001,70,2020_Feb_04_1513,spring_faces,3.1.5,59.9692363808799,
condition files/Stage1_1.xlsx,,T4,B3,m,"['c', 'm']","['Clue', 'Monopoly']","[-0.15, 0.5]","[0.15, 0.5]",1,1,,,,,,,,,0,6,6,6,0,4,4,6,,,,,,,,,,,,,,,,,,,,,,,,,,,,,,,,,,,,,,,,,,,,,,,,,,,,,,,761.8196457640006,None,761.8196457640006,None,761.8196457640006,None,m,1,2.294228345999727,763.3533406759998,None,763.3533406759998,None,763.3533406759998,None,765.7043371559994,None,765.7043371559994,None,765.7043371559994,None,765.7043371559994,None,,,,,,,,,,,,,,,,,,,,,,,,,,,,,,,,,,,,,,,,,,,,001,70,2020_Feb_04_1513,spring_faces,3.1.5,59.9692363808799,
condition files/Stage1_1.xlsx,,B1,T2,c,"['c', 'm']","['Clue', 'Monopoly']","[-0.15, 0.5]","[0.15, 0.5]",1,1,,,,,,,,,0,6,6,6,0,5,5,1,,,,,,,,,,,,,,,,,,,,,,,,,,,,,,,,,,,,,,,,,,,,,,,,,,,,,,,767.6691504260016,None,767.6691504260016,None,767.6691504260016,None,m,0,6.732573765999405,769.2029987220012,None,769.2029987220012,None,769.2029987220012,None,775.9864204500009,None,775.9864204500009,None,775.9864204500009,None,775.9864204500009,None,,,,,,,,,,,,,,,,,,,,,,,,,,,,,,,,,,,,,,,,,,,,001,70,2020_Feb_04_1513,spring_faces,3.1.5,59.9692363808799,
condition files/Stage1_1.xlsx,,T1,B1,c,"['c', 'm']","['Clue', 'Monopoly']","[-0.15, 0.5]","[0.15, 0.5]",1,1,,,,,,,,,0,6,6,6,0,6,6,0,,,,,,,,,,,,,,,,,,,,,,,,,,,,,,,,,,,,,,,,,,,,,,,,,,,,,,,777.9531011969993,None,777.9531011969993,None,777.9531011969993,None,m,0,4.624678332998883,779.4869889330002,None,779.4869889330002,None,779.4869889330002,None,784.1697709949985,None,784.1697709949985,None,784.1697709949985,None,784.1697709949985,None,,,,,,,,,,,,,,,,,,,,,,,,,,,,,,,,,,,,,,,,,,,,001,70,2020_Feb_04_1513,spring_faces,3.1.5,59.9692363808799,
condition files/Stage1_1.xlsx,,T2,B2,m,"['c', 'm']","['Clue', 'Monopoly']","[-0.15, 0.5]","[0.15, 0.5]",1,1,,,,,,,,,0,6,6,6,0,7,7,3,,,,,,,,,,,,,,,,,,,,,,,,,,,,,,,,,,,,,,,,,,,,,,,,,,,,,,,786.136486372001,None,786.136486372001,None,786.136486372001,None,m,1,2.5845336679994944,787.6870116089995,None,787.6870116089995,None,787.6870116089995,None,790.3386014030002,None,790.3386014030002,None,790.3386014030002,None,790.3386014030002,None,,,,,,,,,,,,,,,,,,,,,,,,,,,,,,,,,,,,,,,,,,,,001,70,2020_Feb_04_1513,spring_faces,3.1.5,59.9692363808799,
condition files/Stage1_2.xlsx,,T2,B1,c,"['c', 'm']","['Clue', 'Monopoly']","[-0.15, 0.5]","[0.15, 0.5]",1,1,,,,,,,,,0,7,7,7,0,0,0,1,,,,,,,,,,,,,,,,,,,,,,,,,,,,,,,,,,,,,,,,,,,,,,,,,,,,,,,792.319717669001,None,792.319717669001,None,792.319717669001,None,c,1,3.6962894540010893,793.8553175259985,None,793.8553175259985,None,793.8553175259985,None,797.6046904329996,None,797.6046904329996,None,797.6046904329996,None,797.6046904329996,None,,,,,,,,,,,,,,,,,,,,,,,,,,,,,,,,,,,,,,,,,,,,001,70,2020_Feb_04_1513,spring_faces,3.1.5,59.9692363808799,
condition files/Stage1_2.xlsx,,B2,T2,m,"['c', 'm']","['Clue', 'Monopoly']","[-0.15, 0.5]","[0.15, 0.5]",1,1,,,,,,,,,0,7,7,7,0,1,1,3,,,,,,,,,,,,,,,,,,,,,,,,,,,,,,,,,,,,,,,,,,,,,,,,,,,,,,,799.5695557450017,None,799.5695557450017,None,799.5695557450017,None,c,0,3.4240127820012276,801.119637926,None,801.119637926,None,801.119637926,None,804.6042875169987,None,804.6042875169987,None,804.6042875169987,None,804.6042875169987,None,,,,,,,,,,,,,,,,,,,,,,,,,,,,,,,,,,,,,,,,,,,,001,70,2020_Feb_04_1513,spring_faces,3.1.5,59.9692363808799,
condition files/Stage1_2.xlsx,,B1,T1,c,"['c', 'm']","['Clue', 'Monopoly']","[-0.15, 0.5]","[0.15, 0.5]",1,1,,,,,,,,,0,7,7,7,0,2,2,0,,,,,,,,,,,,,,,,,,,,,,,,,,,,,,,,,,,,,,,,,,,,,,,,,,,,,,,806.5697135189985,None,806.5697135189985,None,806.5697135189985,None,m,0,6.006675297998299,808.1049916010015,None,808.1049916010015,None,808.1049916010015,None,814.1717912560016,None,814.1717912560016,None,814.1717912560016,None,814.1717912560016,None,,,,,,,,,,,,,,,,,,,,,,,,,,,,,,,,,,,,,,,,,,,,001,70,2020_Feb_04_1513,spring_faces,3.1.5,59.9692363808799,
condition files/Stage1_2.xlsx,,T4,B4,m,"['c', 'm']","['Clue', 'Monopoly']","[-0.15, 0.5]","[0.15, 0.5]",1,1,,,,,,,,,0,7,7,7,0,3,3,7,,,,,,,,,,,,,,,,,,,,,,,,,,,,,,,,,,,,,,,,,,,,,,,,,,,,,,,816.1365098040005,None,816.1365098040005,None,816.1365098040005,None,c,0,8.265622279999661,817.6699750350017,None,817.6699750350017,None,817.6699750350017,None,825.9887362629997,None,825.9887362629997,None,825.9887362629997,None,825.9887362629997,None,,,,,,,,,,,,,,,,,,,,,,,,,,,,,,,,,,,,,,,,,,,,001,70,2020_Feb_04_1513,spring_faces,3.1.5,59.9692363808799,
condition files/Stage1_2.xlsx,,T1,B2,m,"['c', 'm']","['Clue', 'Monopoly']","[-0.15, 0.5]","[0.15, 0.5]",1,1,,,,,,,,,0,7,7,7,0,4,4,2,,,,,,,,,,,,,,,,,,,,,,,,,,,,,,,,,,,,,,,,,,,,,,,,,,,,,,,827.9528237459999,None,827.9528237459999,None,827.9528237459999,None,c,0,1.5680501589995401,829.4875502739997,None,829.4875502739997,None,829.4875502739997,None,831.1201351929994,None,831.1201351929994,None,831.1201351929994,None,831.1201351929994,None,,,,,,,,,,,,,,,,,,,,,,,,,,,,,,,,,,,,,,,,,,,,001,70,2020_Feb_04_1513,spring_faces,3.1.5,59.9692363808799,
condition files/Stage1_2.xlsx,,B4,T3,c,"['c', 'm']","['Clue', 'Monopoly']","[-0.15, 0.5]","[0.15, 0.5]",1,1,,,,,,,,,0,7,7,7,0,5,5,5,,,,,,,,,,,,,,,,,,,,,,,,,,,,,,,,,,,,,,,,,,,,,,,,,,,,,,,833.0860514980013,None,833.0860514980013,None,833.0860514980013,None,c,1,1.65031089400145,834.6211962320012,None,834.6211962320012,None,834.6211962320012,None,836.3368427940004,None,836.3368427940004,None,836.3368427940004,None,836.3368427940004,None,,,,,,,,,,,,,,,,,,,,,,,,,,,,,,,,,,,,,,,,,,,,001,70,2020_Feb_04_1513,spring_faces,3.1.5,59.9692363808799,
condition files/Stage1_2.xlsx,,T3,B3,c,"['c', 'm']","['Clue', 'Monopoly']","[-0.15, 0.5]","[0.15, 0.5]",1,1,,,,,,,,,0,7,7,7,0,6,6,4,,,,,,,,,,,,,,,,,,,,,,,,,,,,,,,,,,,,,,,,,,,,,,,,,,,,,,,838.3029588360005,None,838.3029588360005,None,838.3029588360005,None,m,0,2.722102530999109,839.8534933320007,None,839.8534933320007,None,839.8534933320007,None,842.6366959170009,None,842.6366959170009,None,842.6366959170009,None,842.6366959170009,None,,,,,,,,,,,,,,,,,,,,,,,,,,,,,,,,,,,,,,,,,,,,001,70,2020_Feb_04_1513,spring_faces,3.1.5,59.9692363808799,
condition files/Stage1_2.xlsx,,B3,T4,m,"['c', 'm']","['Clue', 'Monopoly']","[-0.15, 0.5]","[0.15, 0.5]",1,1,,,,,,,,,0,7,7,7,0,7,7,6,,,,,,,,,,,,,,,,,,,,,,,,,,,,,,,,,,,,,,,,,,,,,,,,,,,,,,,844.6025087570015,None,844.6025087570015,None,844.6025087570015,None,m,1,2.1667596150000463,846.1367967260012,None,846.1367967260012,None,846.1367967260012,None,848.3708666700004,None,848.3708666700004,None,848.3708666700004,None,848.3708666700004,None,,,,,,,,,,,,,,,,,,,,,,,,,,,,,,,,,,,,,,,,,,,,001,70,2020_Feb_04_1513,spring_faces,3.1.5,59.9692363808799,
condition files/Stage1_1.xlsx,,B4,T4,m,"['c', 'm']","['Clue', 'Monopoly']","[-0.15, 0.5]","[0.15, 0.5]",1,1,,,,,,,,,0,8,8,8,0,0,0,7,,,,,,,,,,,,,,,,,,,,,,,,,,,,,,,,,,,,,,,,,,,,,,,,,,,,,,,850.3534012060009,None,850.3534012060009,None,850.3534012060009,None,m,1,7.054795340001874,851.8888597320001,None,851.8888597320001,None,851.8888597320001,None,859.0028131280014,None,859.0028131280014,None,859.0028131280014,None,859.0028131280014,None,,,,,,,,,,,,,,,,,,,,,,,,,,,,,,,,,,,,,,,,,,,,001,70,2020_Feb_04_1513,spring_faces,3.1.5,59.9692363808799,
condition files/Stage1_1.xlsx,,T4,B3,m,"['c', 'm']","['Clue', 'Monopoly']","[-0.15, 0.5]","[0.15, 0.5]",1,1,,,,,,,,,0,8,8,8,0,1,1,6,,,,,,,,,,,,,,,,,,,,,,,,,,,,,,,,,,,,,,,,,,,,,,,,,,,,,,,860.9697436489987,None,860.9697436489987,None,860.9697436489987,None,c,0,4.742712903000211,862.5048949000011,None,862.5048949000011,None,862.5048949000011,None,867.3031032850013,None,867.3031032850013,None,867.3031032850013,None,867.3031032850013,None,,,,,,,,,,,,,,,,,,,,,,,,,,,,,,,,,,,,,,,,,,,,001,70,2020_Feb_04_1513,spring_faces,3.1.5,59.9692363808799,
condition files/Stage1_1.xlsx,,B2,T1,m,"['c', 'm']","['Clue', 'Monopoly']","[-0.15, 0.5]","[0.15, 0.5]",1,1,,,,,,,,,0,8,8,8,0,2,2,2,,,,,,,,,,,,,,,,,,,,,,,,,,,,,,,,,,,,,,,,,,,,,,,,,,,,,,,869.2696586329985,None,869.2696586329985,None,869.2696586329985,None,c,0,2.444514449001872,870.8030568350005,None,870.8030568350005,None,870.8030568350005,None,873.3029128880007,None,873.3029128880007,None,873.3029128880007,None,873.3029128880007,None,,,,,,,,,,,,,,,,,,,,,,,,,,,,,,,,,,,,,,,,,,,,001,70,2020_Feb_04_1513,spring_faces,3.1.5,59.9692363808799,
condition files/Stage1_1.xlsx,,T2,B2,m,"['c', 'm']","['Clue', 'Monopoly']","[-0.15, 0.5]","[0.15, 0.5]",1,1,,,,,,,,,0,8,8,8,0,3,3,3,,,,,,,,,,,,,,,,,,,,,,,,,,,,,,,,,,,,,,,,,,,,,,,,,,,,,,,875.2692258940006,None,875.2692258940006,None,875.2692258940006,None,m,1,2.44307672099967,876.8045138880007,None,876.8045138880007,None,876.8045138880007,None,879.3031346800017,None,879.3031346800017,None,879.3031346800017,None,879.3031346800017,None,,,,,,,,,,,,,,,,,,,,,,,,,,,,,,,,,,,,,,,,,,,,001,70,2020_Feb_04_1513,spring_faces,3.1.5,59.9692363808799,
condition files/Stage1_1.xlsx,,T3,B4,c,"['c', 'm']","['Clue', 'Monopoly']","[-0.15, 0.5]","[0.15, 0.5]",1,1,,,,,,,,,0,8,8,8,0,4,4,5,,,,,,,,,,,,,,,,,,,,,,,,,,,,,,,,,,,,,,,,,,,,,,,,,,,,,,,881.269221352999,None,881.269221352999,None,881.269221352999,None,c,1,6.2682528359982825,882.8033466310007,None,882.8033466310007,None,882.8033466310007,None,889.1363305349987,None,889.1363305349987,None,889.1363305349987,None,889.1363305349987,None,,,,,,,,,,,,,,,,,,,,,,,,,,,,,,,,,,,,,,,,,,,,001,70,2020_Feb_04_1513,spring_faces,3.1.5,59.9692363808799,
condition files/Stage1_1.xlsx,,B3,T3,c,"['c', 'm']","['Clue', 'Monopoly']","[-0.15, 0.5]","[0.15, 0.5]",1,1,,,,,,,,,0,8,8,8,0,5,5,4,,,,,,,,,,,,,,,,,,,,,,,,,,,,,,,,,,,,,,,,,,,,,,,,,,,,,,,891.1027874920001,None,891.1027874920001,None,891.1027874920001,None,m,0,2.2266209199988225,892.6370476589982,None,892.6370476589982,None,892.6370476589982,None,894.9195802270006,None,894.9195802270006,None,894.9195802270006,None,894.9195802270006,None,,,,,,,,,,,,,,,,,,,,,,,,,,,,,,,,,,,,,,,,,,,,001,70,2020_Feb_04_1513,spring_faces,3.1.5,59.9692363808799,
condition files/Stage1_1.xlsx,,T1,B1,c,"['c', 'm']","['Clue', 'Monopoly']","[-0.15, 0.5]","[0.15, 0.5]",1,1,,,,,,,,,0,8,8,8,0,6,6,0,,,,,,,,,,,,,,,,,,,,,,,,,,,,,,,,,,,,,,,,,,,,,,,,,,,,,,,896.8867084390004,None,896.8867084390004,None,896.8867084390004,None,m,0,4.82687494199854,898.4206868270012,None,898.4206868270012,None,898.4206868270012,None,903.3031146620015,None,903.3031146620015,None,903.3031146620015,None,903.3031146620015,None,,,,,,,,,,,,,,,,,,,,,,,,,,,,,,,,,,,,,,,,,,,,001,70,2020_Feb_04_1513,spring_faces,3.1.5,59.9692363808799,
condition files/Stage1_1.xlsx,,B1,T2,c,"['c', 'm']","['Clue', 'Monopoly']","[-0.15, 0.5]","[0.15, 0.5]",1,1,,,,,,,,,0,8,8,8,0,7,7,1,,,,,,,,,,,,,,,,,,,,,,,,,,,,,,,,,,,,,,,,,,,,,,,,,,,,,,,905.2700498289996,None,905.2700498289996,None,905.2700498289996,None,c,1,3.1161781110022275,906.8034200629991,None,906.8034200629991,None,906.8034200629991,None,909.9699409009991,None,909.9699409009991,None,909.9699409009991,None,909.9699409009991,None,,,,,,,,,,,,,,,,,,,,,,,,,,,,,,,,,,,,,,,,,,,,001,70,2020_Feb_04_1513,spring_faces,3.1.5,59.9692363808799,
condition files/Stage1_2.xlsx,,T1,B2,m,"['c', 'm']","['Clue', 'Monopoly']","[-0.15, 0.5]","[0.15, 0.5]",1,1,,,,,,,,,0,9,9,9,0,0,0,2,,,,,,,,,,,,,,,,,,,,,,,,,,,,,,,,,,,,,,,,,,,,,,,,,,,,,,,911.9527725560001,None,911.9527725560001,None,911.9527725560001,None,m,1,1.934788808997837,913.488830055001,None,913.488830055001,None,913.488830055001,None,915.4871480910006,None,915.4871480910006,None,915.4871480910006,None,915.4871480910006,None,,,,,,,,,,,,,,,,,,,,,,,,,,,,,,,,,,,,,,,,,,,,001,70,2020_Feb_04_1513,spring_faces,3.1.5,59.9692363808799,
condition files/Stage1_2.xlsx,,B4,T3,c,"['c', 'm']","['Clue', 'Monopoly']","[-0.15, 0.5]","[0.15, 0.5]",1,1,,,,,,,,,0,9,9,9,0,1,1,5,,,,,,,,,,,,,,,,,,,,,,,,,,,,,,,,,,,,,,,,,,,,,,,,,,,,,,,917.4530883810003,None,917.4530883810003,None,917.4530883810003,None,c,1,3.843876087001263,918.9877123590013,None,918.9877123590013,None,918.9877123590013,None,922.8874719380001,None,922.8874719380001,None,922.8874719380001,None,922.8874719380001,None,,,,,,,,,,,,,,,,,,,,,,,,,,,,,,,,,,,,,,,,,,,,001,70,2020_Feb_04_1513,spring_faces,3.1.5,59.9692363808799,
condition files/Stage1_2.xlsx,,T4,B4,m,"['c', 'm']","['Clue', 'Monopoly']","[-0.15, 0.5]","[0.15, 0.5]",1,1,,,,,,,,,0,9,9,9,0,2,2,7,,,,,,,,,,,,,,,,,,,,,,,,,,,,,,,,,,,,,,,,,,,,,,,,,,,,,,,924.8528096990012,None,924.8528096990012,None,924.8528096990012,None,m,1,4.173065376999148,926.3865887989996,None,926.3865887989996,None,926.3865887989996,None,930.6223930410015,None,930.6223930410015,None,930.6223930410015,None,930.6223930410015,None,,,,,,,,,,,,,,,,,,,,,,,,,,,,,,,,,,,,,,,,,,,,001,70,2020_Feb_04_1513,spring_faces,3.1.5,59.9692363808799,
condition files/Stage1_2.xlsx,,B2,T2,m,"['c', 'm']","['Clue', 'Monopoly']","[-0.15, 0.5]","[0.15, 0.5]",1,1,,,,,,,,,0,9,9,9,0,3,3,3,,,,,,,,,,,,,,,,,,,,,,,,,,,,,,,,,,,,,,,,,,,,,,,,,,,,,,,932.586463317999,None,932.586463317999,None,932.586463317999,None,c,0,5.494802502998937,934.1367715870001,None,934.1367715870001,None,934.1367715870001,None,939.6870525390004,None,939.6870525390004,None,939.6870525390004,None,939.6870525390004,None,,,,,,,,,,,,,,,,,,,,,,,,,,,,,,,,,,,,,,,,,,,,001,70,2020_Feb_04_1513,spring_faces,3.1.5,59.9692363808799,
condition files/Stage1_2.xlsx,,T2,B1,c,"['c', 'm']","['Clue', 'Monopoly']","[-0.15, 0.5]","[0.15, 0.5]",1,1,,,,,,,,,0,9,9,9,0,4,4,1,,,,,,,,,,,,,,,,,,,,,,,,,,,,,,,,,,,,,,,,,,,,,,,,,,,,,,,941.6524537799996,None,941.6524537799996,None,941.6524537799996,None,m,0,1.8692179760000727,943.1863977549983,None,943.1863977549983,None,943.1863977549983,None,945.1369998010014,None,945.1369998010014,None,945.1369998010014,None,945.1369998010014,None,,,,,,,,,,,,,,,,,,,,,,,,,,,,,,,,,,,,,,,,,,,,001,70,2020_Feb_04_1513,spring_faces,3.1.5,59.9692363808799,
condition files/Stage1_2.xlsx,,B3,T4,m,"['c', 'm']","['Clue', 'Monopoly']","[-0.15, 0.5]","[0.15, 0.5]",1,1,,,,,,,,,0,9,9,9,0,5,5,6,,,,,,,,,,,,,,,,,,,,,,,,,,,,,,,,,,,,,,,,,,,,,,,,,,,,,,,947.0864377170001,None,947.0864377170001,None,947.0864377170001,None,c,0,2.6898509910024586,948.6218213739994,None,948.6218213739994,None,948.6218213739994,None,951.3699879009982,None,951.3699879009982,None,951.3699879009982,None,951.3699879009982,None,,,,,,,,,,,,,,,,,,,,,,,,,,,,,,,,,,,,,,,,,,,,001,70,2020_Feb_04_1513,spring_faces,3.1.5,59.9692363808799,
condition files/Stage1_2.xlsx,,B1,T1,c,"['c', 'm']","['Clue', 'Monopoly']","[-0.15, 0.5]","[0.15, 0.5]",1,1,,,,,,,,,0,9,9,9,0,6,6,0,,,,,,,,,,,,,,,,,,,,,,,,,,,,,,,,,,,,,,,,,,,,,,,,,,,,,,,953.3361772220014,None,953.3361772220014,None,953.3361772220014,None,m,0,2.4880998090011417,954.8715202380008,None,954.8715202380008,None,954.8715202380008,None,957.420405623001,None,957.420405623001,None,957.420405623001,None,957.420405623001,None,,,,,,,,,,,,,,,,,,,,,,,,,,,,,,,,,,,,,,,,,,,,001,70,2020_Feb_04_1513,spring_faces,3.1.5,59.9692363808799,
condition files/Stage1_2.xlsx,,T3,B3,c,"['c', 'm']","['Clue', 'Monopoly']","[-0.15, 0.5]","[0.15, 0.5]",1,1,,,,,,,,,0,9,9,9,0,7,7,4,,,,,,,,,,,,,,,,,,,,,,,,,,,,,,,,,,,,,,,,,,,,,,,,,,,,,,,959.3864472220012,None,959.3864472220012,None,959.3864472220012,None,c,1,1.7201532010003575,960.9194552359986,None,960.9194552359986,None,960.9194552359986,None,962.7028302590006,None,962.7028302590006,None,962.7028302590006,None,962.7028302590006,None,,,,,,,,,,,,,,,,,,,,,,,,,,,,,,,,,,,,,,,,,,,,001,70,2020_Feb_04_1513,spring_faces,3.1.5,59.9692363808799,
condition files/Stage1_1.xlsx,,B2,T1,m,"['c', 'm']","['Clue', 'Monopoly']","[-0.15, 0.5]","[0.15, 0.5]",1,1,,,,,,,,,0,10,10,10,0,0,0,2,,,,,,,,,,,,,,,,,,,,,,,,,,,,,,,,,,,,,,,,,,,,,,,,,,,,,,,964.6867546190006,None,964.6867546190006,None,964.6867546190006,None,m,1,2.3862678869991214,966.2212838509986,None,966.2212838509986,None,966.2212838509986,None,968.6867253839991,None,968.6867253839991,None,968.6867253839991,None,968.6867253839991,None,,,,,,,,,,,,,,,,,,,,,,,,,,,,,,,,,,,,,,,,,,,,001,70,2020_Feb_04_1513,spring_faces,3.1.5,59.9692363808799,
condition files/Stage1_1.xlsx,,T4,B3,m,"['c', 'm']","['Clue', 'Monopoly']","[-0.15, 0.5]","[0.15, 0.5]",1,1,,,,,,,,,0,10,10,10,0,1,1,6,,,,,,,,,,,,,,,,,,,,,,,,,,,,,,,,,,,,,,,,,,,,,,,,,,,,,,,970.6366146770015,None,970.6366146770015,None,970.6366146770015,None,c,0,2.9021011000004364,972.169469258999,None,972.169469258999,None,972.169469258999,None,975.1364253770007,None,975.1364253770007,None,975.1364253770007,None,975.1364253770007,None,,,,,,,,,,,,,,,,,,,,,,,,,,,,,,,,,,,,,,,,,,,,001,70,2020_Feb_04_1513,spring_faces,3.1.5,59.9692363808799,
condition files/Stage1_1.xlsx,,B1,T2,c,"['c', 'm']","['Clue', 'Monopoly']","[-0.15, 0.5]","[0.15, 0.5]",1,1,,,,,,,,,0,10,10,10,0,2,2,1,,,,,,,,,,,,,,,,,,,,,,,,,,,,,,,,,,,,,,,,,,,,,,,,,,,,,,,977.1027781580015,None,977.1027781580015,None,977.1027781580015,None,m,0,1.9394067300017923,978.6362114129988,None,978.6362114129988,None,978.6362114129988,None,980.6372271010005,None,980.6372271010005,None,980.6372271010005,None,980.6372271010005,None,,,,,,,,,,,,,,,,,,,,,,,,,,,,,,,,,,,,,,,,,,,,001,70,2020_Feb_04_1513,spring_faces,3.1.5,59.9692363808799,
condition files/Stage1_1.xlsx,,T1,B1,c,"['c', 'm']","['Clue', 'Monopoly']","[-0.15, 0.5]","[0.15, 0.5]",1,1,,,,,,,,,0,10,10,10,0,3,3,0,,,,,,,,,,,,,,,,,,,,,,,,,,,,,,,,,,,,,,,,,,,,,,,,,,,,,,,982.603101345001,None,982.603101345001,None,982.603101345001,None,c,1,5.734142528999655,984.1533924670002,None,984.1533924670002,None,984.1533924670002,None,989.9528071120003,None,989.9528071120003,None,989.9528071120003,None,989.9528071120003,None,,,,,,,,,,,,,,,,,,,,,,,,,,,,,,,,,,,,,,,,,,,,001,70,2020_Feb_04_1513,spring_faces,3.1.5,59.9692363808799,
condition files/Stage1_1.xlsx,,B4,T4,m,"['c', 'm']","['Clue', 'Monopoly']","[-0.15, 0.5]","[0.15, 0.5]",1,1,,,,,,,,,0,10,10,10,0,4,4,7,,,,,,,,,,,,,,,,,,,,,,,,,,,,,,,,,,,,,,,,,,,,,,,,,,,,,,,991.9193920129983,None,991.9193920129983,None,991.9193920129983,None,c,0,2.4175140389997978,993.4700444570008,None,993.4700444570008,None,993.4700444570008,None,995.9700332020002,None,995.9700332020002,None,995.9700332020002,None,995.9700332020002,None,,,,,,,,,,,,,,,,,,,,,,,,,,,,,,,,,,,,,,,,,,,,001,70,2020_Feb_04_1513,spring_faces,3.1.5,59.9692363808799,
condition files/Stage1_1.xlsx,,T2,B2,m,"['c', 'm']","['Clue', 'Monopoly']","[-0.15, 0.5]","[0.15, 0.5]",1,1,,,,,,,,,0,10,10,10,0,5,5,3,,,,,,,,,,,,,,,,,,,,,,,,,,,,,,,,,,,,,,,,,,,,,,,,,,,,,,,997.9201191040011,None,997.9201191040011,None,997.9201191040011,None,m,1,2.593704996001179,999.4699559779983,None,999.4699559779983,None,999.4699559779983,None,1002.1198747339986,None,1002.1198747339986,None,1002.1198747339986,None,1002.1198747339986,None,,,,,,,,,,,,,,,,,,,,,,,,,,,,,,,,,,,,,,,,,,,,001,70,2020_Feb_04_1513,spring_faces,3.1.5,59.9692363808799,
condition files/Stage1_1.xlsx,,T3,B4,c,"['c', 'm']","['Clue', 'Monopoly']","[-0.15, 0.5]","[0.15, 0.5]",1,1,,,,,,,,,0,10,10,10,0,6,6,5,,,,,,,,,,,,,,,,,,,,,,,,,,,,,,,,,,,,,,,,,,,,,,,,,,,,,,,1004.0858108899993,None,1004.0858108899993,None,1004.0858108899993,None,c,1,1.4668421269998362,1005.6367007240005,None,1005.6367007240005,None,1005.6367007240005,None,1007.1691454050015,None,1007.1691454050015,None,1007.1691454050015,None,1007.1691454050015,None,,,,,,,,,,,,,,,,,,,,,,,,,,,,,,,,,,,,,,,,,,,,001,70,2020_Feb_04_1513,spring_faces,3.1.5,59.9692363808799,
condition files/Stage1_1.xlsx,,B3,T3,c,"['c', 'm']","['Clue', 'Monopoly']","[-0.15, 0.5]","[0.15, 0.5]",1,1,,,,,,,,,0,10,10,10,0,7,7,4,,,,,,,,,,,,,,,,,,,,,,,,,,,,,,,,,,,,,,,,,,,,,,,,,,,,,,,1009.136440929,None,1009.136440929,None,1009.136440929,None,c,1,1.5700555059993349,1010.6695542509988,None,1010.6695542509988,None,1010.6695542509988,None,1012.303302149001,None,1012.303302149001,None,1012.303302149001,None,1012.303302149001,None,,,,,,,,,,,,,,,,,,,,,,,,,,,,,,,,,,,,,,,,,,,,001,70,2020_Feb_04_1513,spring_faces,3.1.5,59.9692363808799,
condition files/Stage1_2.xlsx,,T4,B4,m,"['c', 'm']","['Clue', 'Monopoly']","[-0.15, 0.5]","[0.15, 0.5]",1,1,,,,,,,,,0,11,11,11,0,0,0,7,,,,,,,,,,,,,,,,,,,,,,,,,,,,,,,,,,,,,,,,,,,,,,,,,,,,,,,1014.2860727330008,None,1014.2860727330008,None,1014.2860727330008,None,m,1,2.3556706400013354,1015.8199425150015,None,1015.8199425150015,None,1015.8199425150015,None,1018.2374694790014,None,1018.2374694790014,None,1018.2374694790014,None,1018.2374694790014,None,,,,,,,,,,,,,,,,,,,,,,,,,,,,,,,,,,,,,,,,,,,,001,70,2020_Feb_04_1513,spring_faces,3.1.5,59.9692363808799,
condition files/Stage1_2.xlsx,,B3,T4,m,"['c', 'm']","['Clue', 'Monopoly']","[-0.15, 0.5]","[0.15, 0.5]",1,1,,,,,,,,,0,11,11,11,0,1,1,6,,,,,,,,,,,,,,,,,,,,,,,,,,,,,,,,,,,,,,,,,,,,,,,,,,,,,,,1020.2030722800009,None,1020.2030722800009,None,1020.2030722800009,None,m,1,3.2714707419982005,1021.7361417629982,None,1021.7361417629982,None,1021.7361417629982,None,1025.0702277550008,None,1025.0702277550008,None,1025.0702277550008,None,1025.0702277550008,None,,,,,,,,,,,,,,,,,,,,,,,,,,,,,,,,,,,,,,,,,,,,001,70,2020_Feb_04_1513,spring_faces,3.1.5,59.9692363808799,
condition files/Stage1_2.xlsx,,T1,B2,m,"['c', 'm']","['Clue', 'Monopoly']","[-0.15, 0.5]","[0.15, 0.5]",1,1,,,,,,,,,0,11,11,11,0,2,2,2,,,,,,,,,,,,,,,,,,,,,,,,,,,,,,,,,,,,,,,,,,,,,,,,,,,,,,,1027.035832747999,None,1027.035832747999,None,1027.035832747999,None,m,1,2.6126242819991603,1028.5869665770006,None,1028.5869665770006,None,1028.5869665770006,None,1031.2526075669994,None,1031.2526075669994,None,1031.2526075669994,None,1031.2526075669994,None,,,,,,,,,,,,,,,,,,,,,,,,,,,,,,,,,,,,,,,,,,,,001,70,2020_Feb_04_1513,spring_faces,3.1.5,59.9692363808799,
condition files/Stage1_2.xlsx,,T3,B3,c,"['c', 'm']","['Clue', 'Monopoly']","[-0.15, 0.5]","[0.15, 0.5]",1,1,,,,,,,,,0,11,11,11,0,3,3,4,,,,,,,,,,,,,,,,,,,,,,,,,,,,,,,,,,,,,,,,,,,,,,,,,,,,,,,1033.2201132970004,None,1033.2201132970004,None,1033.2201132970004,None,c,1,1.4358929330010142,1034.7556575109993,None,1034.7556575109993,None,1034.7556575109993,None,1036.2528323949991,None,1036.2528323949991,None,1036.2528323949991,None,1036.2528323949991,None,,,,,,,,,,,,,,,,,,,,,,,,,,,,,,,,,,,,,,,,,,,,001,70,2020_Feb_04_1513,spring_faces,3.1.5,59.9692363808799,
condition files/Stage1_2.xlsx,,B1,T1,c,"['c', 'm']","['Clue', 'Monopoly']","[-0.15, 0.5]","[0.15, 0.5]",1,1,,,,,,,,,0,11,11,11,0,4,4,0,,,,,,,,,,,,,,,,,,,,,,,,,,,,,,,,,,,,,,,,,,,,,,,,,,,,,,,1038.2194295090012,None,1038.2194295090012,None,1038.2194295090012,None,m,0,1.0782667890016455,1039.7532898239988,None,1039.7532898239988,None,1039.7532898239988,None,1040.8869376119983,None,1040.8869376119983,None,1040.8869376119983,None,1040.8869376119983,None,,,,,,,,,,,,,,,,,,,,,,,,,,,,,,,,,,,,,,,,,,,,001,70,2020_Feb_04_1513,spring_faces,3.1.5,59.9692363808799,
condition files/Stage1_2.xlsx,,T2,B1,c,"['c', 'm']","['Clue', 'Monopoly']","[-0.15, 0.5]","[0.15, 0.5]",1,1,,,,,,,,,0,11,11,11,0,5,5,1,,,,,,,,,,,,,,,,,,,,,,,,,,,,,,,,,,,,,,,,,,,,,,,,,,,,,,,1042.8534204099997,None,1042.8534204099997,None,1042.8534204099997,None,c,1,1.5488295599971025,1044.3867815500016,None,1044.3867815500016,None,1044.3867815500016,None,1045.9859193209995,None,1045.9859193209995,None,1045.9859193209995,None,1045.9859193209995,None,,,,,,,,,,,,,,,,,,,,,,,,,,,,,,,,,,,,,,,,,,,,001,70,2020_Feb_04_1513,spring_faces,3.1.5,59.9692363808799,
condition files/Stage1_2.xlsx,,B2,T2,m,"['c', 'm']","['Clue', 'Monopoly']","[-0.15, 0.5]","[0.15, 0.5]",1,1,,,,,,,,,0,11,11,11,0,6,6,3,,,,,,,,,,,,,,,,,,,,,,,,,,,,,,,,,,,,,,,,,,,,,,,,,,,,,,,1047.9531080919987,None,1047.9531080919987,None,1047.9531080919987,None,m,1,2.4330605450013536,1049.4865489539989,None,1049.4865489539989,None,1049.4865489539989,None,1051.986715242001,None,1051.986715242001,None,1051.986715242001,None,1051.986715242001,None,,,,,,,,,,,,,,,,,,,,,,,,,,,,,,,,,,,,,,,,,,,,001,70,2020_Feb_04_1513,spring_faces,3.1.5,59.9692363808799,
condition files/Stage1_2.xlsx,,B4,T3,c,"['c', 'm']","['Clue', 'Monopoly']","[-0.15, 0.5]","[0.15, 0.5]",1,1,,,,,,,,,0,11,11,11,0,7,7,5,,,,,,,,,,,,,,,,,,,,,,,,,,,,,,,,,,,,,,,,,,,,,,,,,,,,,,,1053.9362205299985,None,1053.9362205299985,None,1053.9362205299985,None,c,1,1.9539539860015793,1055.4696515680007,None,1055.4696515680007,None,1055.4696515680007,None,1057.4860627650014,None,1057.4860627650014,None,1057.4860627650014,None,1057.4860627650014,None,,,,,,,,,,,,,,,,,,,,,,,,,,,,,,,,,,,,,,,,,,,,001,70,2020_Feb_04_1513,spring_faces,3.1.5,59.9692363808799,
,,,,,,,,,,,,,,,,,,,,,,,,,,,,,,,,,,,,,,,,,,,,,,,,,,,,,,,,,,,,,,,,,,,,,,,,,,,,,,,,,,,,,,,,,,,,,,,,,,,,,,,,,,,,,,,,1059.4702230629991,None,space,7.8498221970003215,1064.4697823620008,None,,,,,,,,,,,,,,,,,,,,,,,,,,,,,,001,70,2020_Feb_04_1513,spring_faces,3.1.5,59.9692363808799,
condition files/Stage2_1.xlsx,,T3,B3,s,"['s', 'r']","['Stratego', 'Risk']","[-0.15, 0.5]","[0.15, 0.5]",1,1,,,,,,,,,,,,,,,,,0,0,0,0,0,0,0,4,,,,,,,,,,,,,,,,,,,,,,,,,,,,,,,,,,,,,,,,,,,,,,,1072.3701159039992,None,1072.3701159039992,None,1072.3701159039992,None,s,1,2.224966960002348,1073.886713087999,None,1073.886713087999,None,1073.886713087999,None,1076.1693360470017,None,1076.1693360470017,None,1076.1693360470017,None,1076.1693360470017,None,,,,,,,,,,,,,,,1064.4697823620008,None,,,,,,,,,,,,,,,,,,,,,,,,,,,,001,70,2020_Feb_04_1513,spring_faces,3.1.5,59.9692363808799,
condition files/Stage2_1.xlsx,,B4,T4,r,"['s', 'r']","['Stratego', 'Risk']","[-0.15, 0.5]","[0.15, 0.5]",1,1,,,,,,,,,,,,,,,,,0,0,0,0,0,1,1,5,,,,,,,,,,,,,,,,,,,,,,,,,,,,,,,,,,,,,,,,,,,,,,,1078.1362031710014,None,1078.1362031710014,None,1078.1362031710014,None,r,1,3.145167083999695,1079.6703606509982,None,1079.6703606509982,None,1079.6703606509982,None,1082.871879246999,None,1082.871879246999,None,1082.871879246999,None,1082.871879246999,None,,,,,,,,,,,,,,,,,,,,,,,,,,,,,,,,,,,,,,,,,,,,001,70,2020_Feb_04_1513,spring_faces,3.1.5,59.9692363808799,
condition files/Stage2_1.xlsx,,T1,B1,s,"['s', 'r']","['Stratego', 'Risk']","[-0.15, 0.5]","[0.15, 0.5]",1,1,,,,,,,,,,,,,,,,,0,0,0,0,0,2,2,2,,,,,,,,,,,,,,,,,,,,,,,,,,,,,,,,,,,,,,,,,,,,,,,1084.8358630129987,None,1084.8358630129987,None,1084.8358630129987,None,r,0,1.9016996589998598,1086.3699096759992,None,1086.3699096759992,None,1086.3699096759992,None,1088.3532067849992,None,1088.3532067849992,None,1088.3532067849992,None,1088.3532067849992,None,,,,,,,,,,,,,,,,,,,,,,,,,,,,,,,,,,,,,,,,,,,,001,70,2020_Feb_04_1513,spring_faces,3.1.5,59.9692363808799,
condition files/Stage2_1.xlsx,,T5,B5,s,"['s', 'r']","['Stratego', 'Risk']","[-0.15, 0.5]","[0.15, 0.5]",1,1,,,,,,,,,,,,,,,,,0,0,0,0,0,3,3,0,,,,,,,,,,,,,,,,,,,,,,,,,,,,,,,,,,,,,,,,,,,,,,,1090.302784394,None,1090.302784394,None,1090.302784394,None,r,0,4.291164096997818,1091.8365013270013,None,1091.8365013270013,None,1091.8365013270013,None,1096.1868969780007,None,1096.1868969780007,None,1096.1868969780007,None,1096.1868969780007,None,,,,,,,,,,,,,,,,,,,,,,,,,,,,,,,,,,,,,,,,,,,,001,70,2020_Feb_04_1513,spring_faces,3.1.5,59.9692363808799,
condition files/Stage2_1.xlsx,,B6,T6,r,"['s', 'r']","['Stratego', 'Risk']","[-0.15, 0.5]","[0.15, 0.5]",1,1,,,,,,,,,,,,,,,,,0,0,0,0,0,4,4,1,,,,,,,,,,,,,,,,,,,,,,,,,,,,,,,,,,,,,,,,,,,,,,,1098.1528236250015,None,1098.1528236250015,None,1098.1528236250015,None,r,1,1.8970773900000495,1099.6865105729994,None,1099.6865105729994,None,1099.6865105729994,None,1101.6359258010016,None,1101.6359258010016,None,1101.6359258010016,None,1101.6359258010016,None,,,,,,,,,,,,,,,,,,,,,,,,,,,,,,,,,,,,,,,,,,,,001,70,2020_Feb_04_1513,spring_faces,3.1.5,59.9692363808799,
condition files/Stage2_1.xlsx,,B2,T2,r,"['s', 'r']","['Stratego', 'Risk']","[-0.15, 0.5]","[0.15, 0.5]",1,1,,,,,,,,,,,,,,,,,0,0,0,0,0,5,5,3,,,,,,,,,,,,,,,,,,,,,,,,,,,,,,,,,,,,,,,,,,,,,,,1103.6029046350013,None,1103.6029046350013,None,1103.6029046350013,None,s,0,1.9353121849999297,1105.1362938359998,None,1105.1362938359998,None,1105.1362938359998,None,1107.1361095840002,None,1107.1361095840002,None,1107.1361095840002,None,1107.1361095840002,None,,,,,,,,,,,,,,,,,,,,,,,,,,,,,,,,,,,,,,,,,,,,001,70,2020_Feb_04_1513,spring_faces,3.1.5,59.9692363808799,
condition files/Stage2_2.xlsx,,T2,B2,r,"['s', 'r']","['Stratego', 'Risk']","[-0.15, 0.5]","[0.15, 0.5]",1,1,,,,,,,,,,,,,,,,,0,1,1,1,0,0,0,3,,,,,,,,,,,,,,,,,,,,,,,,,,,,,,,,,,,,,,,,,,,,,,,1109.1201590950004,None,1109.1201590950004,None,1109.1201590950004,None,r,1,3.3140864910019445,1110.653528971001,None,1110.653528971001,None,1110.653528971001,None,1114.0201737610005,None,1114.0201737610005,None,1114.0201737610005,None,1114.0201737610005,None,,,,,,,,,,,,,,,,,,,,,,,,,,,,,,,,,,,,,,,,,,,,001,70,2020_Feb_04_1513,spring_faces,3.1.5,59.9692363808799,
condition files/Stage2_2.xlsx,,T4,B4,r,"['s', 'r']","['Stratego', 'Risk']","[-0.15, 0.5]","[0.15, 0.5]",1,1,,,,,,,,,,,,,,,,,0,1,1,1,0,1,1,5,,,,,,,,,,,,,,,,,,,,,,,,,,,,,,,,,,,,,,,,,,,,,,,1115.9863850609981,None,1115.9863850609981,None,1115.9863850609981,None,s,0,1.838913285999297,1117.5207583750016,None,1117.5207583750016,None,1117.5207583750016,None,1119.419252519001,None,1119.419252519001,None,1119.419252519001,None,1119.419252519001,None,,,,,,,,,,,,,,,,,,,,,,,,,,,,,,,,,,,,,,,,,,,,001,70,2020_Feb_04_1513,spring_faces,3.1.5,59.9692363808799,
condition files/Stage2_2.xlsx,,T6,B6,r,"['s', 'r']","['Stratego', 'Risk']","[-0.15, 0.5]","[0.15, 0.5]",1,1,,,,,,,,,,,,,,,,,0,1,1,1,0,2,2,1,,,,,,,,,,,,,,,,,,,,,,,,,,,,,,,,,,,,,,,,,,,,,,,1121.3864213490015,None,1121.3864213490015,None,1121.3864213490015,None,s,0,1.5755498939979589,1122.936109844999,None,1122.936109844999,None,1122.936109844999,None,1124.5701413620009,None,1124.5701413620009,None,1124.5701413620009,None,1124.5701413620009,None,,,,,,,,,,,,,,,,,,,,,,,,,,,,,,,,,,,,,,,,,,,,001,70,2020_Feb_04_1513,spring_faces,3.1.5,59.9692363808799,
condition files/Stage2_2.xlsx,,B1,T1,s,"['s', 'r']","['Stratego', 'Risk']","[-0.15, 0.5]","[0.15, 0.5]",1,1,,,,,,,,,,,,,,,,,0,1,1,1,0,3,3,2,,,,,,,,,,,,,,,,,,,,,,,,,,,,,,,,,,,,,,,,,,,,,,,1126.5366888249991,None,1126.5366888249991,None,1126.5366888249991,None,s,1,2.4901042230012536,1128.0695556749997,None,1128.0695556749997,None,1128.0695556749997,None,1130.6219258439996,None,1130.6219258439996,None,1130.6219258439996,None,1130.6219258439996,None,,,,,,,,,,,,,,,,,,,,,,,,,,,,,,,,,,,,,,,,,,,,001,70,2020_Feb_04_1513,spring_faces,3.1.5,59.9692363808799,
condition files/Stage2_2.xlsx,,B3,T3,s,"['s', 'r']","['Stratego', 'Risk']","[-0.15, 0.5]","[0.15, 0.5]",1,1,,,,,,,,,,,,,,,,,0,1,1,1,0,4,4,4,,,,,,,,,,,,,,,,,,,,,,,,,,,,,,,,,,,,,,,,,,,,,,,1132.5864084140012,None,1132.5864084140012,None,1132.5864084140012,None,s,1,3.350740138001129,1134.1208731270017,None,1134.1208731270017,None,1134.1208731270017,None,1137.536742209999,None,1137.536742209999,None,1137.536742209999,None,1137.536742209999,None,,,,,,,,,,,,,,,,,,,,,,,,,,,,,,,,,,,,,,,,,,,,001,70,2020_Feb_04_1513,spring_faces,3.1.5,59.9692363808799,
condition files/Stage2_2.xlsx,,B5,T5,s,"['s', 'r']","['Stratego', 'Risk']","[-0.15, 0.5]","[0.15, 0.5]",1,1,,,,,,,,,,,,,,,,,0,1,1,1,0,5,5,0,,,,,,,,,,,,,,,,,,,,,,,,,,,,,,,,,,,,,,,,,,,,,,,1139.5028055840012,None,1139.5028055840012,None,1139.5028055840012,None,r,0,2.306913717999123,1141.0367569439986,None,1141.0367569439986,None,1141.0367569439986,None,1143.40370445,None,1143.40370445,None,1143.40370445,None,1143.40370445,None,,,,,,,,,,,,,,,,,,,,,,,,,,,,,,,,,,,,,,,,,,,,001,70,2020_Feb_04_1513,spring_faces,3.1.5,59.9692363808799,
condition files/Stage2_1.xlsx,,T1,B1,s,"['s', 'r']","['Stratego', 'Risk']","[-0.15, 0.5]","[0.15, 0.5]",1,1,,,,,,,,,,,,,,,,,0,2,2,2,0,0,0,2,,,,,,,,,,,,,,,,,,,,,,,,,,,,,,,,,,,,,,,,,,,,,,,1145.3868262389988,None,1145.3868262389988,None,1145.3868262389988,None,r,0,1.0961563950004347,1146.9193914960015,None,1146.9193914960015,None,1146.9193914960015,None,1148.070346561999,None,1148.070346561999,None,1148.070346561999,None,1148.070346561999,None,,,,,,,,,,,,,,,,,,,,,,,,,,,,,,,,,,,,,,,,,,,,001,70,2020_Feb_04_1513,spring_faces,3.1.5,59.9692363808799,
condition files/Stage2_1.xlsx,,T3,B3,s,"['s', 'r']","['Stratego', 'Risk']","[-0.15, 0.5]","[0.15, 0.5]",1,1,,,,,,,,,,,,,,,,,0,2,2,2,0,1,1,4,,,,,,,,,,,,,,,,,,,,,,,,,,,,,,,,,,,,,,,,,,,,,,,1150.0364433489995,None,1150.0364433489995,None,1150.0364433489995,None,s,1,1.1656773190006788,1151.5699112930015,None,1151.5699112930015,None,1151.5699112930015,None,1152.7867906540014,None,1152.7867906540014,None,1152.7867906540014,None,1152.7867906540014,None,,,,,,,,,,,,,,,,,,,,,,,,,,,,,,,,,,,,,,,,,,,,001,70,2020_Feb_04_1513,spring_faces,3.1.5,59.9692363808799,
condition files/Stage2_1.xlsx,,T5,B5,s,"['s', 'r']","['Stratego', 'Risk']","[-0.15, 0.5]","[0.15, 0.5]",1,1,,,,,,,,,,,,,,,,,0,2,2,2,0,2,2,0,,,,,,,,,,,,,,,,,,,,,,,,,,,,,,,,,,,,,,,,,,,,,,,1154.7530937010015,None,1154.7530937010015,None,1154.7530937010015,None,s,1,1.1214205319993198,1156.2862024700007,None,1156.2862024700007,None,1156.2862024700007,None,1157.4700552110007,None,1157.4700552110007,None,1157.4700552110007,None,1157.4700552110007,None,,,,,,,,,,,,,,,,,,,,,,,,,,,,,,,,,,,,,,,,,,,,001,70,2020_Feb_04_1513,spring_faces,3.1.5,59.9692363808799,
condition files/Stage2_1.xlsx,,B2,T2,r,"['s', 'r']","['Stratego', 'Risk']","[-0.15, 0.5]","[0.15, 0.5]",1,1,,,,,,,,,,,,,,,,,0,2,2,2,0,3,3,3,,,,,,,,,,,,,,,,,,,,,,,,,,,,,,,,,,,,,,,,,,,,,,,1159.4366285159995,None,1159.4366285159995,None,1159.4366285159995,None,r,1,2.2130482100001245,1160.9704877110016,None,1160.9704877110016,None,1160.9704877110016,None,1163.2535531950016,None,1163.2535531950016,None,1163.2535531950016,None,1163.2535531950016,None,,,,,,,,,,,,,,,,,,,,,,,,,,,,,,,,,,,,,,,,,,,,001,70,2020_Feb_04_1513,spring_faces,3.1.5,59.9692363808799,
condition files/Stage2_1.xlsx,,B6,T6,r,"['s', 'r']","['Stratego', 'Risk']","[-0.15, 0.5]","[0.15, 0.5]",1,1,,,,,,,,,,,,,,,,,0,2,2,2,0,4,4,1,,,,,,,,,,,,,,,,,,,,,,,,,,,,,,,,,,,,,,,,,,,,,,,1165.2033412839992,None,1165.2033412839992,None,1165.2033412839992,None,s,0,0.7031378819992824,1166.7364745250015,None,1166.7364745250015,None,1166.7364745250015,None,1167.5034138289993,None,1167.5034138289993,None,1167.5034138289993,None,1167.5034138289993,None,,,,,,,,,,,,,,,,,,,,,,,,,,,,,,,,,,,,,,,,,,,,001,70,2020_Feb_04_1513,spring_faces,3.1.5,59.9692363808799,
condition files/Stage2_1.xlsx,,B4,T4,r,"['s', 'r']","['Stratego', 'Risk']","[-0.15, 0.5]","[0.15, 0.5]",1,1,,,,,,,,,,,,,,,,,0,2,2,2,0,5,5,5,,,,,,,,,,,,,,,,,,,,,,,,,,,,,,,,,,,,,,,,,,,,,,,1169.469794266999,None,1169.469794266999,None,1169.469794266999,None,s,0,1.4122097899999062,1171.0033781860002,None,1171.0033781860002,None,1171.0033781860002,None,1172.4698496579986,None,1172.4698496579986,None,1172.4698496579986,None,1172.4698496579986,None,,,,,,,,,,,,,,,,,,,,,,,,,,,,,,,,,,,,,,,,,,,,001,70,2020_Feb_04_1513,spring_faces,3.1.5,59.9692363808799,
condition files/Stage2_2.xlsx,,B1,T1,s,"['s', 'r']","['Stratego', 'Risk']","[-0.15, 0.5]","[0.15, 0.5]",1,1,,,,,,,,,,,,,,,,,0,3,3,3,0,0,0,2,,,,,,,,,,,,,,,,,,,,,,,,,,,,,,,,,,,,,,,,,,,,,,,1174.4532314639982,None,1174.4532314639982,None,1174.4532314639982,None,s,1,2.157292474999849,1175.9863761589986,None,1175.9863761589986,None,1175.9863761589986,None,1178.2201269949983,None,1178.2201269949983,None,1178.2201269949983,None,1178.2201269949983,None,,,,,,,,,,,,,,,,,,,,,,,,,,,,,,,,,,,,,,,,,,,,001,70,2020_Feb_04_1513,spring_faces,3.1.5,59.9692363808799,
condition files/Stage2_2.xlsx,,T6,B6,r,"['s', 'r']","['Stratego', 'Risk']","[-0.15, 0.5]","[0.15, 0.5]",1,1,,,,,,,,,,,,,,,,,0,3,3,3,0,1,1,1,,,,,,,,,,,,,,,,,,,,,,,,,,,,,,,,,,,,,,,,,,,,,,,1180.1697458550007,None,1180.1697458550007,None,1180.1697458550007,None,r,1,1.8470507839992933,1181.7045486919997,None,1181.7045486919997,None,1181.7045486919997,None,1183.6051145640013,None,1183.6051145640013,None,1183.6051145640013,None,1183.6051145640013,None,,,,,,,,,,,,,,,,,,,,,,,,,,,,,,,,,,,,,,,,,,,,001,70,2020_Feb_04_1513,spring_faces,3.1.5,59.9692363808799,
condition files/Stage2_2.xlsx,,B5,T5,s,"['s', 'r']","['Stratego', 'Risk']","[-0.15, 0.5]","[0.15, 0.5]",1,1,,,,,,,,,,,,,,,,,0,3,3,3,0,2,2,0,,,,,,,,,,,,,,,,,,,,,,,,,,,,,,,,,,,,,,,,,,,,,,,1185.5700900039992,None,1185.5700900039992,None,1185.5700900039992,None,r,0,1.7609227229986573,1187.1027547109989,None,1187.1027547109989,None,1187.1027547109989,None,1188.9360270940015,None,1188.9360270940015,None,1188.9360270940015,None,1188.9360270940015,None,,,,,,,,,,,,,,,,,,,,,,,,,,,,,,,,,,,,,,,,,,,,001,70,2020_Feb_04_1513,spring_faces,3.1.5,59.9692363808799,
condition files/Stage2_2.xlsx,,T2,B2,r,"['s', 'r']","['Stratego', 'Risk']","[-0.15, 0.5]","[0.15, 0.5]",1,1,,,,,,,,,,,,,,,,,0,3,3,3,0,3,3,3,,,,,,,,,,,,,,,,,,,,,,,,,,,,,,,,,,,,,,,,,,,,,,,1190.8867347820014,None,1190.8867347820014,None,1190.8867347820014,None,r,1,2.507982188002643,1192.4196948829995,None,1192.4196948829995,None,1192.4196948829995,None,1194.9891825150007,None,1194.9891825150007,None,1194.9891825150007,None,1194.9891825150007,None,,,,,,,,,,,,,,,,,,,,,,,,,,,,,,,,,,,,,,,,,,,,001,70,2020_Feb_04_1513,spring_faces,3.1.5,59.9692363808799,
condition files/Stage2_2.xlsx,,B3,T3,s,"['s', 'r']","['Stratego', 'Risk']","[-0.15, 0.5]","[0.15, 0.5]",1,1,,,,,,,,,,,,,,,,,0,3,3,3,0,4,4,4,,,,,,,,,,,,,,,,,,,,,,,,,,,,,,,,,,,,,,,,,,,,,,,1196.9531621620008,None,1196.9531621620008,None,1196.9531621620008,None,s,1,0.8250530639998033,1198.4866205840008,None,1198.4866205840008,None,1198.4866205840008,None,1199.3867761389993,None,1199.3867761389993,None,1199.3867761389993,None,1199.3867761389993,None,,,,,,,,,,,,,,,,,,,,,,,,,,,,,,,,,,,,,,,,,,,,001,70,2020_Feb_04_1513,spring_faces,3.1.5,59.9692363808799,
condition files/Stage2_2.xlsx,,T4,B4,r,"['s', 'r']","['Stratego', 'Risk']","[-0.15, 0.5]","[0.15, 0.5]",1,1,,,,,,,,,,,,,,,,,0,3,3,3,0,5,5,5,,,,,,,,,,,,,,,,,,,,,,,,,,,,,,,,,,,,,,,,,,,,,,,1201.3362720180012,None,1201.3362720180012,None,1201.3362720180012,None,s,0,2.2013599989986687,1202.870256694001,None,1202.870256694001,None,1202.870256694001,None,1205.153354725,None,1205.153354725,None,1205.153354725,None,1205.153354725,None,,,,,,,,,,,,,,,,,,,,,,,,,,,,,,,,,,,,,,,,,,,,001,70,2020_Feb_04_1513,spring_faces,3.1.5,59.9692363808799,
condition files/Stage2_1.xlsx,,T1,B1,s,"['s', 'r']","['Stratego', 'Risk']","[-0.15, 0.5]","[0.15, 0.5]",1,1,,,,,,,,,,,,,,,,,0,4,4,4,0,0,0,2,,,,,,,,,,,,,,,,,,,,,,,,,,,,,,,,,,,,,,,,,,,,,,,1207.119636309999,None,1207.119636309999,None,1207.119636309999,None,s,1,1.552883946998918,1208.6547412869986,None,1208.6547412869986,None,1208.6547412869986,None,1210.2728248919993,None,1210.2728248919993,None,1210.2728248919993,None,1210.2728248919993,None,,,,,,,,,,,,,,,,,,,,,,,,,,,,,,,,,,,,,,,,,,,,001,70,2020_Feb_04_1513,spring_faces,3.1.5,59.9692363808799,
condition files/Stage2_1.xlsx,,T5,B5,s,"['s', 'r']","['Stratego', 'Risk']","[-0.15, 0.5]","[0.15, 0.5]",1,1,,,,,,,,,,,,,,,,,0,4,4,4,0,1,1,0,,,,,,,,,,,,,,,,,,,,,,,,,,,,,,,,,,,,,,,,,,,,,,,1212.2364500529984,None,1212.2364500529984,None,1212.2364500529984,None,s,1,2.3738754080004583,1213.7697943700005,None,1213.7697943700005,None,1213.7697943700005,None,1216.2031663300004,None,1216.2031663300004,None,1216.2031663300004,None,1216.2031663300004,None,,,,,,,,,,,,,,,,,,,,,,,,,,,,,,,,,,,,,,,,,,,,001,70,2020_Feb_04_1513,spring_faces,3.1.5,59.9692363808799,
condition files/Stage2_1.xlsx,,B4,T4,r,"['s', 'r']","['Stratego', 'Risk']","[-0.15, 0.5]","[0.15, 0.5]",1,1,,,,,,,,,,,,,,,,,0,4,4,4,0,2,2,5,,,,,,,,,,,,,,,,,,,,,,,,,,,,,,,,,,,,,,,,,,,,,,,1218.1691377060015,None,1218.1691377060015,None,1218.1691377060015,None,s,0,1.3985839640008635,1219.7049676569986,None,1219.7049676569986,None,1219.7049676569986,None,1221.170570639999,None,1221.170570639999,None,1221.170570639999,None,1221.170570639999,None,,,,,,,,,,,,,,,,,,,,,,,,,,,,,,,,,,,,,,,,,,,,001,70,2020_Feb_04_1513,spring_faces,3.1.5,59.9692363808799,
