condsFile,subStage,cue1,cue2,correct,responseKeys,responseNames,cue1Position,cue2Position,cue1Opacity,cue2Opacity,stageLoop0.thisRepN,stageLoop0.thisTrialN,stageLoop0.thisN,stageLoop0.thisIndex,blockLoop0.thisRepN,blockLoop0.thisTrialN,blockLoop0.thisN,blockLoop0.thisIndex,stage1Loop.thisRepN,stage1Loop.thisTrialN,stage1Loop.thisN,stage1Loop.thisIndex,blockLoop1.thisRepN,blockLoop1.thisTrialN,blockLoop1.thisN,blockLoop1.thisIndex,stage2Loop.thisRepN,stage2Loop.thisTrialN,stage2Loop.thisN,stage2Loop.thisIndex,blockLoop2.thisRepN,blockLoop2.thisTrialN,blockLoop2.thisN,blockLoop2.thisIndex,testLoop.thisRepN,testLoop.thisTrialN,testLoop.thisN,testLoop.thisIndex,blockLoopTest.thisRepN,blockLoopTest.thisTrialN,blockLoopTest.thisN,blockLoopTest.thisIndex,cuePics,id_instr_text.started,id_instr_text.stopped,space_to_continue_2.started,space_to_continue_2.stopped,end_instructions_resp_3.keys,end_instructions_resp_3.rt,end_instructions_resp_3.started,end_instructions_resp_3.stopped,id_input_instr.started,id_input_instr.stopped,id_input_rect.started,id_input_rect.stopped,id_input_resp.keys,id_input_resp.rt,id_input_resp.started,id_input_resp.stopped,sonaID,id_input_text.started,id_input_text.stopped,final_text.started,final_text.stopped,instructions.started,instructions.stopped,end_instructions_resp.keys,end_instructions_resp.rt,end_instructions_resp.started,end_instructions_resp.stopped,space_to_continue.started,space_to_continue.stopped,instructions_stage0.started,instructions_stage0.stopped,end_instructions_resp_stage0.keys,end_instructions_resp_stage0.rt,end_instructions_resp_stage0.started,end_instructions_resp_stage0.stopped,space_to_continue_stage0.started,space_to_continue_stage0.stopped,text.started,text.stopped,resp_text1.started,resp_text1.stopped,resp_text2.started,resp_text2.stopped,trial_resp.keys,trial_resp.corr,trial_resp.rt,trial_resp.started,trial_resp.stopped,cue1Image.started,cue1Image.stopped,cue2Image.started,cue2Image.stopped,cue1Image_fb.started,cue1Image_fb.stopped,cue2Image_fb.started,cue2Image_fb.stopped,fb_text_answer.started,fb_text_answer.stopped,feedback_image.started,feedback_image.stopped,instructions_stage1.started,instructions_stage1.stopped,end_instructions_resp_stage1.keys,end_instructions_resp_stage1.rt,end_instructions_resp_stage1.started,end_instructions_resp_stage1.stopped,space_to_continue_stage1.started,space_to_continue_stage1.stopped,instructions_2.started,instructions_2.stopped,end_instructions_resp_2.keys,end_instructions_resp_2.rt,end_instructions_resp_2.started,end_instructions_resp_2.stopped,press_space_to_continue_stage2.started,press_space_to_continue_stage2.stopped,instructions_testStage1.started,instructions_testStage1.stopped,end_instructions_resp_test1.keys,end_instructions_resp_test1.rt,end_instructions_resp_test1.started,end_instructions_resp_test1.stopped,press_space_to_continue_test1.started,press_space_to_continue_test1.stopped,cue1Image_testChoice.started,cue1Image_testChoice.stopped,cue2Image_testChoice.started,cue2Image_testChoice.stopped,test_resp.keys,test_resp.corr,test_resp.rt,test_resp.started,test_resp.stopped,cue1Image_testConf.started,cue1Image_testConf.stopped,cue2Image_testConf.started,cue2Image_testConf.stopped,conf_reminder.started,conf_reminder.stopped,conf_rating.response,conf_rating.rt,conf_rating.started,conf_rating.stopped,session,participant,date,expName,psychopyVersion,frameRate,
,,,,,,,,,,,,,,,,,,,,,,,,,,,,,,,,,,,,,,,,,,,"{'none': 'pictures/20M_AN_C.png', 'alpha': 'pictures/SHINEd_pepper.png', 'beta': 'pictures/SHINEd_apple.png', 'theta': 'pictures/SHINEd_melon.png', 'phi': 'pictures/SHINEd_pear.png', 'T1': 'pictures/31M_AN_C.png', 'T2': 'pictures/23M_AN_C.png', 'T3': 'pictures/33M_AN_C.png', 'T4': 'pictures/38M_AN_C.png', 'T5': 'pictures/26M_AN_C.png', 'T6': 'pictures/37M_AN_C.png', 'B1': 'pictures/22M_NE_C.png', 'B2': 'pictures/32M_NE_C.png', 'B3': 'pictures/25M_NE_C.png', 'B4': 'pictures/34M_NE_C.png', 'B5': 'pictures/36M_NE_C.png', 'B6': 'pictures/20M_NE_C.png'}",11.226953186000173,None,16.227219868997054,None,space,5.677467536999757,16.227219868997054,None,,,,,,,,,,,,,,,,,,,,,,,,,,,,,,,,,,,,,,,,,,,,,,,,,,,,,,,,,,,,,,,,,,,,,,,,,,,,,,,,,,,,,,,,,,,,,,,,001,71,2020_Feb_04_1538,spring_faces,3.1.5,59.94156297058266,
,,,,,,,,,,,,,,,,,,,,,,,,,,,,,,,,,,,,,,,,,,,,,,,,,,,,22.294000154997775,None,22.294000154997775,None,"['0', '7', '0', '8', 'l', 'o', 'r', 'o', 'c']","[18.23455726800239, 24.29860702299993, 29.83457301100134, 30.09059812900159, 33.89860888900148, 34.05867541400221, 36.85866948500188, 36.97061184500126, 37.802608605001296]",22.294000154997775,None,,,,,,,,,,,,,,,,,,,,,,,,,,,,,,,,,,,,,,,,,,,,,,,,,,,,,,,,,,,,,,,,,,,,,,,,,,,,,,,,,,,,,,,,001,71,2020_Feb_04_1538,spring_faces,3.1.5,59.94156297058266,
,,,,,,,,,,,,,,,,,,,,,,,,,,,,,,,,,,,,,,,,,,,,,,,,,,,,,,,,,,,,0708loroc,22.294000154997775,None,22.294000154997775,None,65.17768394999803,None,space,32.863640612999006,70.17716015199767,None,,,,,,,,,,,,,,,,,,,,,,,,,,,,,,,,,,,,,,,,,,,,,,,,,,,,,,,,,,,,,,,,,,,,,,,,,,,,,001,71,2020_Feb_04_1538,spring_faces,3.1.5,59.94156297058266,
,,,,,,,,,,,,,,,,,,,,,,,,,,,,,,,,,,,,,,,,,,,,,,,,,,,,,,,,,,,,,,,,,,,,,,,70.17716015199767,None,103.07751093099796,None,space,6.275217922997399,108.07747498499884,None,,,,,,,,,,,,,,,,,,,,,,,,,,,,,,,,,,,,,,,,,,,,,,,,,,,,,,,,,,,,,,,,,,,,,001,71,2020_Feb_04_1538,spring_faces,3.1.5,59.94156297058266,
condition files/Stage0a.xlsx,0a,beta,none,g,"['h', 'g']","['Chess', 'Go']","[0, 0.5]","[0, 0]",1,0,0,0,0,0,0,0,0,1,,,,,,,,,,,,,,,,,,,,,,,,,,,,,,,,,,,,,,,,,,,,,,,,,,,,,,,,,,,,,108.07747498499884,None,114.41063057099745,None,114.41063057099745,None,114.41063057099745,None,h,0,3.1905991679996077,115.9940915249972,None,115.9940915249972,None,115.9940915249972,None,119.26013618199795,None,119.26013618199795,None,119.26013618199795,None,119.26013618199795,None,,,,,,,,,,,,,,,,,,,,,,,,,,,,,,,,,,,,,,,,,,,,001,71,2020_Feb_04_1538,spring_faces,3.1.5,59.94156297058266,
condition files/Stage0a.xlsx,0a,alpha,none,h,"['h', 'g']","['Chess', 'Go']","[0, 0.5]","[0, 0]",1,0,0,0,0,0,0,1,1,0,,,,,,,,,,,,,,,,,,,,,,,,,,,,,,,,,,,,,,,,,,,,,,,,,,,,,,,,,,,,,,,121.21053364799809,None,121.21053364799809,None,121.21053364799809,None,g,0,2.0558024890015076,122.7608145239974,None,122.7608145239974,None,122.7608145239974,None,124.8772765629983,None,124.8772765629983,None,124.8772765629983,None,124.8772765629983,None,,,,,,,,,,,,,,,,,,,,,,,,,,,,,,,,,,,,,,,,,,,,001,71,2020_Feb_04_1538,spring_faces,3.1.5,59.94156297058266,
condition files/Stage0a.xlsx,0a,beta,none,g,"['h', 'g']","['Chess', 'Go']","[0, 0.5]","[0, 0]",1,0,0,1,1,1,0,0,0,1,,,,,,,,,,,,,,,,,,,,,,,,,,,,,,,,,,,,,,,,,,,,,,,,,,,,,,,,,,,,,,,126.86043024599712,None,126.86043024599712,None,126.86043024599712,None,g,1,2.007085248002113,128.3776028989996,None,128.3776028989996,None,128.3776028989996,None,130.4436778729978,None,130.4436778729978,None,130.4436778729978,None,130.4436778729978,None,,,,,,,,,,,,,,,,,,,,,,,,,,,,,,,,,,,,,,,,,,,,001,71,2020_Feb_04_1538,spring_faces,3.1.5,59.94156297058266,
condition files/Stage0a.xlsx,0a,alpha,none,h,"['h', 'g']","['Chess', 'Go']","[0, 0.5]","[0, 0]",1,0,0,1,1,1,0,1,1,0,,,,,,,,,,,,,,,,,,,,,,,,,,,,,,,,,,,,,,,,,,,,,,,,,,,,,,,,,,,,,,,132.4101474329982,None,132.4101474329982,None,132.4101474329982,None,h,1,0.9053895010001725,133.94325281899728,None,133.94325281899728,None,133.94325281899728,None,134.9100545069996,None,134.9100545069996,None,134.9100545069996,None,134.9100545069996,None,,,,,,,,,,,,,,,,,,,,,,,,,,,,,,,,,,,,,,,,,,,,001,71,2020_Feb_04_1538,spring_faces,3.1.5,59.94156297058266,
condition files/Stage0a.xlsx,0a,alpha,none,h,"['h', 'g']","['Chess', 'Go']","[0, 0.5]","[0, 0]",1,0,0,2,2,2,0,0,0,0,,,,,,,,,,,,,,,,,,,,,,,,,,,,,,,,,,,,,,,,,,,,,,,,,,,,,,,,,,,,,,,136.89427334799984,None,136.89427334799984,None,136.89427334799984,None,h,1,0.7263727669997024,138.41035513799943,None,138.41035513799943,None,138.41035513799943,None,139.1934615359969,None,139.1934615359969,None,139.1934615359969,None,139.1934615359969,None,,,,,,,,,,,,,,,,,,,,,,,,,,,,,,,,,,,,,,,,,,,,001,71,2020_Feb_04_1538,spring_faces,3.1.5,59.94156297058266,
condition files/Stage0a.xlsx,0a,beta,none,g,"['h', 'g']","['Chess', 'Go']","[0, 0.5]","[0, 0]",1,0,0,2,2,2,0,1,1,1,,,,,,,,,,,,,,,,,,,,,,,,,,,,,,,,,,,,,,,,,,,,,,,,,,,,,,,,,,,,,,,141.16051816899926,None,141.16051816899926,None,141.16051816899926,None,g,1,0.7948298840019561,142.69379483099692,None,142.69379483099692,None,142.69379483099692,None,143.54421570799968,None,143.54421570799968,None,143.54421570799968,None,143.54421570799968,None,,,,,,,,,,,,,,,,,,,,,,,,,,,,,,,,,,,,,,,,,,,,001,71,2020_Feb_04_1538,spring_faces,3.1.5,59.94156297058266,
condition files/Stage0a.xlsx,0a,alpha,none,h,"['h', 'g']","['Chess', 'Go']","[0, 0.5]","[0, 0]",1,0,0,3,3,3,0,0,0,0,,,,,,,,,,,,,,,,,,,,,,,,,,,,,,,,,,,,,,,,,,,,,,,,,,,,,,,,,,,,,,,145.52662831999987,None,145.52662831999987,None,145.52662831999987,None,h,1,0.7805804859999625,147.0440305489974,None,147.0440305489974,None,147.0440305489974,None,147.87758034599756,None,147.87758034599756,None,147.87758034599756,None,147.87758034599756,None,,,,,,,,,,,,,,,,,,,,,,,,,,,,,,,,,,,,,,,,,,,,001,71,2020_Feb_04_1538,spring_faces,3.1.5,59.94156297058266,
condition files/Stage0a.xlsx,0a,beta,none,g,"['h', 'g']","['Chess', 'Go']","[0, 0.5]","[0, 0]",1,0,0,3,3,3,0,1,1,1,,,,,,,,,,,,,,,,,,,,,,,,,,,,,,,,,,,,,,,,,,,,,,,,,,,,,,,,,,,,,,,149.84377207999933,None,149.84377207999933,None,149.84377207999933,None,g,1,0.7669987420013058,151.37759026599815,None,151.37759026599815,None,151.37759026599815,None,152.21101453099982,None,152.21101453099982,None,152.21101453099982,None,152.21101453099982,None,,,,,,,,,,,,,,,,,,,,,,,,,,,,,,,,,,,,,,,,,,,,001,71,2020_Feb_04_1538,spring_faces,3.1.5,59.94156297058266,
condition files/Stage0a.xlsx,0a,alpha,none,h,"['h', 'g']","['Chess', 'Go']","[0, 0.5]","[0, 0]",1,0,0,4,4,4,0,0,0,0,,,,,,,,,,,,,,,,,,,,,,,,,,,,,,,,,,,,,,,,,,,,,,,,,,,,,,,,,,,,,,,154.19400928199684,None,154.19400928199684,None,154.19400928199684,None,h,1,0.6418090560000564,155.72687558799953,None,155.72687558799953,None,155.72687558799953,None,156.42717941400042,None,156.42717941400042,None,156.42717941400042,None,156.42717941400042,None,,,,,,,,,,,,,,,,,,,,,,,,,,,,,,,,,,,,,,,,,,,,001,71,2020_Feb_04_1538,spring_faces,3.1.5,59.94156297058266,
condition files/Stage0a.xlsx,0a,beta,none,g,"['h', 'g']","['Chess', 'Go']","[0, 0.5]","[0, 0]",1,0,0,4,4,4,0,1,1,1,,,,,,,,,,,,,,,,,,,,,,,,,,,,,,,,,,,,,,,,,,,,,,,,,,,,,,,,,,,,,,,158.39380420799716,None,158.39380420799716,None,158.39380420799716,None,g,1,1.2253056170011405,159.9273891169978,None,159.9273891169978,None,159.9273891169978,None,161.2104672209971,None,161.2104672209971,None,161.2104672209971,None,161.2104672209971,None,,,,,,,,,,,,,,,,,,,,,,,,,,,,,,,,,,,,,,,,,,,,001,71,2020_Feb_04_1538,spring_faces,3.1.5,59.94156297058266,
condition files/Stage0a.xlsx,0a,alpha,none,h,"['h', 'g']","['Chess', 'Go']","[0, 0.5]","[0, 0]",1,0,0,5,5,5,0,0,0,0,,,,,,,,,,,,,,,,,,,,,,,,,,,,,,,,,,,,,,,,,,,,,,,,,,,,,,,,,,,,,,,163.1940404349989,None,163.1940404349989,None,163.1940404349989,None,h,1,0.5211480670004676,164.72748774799766,None,164.72748774799766,None,164.72748774799766,None,165.31066137499874,None,165.31066137499874,None,165.31066137499874,None,165.31066137499874,None,,,,,,,,,,,,,,,,,,,,,,,,,,,,,,,,,,,,,,,,,,,,001,71,2020_Feb_04_1538,spring_faces,3.1.5,59.94156297058266,
condition files/Stage0a.xlsx,0a,beta,none,g,"['h', 'g']","['Chess', 'Go']","[0, 0.5]","[0, 0]",1,0,0,5,5,5,0,1,1,1,,,,,,,,,,,,,,,,,,,,,,,,,,,,,,,,,,,,,,,,,,,,,,,,,,,,,,,,,,,,,,,167.2769752569984,None,167.2769752569984,None,167.2769752569984,None,g,1,0.8384926939979778,168.81013381699813,None,168.81013381699813,None,168.81013381699813,None,169.7101292829975,None,169.7101292829975,None,169.7101292829975,None,169.7101292829975,None,,,,,,,,,,,,,,,,,,,,,,,,,,,,,,,,,,,,,,,,,,,,001,71,2020_Feb_04_1538,spring_faces,3.1.5,59.94156297058266,
condition files/Stage0b_1.xlsx,0b,none,beta,g,"['h', 'g']","['Chess', 'Go']","[-0.15, 0.5]","[0.15, 0.5]",0,1,0,6,6,6,0,0,0,1,,,,,,,,,,,,,,,,,,,,,,,,,,,,,,,,,,,,,,,,,,,,,,,,,,,,,,,,,,,,,,,171.69352351899943,None,171.69352351899943,None,171.69352351899943,None,g,1,1.3971889149979688,173.2435505249996,None,173.2435505249996,None,173.2435505249996,None,174.6975442820003,None,174.6975442820003,None,174.6975442820003,None,174.6975442820003,None,,,,,,,,,,,,,,,,,,,,,,,,,,,,,,,,,,,,,,,,,,,,001,71,2020_Feb_04_1538,spring_faces,3.1.5,59.94156297058266,
condition files/Stage0b_1.xlsx,0b,alpha,none,h,"['h', 'g']","['Chess', 'Go']","[-0.15, 0.5]","[0.15, 0.5]",1,0,0,6,6,6,0,1,1,0,,,,,,,,,,,,,,,,,,,,,,,,,,,,,,,,,,,,,,,,,,,,,,,,,,,,,,,,,,,,,,,176.66055435199814,None,176.66055435199814,None,176.66055435199814,None,h,1,0.5366414930031169,178.20008747999964,None,178.20008747999964,None,178.20008747999964,None,178.79716924899913,None,178.79716924899913,None,178.79716924899913,None,178.79716924899913,None,,,,,,,,,,,,,,,,,,,,,,,,,,,,,,,,,,,,,,,,,,,,001,71,2020_Feb_04_1538,spring_faces,3.1.5,59.94156297058266,
condition files/Stage0b_2.xlsx,0b,none,alpha,h,"['h', 'g']","['Chess', 'Go']","[-0.15, 0.5]","[0.15, 0.5]",0,1,0,7,7,7,0,0,0,0,,,,,,,,,,,,,,,,,,,,,,,,,,,,,,,,,,,,,,,,,,,,,,,,,,,,,,,,,,,,,,,180.77691133400003,None,180.77691133400003,None,180.77691133400003,None,h,1,0.5045974570020917,182.3120491569971,None,182.3120491569971,None,182.3120491569971,None,182.87747637999928,None,182.87747637999928,None,182.87747637999928,None,182.87747637999928,None,,,,,,,,,,,,,,,,,,,,,,,,,,,,,,,,,,,,,,,,,,,,001,71,2020_Feb_04_1538,spring_faces,3.1.5,59.94156297058266,
condition files/Stage0b_2.xlsx,0b,beta,none,g,"['h', 'g']","['Chess', 'Go']","[-0.15, 0.5]","[0.15, 0.5]",1,0,0,7,7,7,0,1,1,1,,,,,,,,,,,,,,,,,,,,,,,,,,,,,,,,,,,,,,,,,,,,,,,,,,,,,,,,,,,,,,,184.8438662059998,None,184.8438662059998,None,184.8438662059998,None,g,1,0.835497823998594,186.38114861400027,None,186.38114861400027,None,186.38114861400027,None,187.27703421499973,None,187.27703421499973,None,187.27703421499973,None,187.27703421499973,None,,,,,,,,,,,,,,,,,,,,,,,,,,,,,,,,,,,,,,,,,,,,001,71,2020_Feb_04_1538,spring_faces,3.1.5,59.94156297058266,
condition files/Stage0b_1.xlsx,0b,alpha,none,h,"['h', 'g']","['Chess', 'Go']","[-0.15, 0.5]","[0.15, 0.5]",1,0,0,8,8,8,0,0,0,0,,,,,,,,,,,,,,,,,,,,,,,,,,,,,,,,,,,,,,,,,,,,,,,,,,,,,,,,,,,,,,,189.26008676999845,None,189.26008676999845,None,189.26008676999845,None,h,1,0.6145590439991793,190.79404877299748,None,190.79404877299748,None,190.79404877299748,None,191.45989894399827,None,191.45989894399827,None,191.45989894399827,None,191.45989894399827,None,,,,,,,,,,,,,,,,,,,,,,,,,,,,,,,,,,,,,,,,,,,,001,71,2020_Feb_04_1538,spring_faces,3.1.5,59.94156297058266,
condition files/Stage0b_1.xlsx,0b,none,beta,g,"['h', 'g']","['Chess', 'Go']","[-0.15, 0.5]","[0.15, 0.5]",0,1,0,8,8,8,0,1,1,1,,,,,,,,,,,,,,,,,,,,,,,,,,,,,,,,,,,,,,,,,,,,,,,,,,,,,,,,,,,,,,,193.4269186049969,None,193.4269186049969,None,193.4269186049969,None,g,1,0.6049644699996861,194.963747005997,None,194.963747005997,None,194.963747005997,None,195.64411317999839,None,195.64411317999839,None,195.64411317999839,None,195.64411317999839,None,,,,,,,,,,,,,,,,,,,,,,,,,,,,,,,,,,,,,,,,,,,,001,71,2020_Feb_04_1538,spring_faces,3.1.5,59.94156297058266,
condition files/Stage0b_2.xlsx,0b,beta,none,g,"['h', 'g']","['Chess', 'Go']","[-0.15, 0.5]","[0.15, 0.5]",1,0,0,9,9,9,0,0,0,1,,,,,,,,,,,,,,,,,,,,,,,,,,,,,,,,,,,,,,,,,,,,,,,,,,,,,,,,,,,,,,,197.61083198399865,None,197.61083198399865,None,197.61083198399865,None,g,1,1.5440248049999354,199.16067755699987,None,199.16067755699987,None,199.16067755699987,None,200.7603244949969,None,200.7603244949969,None,200.7603244949969,None,200.7603244949969,None,,,,,,,,,,,,,,,,,,,,,,,,,,,,,,,,,,,,,,,,,,,,001,71,2020_Feb_04_1538,spring_faces,3.1.5,59.94156297058266,
condition files/Stage0b_2.xlsx,0b,none,alpha,h,"['h', 'g']","['Chess', 'Go']","[-0.15, 0.5]","[0.15, 0.5]",0,1,0,9,9,9,0,1,1,0,,,,,,,,,,,,,,,,,,,,,,,,,,,,,,,,,,,,,,,,,,,,,,,,,,,,,,,,,,,,,,,202.7270541839971,None,202.7270541839971,None,202.7270541839971,None,h,1,0.6039570719985932,204.26067399599924,None,204.26067399599924,None,204.26067399599924,None,204.9273677079982,None,204.9273677079982,None,204.9273677079982,None,204.9273677079982,None,,,,,,,,,,,,,,,,,,,,,,,,,,,,,,,,,,,,,,,,,,,,001,71,2020_Feb_04_1538,spring_faces,3.1.5,59.94156297058266,
condition files/Stage0b_1.xlsx,0b,alpha,none,h,"['h', 'g']","['Chess', 'Go']","[-0.15, 0.5]","[0.15, 0.5]",1,0,0,10,10,10,0,0,0,0,,,,,,,,,,,,,,,,,,,,,,,,,,,,,,,,,,,,,,,,,,,,,,,,,,,,,,,,,,,,,,,206.91087330499795,None,206.91087330499795,None,206.91087330499795,None,h,1,1.1856328469984874,208.44701488299688,None,208.44701488299688,None,208.44701488299688,None,209.69402159200035,None,209.69402159200035,None,209.69402159200035,None,209.69402159200035,None,,,,,,,,,,,,,,,,,,,,,,,,,,,,,,,,,,,,,,,,,,,,001,71,2020_Feb_04_1538,spring_faces,3.1.5,59.94156297058266,
condition files/Stage0b_1.xlsx,0b,none,beta,g,"['h', 'g']","['Chess', 'Go']","[-0.15, 0.5]","[0.15, 0.5]",0,1,0,10,10,10,0,1,1,1,,,,,,,,,,,,,,,,,,,,,,,,,,,,,,,,,,,,,,,,,,,,,,,,,,,,,,,,,,,,,,,211.6604021509993,None,211.6604021509993,None,211.6604021509993,None,g,1,1.0141772759998275,213.19446070499907,None,213.19446070499907,None,213.19446070499907,None,214.26123949499743,None,214.26123949499743,None,214.26123949499743,None,214.26123949499743,None,,,,,,,,,,,,,,,,,,,,,,,,,,,,,,,,,,,,,,,,,,,,001,71,2020_Feb_04_1538,spring_faces,3.1.5,59.94156297058266,
condition files/Stage0b_2.xlsx,0b,beta,none,g,"['h', 'g']","['Chess', 'Go']","[-0.15, 0.5]","[0.15, 0.5]",1,0,0,11,11,11,0,0,0,1,,,,,,,,,,,,,,,,,,,,,,,,,,,,,,,,,,,,,,,,,,,,,,,,,,,,,,,,,,,,,,,216.24410567099767,None,216.24410567099767,None,216.24410567099767,None,h,0,0.7635878280016186,217.78101740099737,None,217.78101740099737,None,217.78101740099737,None,218.61091106299864,None,218.61091106299864,None,218.61091106299864,None,218.61091106299864,None,,,,,,,,,,,,,,,,,,,,,,,,,,,,,,,,,,,,,,,,,,,,001,71,2020_Feb_04_1538,spring_faces,3.1.5,59.94156297058266,
condition files/Stage0b_2.xlsx,0b,none,alpha,h,"['h', 'g']","['Chess', 'Go']","[-0.15, 0.5]","[0.15, 0.5]",0,1,0,11,11,11,0,1,1,0,,,,,,,,,,,,,,,,,,,,,,,,,,,,,,,,,,,,,,,,,,,,,,,,,,,,,,,,,,,,,,,220.57695627099747,None,220.57695627099747,None,220.57695627099747,None,h,1,0.9292821689996345,222.12734174799698,None,222.12734174799698,None,222.12734174799698,None,223.11156786900028,None,223.11156786900028,None,223.11156786900028,None,223.11156786900028,None,,,,,,,,,,,,,,,,,,,,,,,,,,,,,,,,,,,,,,,,,,,,001,71,2020_Feb_04_1538,spring_faces,3.1.5,59.94156297058266,
condition files/Stage0c_1.xlsx,0c,theta,alpha,h,"['h', 'g']","['Chess', 'Go']","[-0.15, 0.5]","[0.15, 0.5]",1,1,0,12,12,12,0,0,0,0,,,,,,,,,,,,,,,,,,,,,,,,,,,,,,,,,,,,,,,,,,,,,,,,,,,,,,,,,,,,,,,225.0942846129983,None,225.0942846129983,None,225.0942846129983,None,h,1,2.285156764999556,226.6274779819978,None,226.6274779819978,None,226.6274779819978,None,228.97716230999868,None,228.97716230999868,None,228.97716230999868,None,228.97716230999868,None,,,,,,,,,,,,,,,,,,,,,,,,,,,,,,,,,,,,,,,,,,,,001,71,2020_Feb_04_1538,spring_faces,3.1.5,59.94156297058266,
condition files/Stage0c_1.xlsx,0c,beta,theta,g,"['h', 'g']","['Chess', 'Go']","[-0.15, 0.5]","[0.15, 0.5]",1,1,0,12,12,12,0,1,1,2,,,,,,,,,,,,,,,,,,,,,,,,,,,,,,,,,,,,,,,,,,,,,,,,,,,,,,,,,,,,,,,230.94390159199975,None,230.94390159199975,None,230.94390159199975,None,g,1,2.563514266999846,232.4771072199983,None,232.4771072199983,None,232.4771072199983,None,235.09415470599924,None,235.09415470599924,None,235.09415470599924,None,235.09415470599924,None,,,,,,,,,,,,,,,,,,,,,,,,,,,,,,,,,,,,,,,,,,,,001,71,2020_Feb_04_1538,spring_faces,3.1.5,59.94156297058266,
condition files/Stage0c_1.xlsx,0c,phi,beta,g,"['h', 'g']","['Chess', 'Go']","[-0.15, 0.5]","[0.15, 0.5]",1,1,0,12,12,12,0,2,2,3,,,,,,,,,,,,,,,,,,,,,,,,,,,,,,,,,,,,,,,,,,,,,,,,,,,,,,,,,,,,,,,237.05997062799725,None,237.05997062799725,None,237.05997062799725,None,g,1,1.726423234998947,238.59425628600002,None,238.59425628600002,None,238.59425628600002,None,240.37714572899858,None,240.37714572899858,None,240.37714572899858,None,240.37714572899858,None,,,,,,,,,,,,,,,,,,,,,,,,,,,,,,,,,,,,,,,,,,,,001,71,2020_Feb_04_1538,spring_faces,3.1.5,59.94156297058266,
condition files/Stage0c_1.xlsx,0c,alpha,phi,h,"['h', 'g']","['Chess', 'Go']","[-0.15, 0.5]","[0.15, 0.5]",1,1,0,12,12,12,0,3,3,1,,,,,,,,,,,,,,,,,,,,,,,,,,,,,,,,,,,,,,,,,,,,,,,,,,,,,,,,,,,,,,,242.34391473099822,None,242.34391473099822,None,242.34391473099822,None,h,1,0.9393609399994602,243.87727487399752,None,243.87727487399752,None,243.87727487399752,None,244.87686347699855,None,244.87686347699855,None,244.87686347699855,None,244.87686347699855,None,,,,,,,,,,,,,,,,,,,,,,,,,,,,,,,,,,,,,,,,,,,,001,71,2020_Feb_04_1538,spring_faces,3.1.5,59.94156297058266,
condition files/Stage0c_2.xlsx,0c,alpha,theta,h,"['h', 'g']","['Chess', 'Go']","[-0.15, 0.5]","[0.15, 0.5]",1,1,0,13,13,13,0,0,0,0,,,,,,,,,,,,,,,,,,,,,,,,,,,,,,,,,,,,,,,,,,,,,,,,,,,,,,,,,,,,,,,246.86079099799827,None,246.86079099799827,None,246.86079099799827,None,h,1,1.2385217580012977,248.39412187199923,None,248.39412187199923,None,248.39412187199923,None,249.67904636399908,None,249.67904636399908,None,249.67904636399908,None,249.67904636399908,None,,,,,,,,,,,,,,,,,,,,,,,,,,,,,,,,,,,,,,,,,,,,001,71,2020_Feb_04_1538,spring_faces,3.1.5,59.94156297058266,
condition files/Stage0c_2.xlsx,0c,beta,phi,g,"['h', 'g']","['Chess', 'Go']","[-0.15, 0.5]","[0.15, 0.5]",1,1,0,13,13,13,0,1,1,3,,,,,,,,,,,,,,,,,,,,,,,,,,,,,,,,,,,,,,,,,,,,,,,,,,,,,,,,,,,,,,,251.66022926000005,None,251.66022926000005,None,251.66022926000005,None,g,1,0.9029704379972827,253.193664446997,None,253.193664446997,None,253.193664446997,None,254.16100742399794,None,254.16100742399794,None,254.16100742399794,None,254.16100742399794,None,,,,,,,,,,,,,,,,,,,,,,,,,,,,,,,,,,,,,,,,,,,,001,71,2020_Feb_04_1538,spring_faces,3.1.5,59.94156297058266,
condition files/Stage0c_2.xlsx,0c,phi,alpha,h,"['h', 'g']","['Chess', 'Go']","[-0.15, 0.5]","[0.15, 0.5]",1,1,0,13,13,13,0,2,2,1,,,,,,,,,,,,,,,,,,,,,,,,,,,,,,,,,,,,,,,,,,,,,,,,,,,,,,,,,,,,,,,256.12704722299895,None,256.12704722299895,None,256.12704722299895,None,h,1,1.011940467000386,257.6607131290002,None,257.6607131290002,None,257.6607131290002,None,258.7272593790003,None,258.7272593790003,None,258.7272593790003,None,258.7272593790003,None,,,,,,,,,,,,,,,,,,,,,,,,,,,,,,,,,,,,,,,,,,,,001,71,2020_Feb_04_1538,spring_faces,3.1.5,59.94156297058266,
condition files/Stage0c_2.xlsx,0c,theta,beta,g,"['h', 'g']","['Chess', 'Go']","[-0.15, 0.5]","[0.15, 0.5]",1,1,0,13,13,13,0,3,3,2,,,,,,,,,,,,,,,,,,,,,,,,,,,,,,,,,,,,,,,,,,,,,,,,,,,,,,,,,,,,,,,260.6939609559995,None,260.6939609559995,None,260.6939609559995,None,g,1,0.941225647002284,262.22743791299945,None,262.22743791299945,None,262.22743791299945,None,263.2275599679997,None,263.2275599679997,None,263.2275599679997,None,263.2275599679997,None,,,,,,,,,,,,,,,,,,,,,,,,,,,,,,,,,,,,,,,,,,,,001,71,2020_Feb_04_1538,spring_faces,3.1.5,59.94156297058266,
condition files/Stage0c_1.xlsx,0c,phi,beta,g,"['h', 'g']","['Chess', 'Go']","[-0.15, 0.5]","[0.15, 0.5]",1,1,0,14,14,14,0,0,0,3,,,,,,,,,,,,,,,,,,,,,,,,,,,,,,,,,,,,,,,,,,,,,,,,,,,,,,,,,,,,,,,265.21076976199765,None,265.21076976199765,None,265.21076976199765,None,g,1,1.208943169000122,266.74375116599913,None,266.74375116599913,None,266.74375116599913,None,267.99640598199767,None,267.99640598199767,None,267.99640598199767,None,267.99640598199767,None,,,,,,,,,,,,,,,,,,,,,,,,,,,,,,,,,,,,,,,,,,,,001,71,2020_Feb_04_1538,spring_faces,3.1.5,59.94156297058266,
condition files/Stage0c_1.xlsx,0c,beta,theta,g,"['h', 'g']","['Chess', 'Go']","[-0.15, 0.5]","[0.15, 0.5]",1,1,0,14,14,14,0,1,1,2,,,,,,,,,,,,,,,,,,,,,,,,,,,,,,,,,,,,,,,,,,,,,,,,,,,,,,,,,,,,,,,269.97723175099964,None,269.97723175099964,None,269.97723175099964,None,g,1,0.9857347600009234,271.51084855299996,None,271.51084855299996,None,271.51084855299996,None,272.54426912899726,None,272.54426912899726,None,272.54426912899726,None,272.54426912899726,None,,,,,,,,,,,,,,,,,,,,,,,,,,,,,,,,,,,,,,,,,,,,001,71,2020_Feb_04_1538,spring_faces,3.1.5,59.94156297058266,
condition files/Stage0c_1.xlsx,0c,alpha,phi,h,"['h', 'g']","['Chess', 'Go']","[-0.15, 0.5]","[0.15, 0.5]",1,1,0,14,14,14,0,2,2,1,,,,,,,,,,,,,,,,,,,,,,,,,,,,,,,,,,,,,,,,,,,,,,,,,,,,,,,,,,,,,,,274.527024103998,None,274.527024103998,None,274.527024103998,None,h,1,0.9319651830010116,276.0606540059998,None,276.0606540059998,None,276.0606540059998,None,277.0439251829994,None,277.0439251829994,None,277.0439251829994,None,277.0439251829994,None,,,,,,,,,,,,,,,,,,,,,,,,,,,,,,,,,,,,,,,,,,,,001,71,2020_Feb_04_1538,spring_faces,3.1.5,59.94156297058266,
condition files/Stage0c_1.xlsx,0c,theta,alpha,h,"['h', 'g']","['Chess', 'Go']","[-0.15, 0.5]","[0.15, 0.5]",1,1,0,14,14,14,0,3,3,0,,,,,,,,,,,,,,,,,,,,,,,,,,,,,,,,,,,,,,,,,,,,,,,,,,,,,,,,,,,,,,,279.01049806899755,None,279.01049806899755,None,279.01049806899755,None,h,1,1.232531800000288,280.5440898859997,None,280.5440898859997,None,280.5440898859997,None,281.827148098997,None,281.827148098997,None,281.827148098997,None,281.827148098997,None,,,,,,,,,,,,,,,,,,,,,,,,,,,,,,,,,,,,,,,,,,,,001,71,2020_Feb_04_1538,spring_faces,3.1.5,59.94156297058266,
condition files/Stage0c_2.xlsx,0c,phi,alpha,h,"['h', 'g']","['Chess', 'Go']","[-0.15, 0.5]","[0.15, 0.5]",1,1,0,15,15,15,0,0,0,1,,,,,,,,,,,,,,,,,,,,,,,,,,,,,,,,,,,,,,,,,,,,,,,,,,,,,,,,,,,,,,,283.81074538999746,None,283.81074538999746,None,283.81074538999746,None,h,1,1.8246517039988248,285.3440444609987,None,285.3440444609987,None,285.3440444609987,None,287.2121640379992,None,287.2121640379992,None,287.2121640379992,None,287.2121640379992,None,,,,,,,,,,,,,,,,,,,,,,,,,,,,,,,,,,,,,,,,,,,,001,71,2020_Feb_04_1538,spring_faces,3.1.5,59.94156297058266,
condition files/Stage0c_2.xlsx,0c,alpha,theta,h,"['h', 'g']","['Chess', 'Go']","[-0.15, 0.5]","[0.15, 0.5]",1,1,0,15,15,15,0,1,1,0,,,,,,,,,,,,,,,,,,,,,,,,,,,,,,,,,,,,,,,,,,,,,,,,,,,,,,,,,,,,,,,289.19362092200026,None,289.19362092200026,None,289.19362092200026,None,h,1,0.8897773419994337,290.7268579720003,None,290.7268579720003,None,290.7268579720003,None,291.6617778,None,291.6617778,None,291.6617778,None,291.6617778,None,,,,,,,,,,,,,,,,,,,,,,,,,,,,,,,,,,,,,,,,,,,,001,71,2020_Feb_04_1538,spring_faces,3.1.5,59.94156297058266,
condition files/Stage0c_2.xlsx,0c,theta,beta,g,"['h', 'g']","['Chess', 'Go']","[-0.15, 0.5]","[0.15, 0.5]",1,1,0,15,15,15,0,2,2,2,,,,,,,,,,,,,,,,,,,,,,,,,,,,,,,,,,,,,,,,,,,,,,,,,,,,,,,,,,,,,,,293.64385769100045,None,293.64385769100045,None,293.64385769100045,None,g,1,0.8072059439982695,295.17748405199745,None,295.17748405199745,None,295.17748405199745,None,296.04356071299844,None,296.04356071299844,None,296.04356071299844,None,296.04356071299844,None,,,,,,,,,,,,,,,,,,,,,,,,,,,,,,,,,,,,,,,,,,,,001,71,2020_Feb_04_1538,spring_faces,3.1.5,59.94156297058266,
condition files/Stage0c_2.xlsx,0c,beta,phi,g,"['h', 'g']","['Chess', 'Go']","[-0.15, 0.5]","[0.15, 0.5]",1,1,0,15,15,15,0,3,3,3,,,,,,,,,,,,,,,,,,,,,,,,,,,,,,,,,,,,,,,,,,,,,,,,,,,,,,,,,,,,,,,298.01063004099706,None,298.01063004099706,None,298.01063004099706,None,g,1,0.8406980300023861,299.54397539300044,None,299.54397539300044,None,299.54397539300044,None,300.4285861239987,None,300.4285861239987,None,300.4285861239987,None,300.4285861239987,None,,,,,,,,,,,,,,,,,,,,,,,,,,,,,,,,,,,,,,,,,,,,001,71,2020_Feb_04_1538,spring_faces,3.1.5,59.94156297058266,
condition files/Stage0c_1.xlsx,0c,alpha,phi,h,"['h', 'g']","['Chess', 'Go']","[-0.15, 0.5]","[0.15, 0.5]",1,1,0,16,16,16,0,0,0,1,,,,,,,,,,,,,,,,,,,,,,,,,,,,,,,,,,,,,,,,,,,,,,,,,,,,,,,,,,,,,,,302.42727600599756,None,302.42727600599756,None,302.42727600599756,None,h,1,0.7282415549998404,303.9603736099998,None,303.9603736099998,None,303.9603736099998,None,304.7438442040002,None,304.7438442040002,None,304.7438442040002,None,304.7438442040002,None,,,,,,,,,,,,,,,,,,,,,,,,,,,,,,,,,,,,,,,,,,,,001,71,2020_Feb_04_1538,spring_faces,3.1.5,59.94156297058266,
condition files/Stage0c_1.xlsx,0c,theta,alpha,h,"['h', 'g']","['Chess', 'Go']","[-0.15, 0.5]","[0.15, 0.5]",1,1,0,16,16,16,0,1,1,0,,,,,,,,,,,,,,,,,,,,,,,,,,,,,,,,,,,,,,,,,,,,,,,,,,,,,,,,,,,,,,,306.71050646000003,None,306.71050646000003,None,306.71050646000003,None,h,1,0.9246019029997115,308.2440892550003,None,308.2440892550003,None,308.2440892550003,None,309.2119808059979,None,309.2119808059979,None,309.2119808059979,None,309.2119808059979,None,,,,,,,,,,,,,,,,,,,,,,,,,,,,,,,,,,,,,,,,,,,,001,71,2020_Feb_04_1538,spring_faces,3.1.5,59.94156297058266,
condition files/Stage0c_1.xlsx,0c,phi,beta,g,"['h', 'g']","['Chess', 'Go']","[-0.15, 0.5]","[0.15, 0.5]",1,1,0,16,16,16,0,2,2,3,,,,,,,,,,,,,,,,,,,,,,,,,,,,,,,,,,,,,,,,,,,,,,,,,,,,,,,,,,,,,,,311.19384181699934,None,311.19384181699934,None,311.19384181699934,None,g,1,0.8093335110024782,312.72739137499957,None,312.72739137499957,None,312.72739137499957,None,313.59405345599953,None,313.59405345599953,None,313.59405345599953,None,313.59405345599953,None,,,,,,,,,,,,,,,,,,,,,,,,,,,,,,,,,,,,,,,,,,,,001,71,2020_Feb_04_1538,spring_faces,3.1.5,59.94156297058266,
condition files/Stage0c_1.xlsx,0c,beta,theta,g,"['h', 'g']","['Chess', 'Go']","[-0.15, 0.5]","[0.15, 0.5]",1,1,0,16,16,16,0,3,3,2,,,,,,,,,,,,,,,,,,,,,,,,,,,,,,,,,,,,,,,,,,,,,,,,,,,,,,,,,,,,,,,315.5607680369976,None,315.5607680369976,None,315.5607680369976,None,g,1,2.042934804001561,317.0937632719979,None,317.0937632719979,None,317.0937632719979,None,319.17788950499744,None,319.17788950499744,None,319.17788950499744,None,319.17788950499744,None,,,,,,,,,,,,,,,,,,,,,,,,,,,,,,,,,,,,,,,,,,,,001,71,2020_Feb_04_1538,spring_faces,3.1.5,59.94156297058266,
condition files/Stage0c_2.xlsx,0c,theta,beta,g,"['h', 'g']","['Chess', 'Go']","[-0.15, 0.5]","[0.15, 0.5]",1,1,0,17,17,17,0,0,0,2,,,,,,,,,,,,,,,,,,,,,,,,,,,,,,,,,,,,,,,,,,,,,,,,,,,,,,,,,,,,,,,321.1768969199984,None,321.1768969199984,None,321.1768969199984,None,g,1,0.6177345550022437,322.71085897899684,None,322.71085897899684,None,322.71085897899684,None,323.3804374529973,None,323.3804374529973,None,323.3804374529973,None,323.3804374529973,None,,,,,,,,,,,,,,,,,,,,,,,,,,,,,,,,,,,,,,,,,,,,001,71,2020_Feb_04_1538,spring_faces,3.1.5,59.94156297058266,
condition files/Stage0c_2.xlsx,0c,beta,phi,g,"['h', 'g']","['Chess', 'Go']","[-0.15, 0.5]","[0.15, 0.5]",1,1,0,17,17,17,0,1,1,3,,,,,,,,,,,,,,,,,,,,,,,,,,,,,,,,,,,,,,,,,,,,,,,,,,,,,,,,,,,,,,,325.3604575779973,None,325.3604575779973,None,325.3604575779973,None,g,1,0.5463263499987079,326.8943037479985,None,326.8943037479985,None,326.8943037479985,None,327.47827134699764,None,327.47827134699764,None,327.47827134699764,None,327.47827134699764,None,,,,,,,,,,,,,,,,,,,,,,,,,,,,,,,,,,,,,,,,,,,,001,71,2020_Feb_04_1538,spring_faces,3.1.5,59.94156297058266,
condition files/Stage0c_2.xlsx,0c,alpha,theta,h,"['h', 'g']","['Chess', 'Go']","[-0.15, 0.5]","[0.15, 0.5]",1,1,0,17,17,17,0,2,2,0,,,,,,,,,,,,,,,,,,,,,,,,,,,,,,,,,,,,,,,,,,,,,,,,,,,,,,,,,,,,,,,329.4599290429978,None,329.4599290429978,None,329.4599290429978,None,h,1,0.766913523999392,330.9936955899975,None,330.9936955899975,None,330.9936955899975,None,331.81078006499956,None,331.81078006499956,None,331.81078006499956,None,331.81078006499956,None,,,,,,,,,,,,,,,,,,,,,,,,,,,,,,,,,,,,,,,,,,,,001,71,2020_Feb_04_1538,spring_faces,3.1.5,59.94156297058266,
condition files/Stage0c_2.xlsx,0c,phi,alpha,h,"['h', 'g']","['Chess', 'Go']","[-0.15, 0.5]","[0.15, 0.5]",1,1,0,17,17,17,0,3,3,1,,,,,,,,,,,,,,,,,,,,,,,,,,,,,,,,,,,,,,,,,,,,,,,,,,,,,,,,,,,,,,,333.77729140299925,None,333.77729140299925,None,333.77729140299925,None,h,1,0.9145268660031434,335.31009683199954,None,335.31009683199954,None,335.31009683199954,None,336.2772610489992,None,336.2772610489992,None,336.2772610489992,None,336.2772610489992,None,,,,,,,,,,,,,,,,,,,,,,,,,,,,,,,,,,,,,,,,,,,,001,71,2020_Feb_04_1538,spring_faces,3.1.5,59.94156297058266,
,,,,,,,,,,,,,,,,,,,,,,,,,,,,,,,,,,,,,,,,,,,,,,,,,,,,,,,,,,,,,,,,,,,,,,,,,,,,,,,,,,,,,,,,,,,,,,,,,,,,,,,,338.2606168450002,None,space,6.452013423000608,343.26055216599707,None,,,,,,,,,,,,,,,,,,,,,,,,,,,,,,,,,,,,,,001,71,2020_Feb_04_1538,spring_faces,3.1.5,59.94156297058266,
condition files/Stage1_1.xlsx,,T4,B3,m,"['c', 'm']","['Clue', 'Monopoly']","[-0.15, 0.5]","[0.15, 0.5]",1,1,,,,,,,,,0,0,0,0,0,0,0,6,,,,,,,,,,,,,,,,,,,,,,,,,,,,,,,,,,,,,,,,,,,,,,,,,,,,,,,349.77723269499984,None,349.77723269499984,None,349.77723269499984,None,m,1,1.1542775130001246,351.31036769599814,None,351.31036769599814,None,351.31036769599814,None,352.5434779049974,None,352.5434779049974,None,352.5434779049974,None,352.5434779049974,None,,,,,,,343.26055216599707,None,,,,,,,,,,,,,,,,,,,,,,,,,,,,,,,,,,,,001,71,2020_Feb_04_1538,spring_faces,3.1.5,59.94156297058266,
condition files/Stage1_1.xlsx,,T3,B4,c,"['c', 'm']","['Clue', 'Monopoly']","[-0.15, 0.5]","[0.15, 0.5]",1,1,,,,,,,,,0,0,0,0,0,1,1,5,,,,,,,,,,,,,,,,,,,,,,,,,,,,,,,,,,,,,,,,,,,,,,,,,,,,,,,354.4939066579973,None,354.4939066579973,None,354.4939066579973,None,c,1,0.8215772359981202,356.02706609099914,None,356.02706609099914,None,356.02706609099914,None,356.92725820600026,None,356.92725820600026,None,356.92725820600026,None,356.92725820600026,None,,,,,,,,,,,,,,,,,,,,,,,,,,,,,,,,,,,,,,,,,,,,001,71,2020_Feb_04_1538,spring_faces,3.1.5,59.94156297058266,
condition files/Stage1_1.xlsx,,T1,B1,c,"['c', 'm']","['Clue', 'Monopoly']","[-0.15, 0.5]","[0.15, 0.5]",1,1,,,,,,,,,0,0,0,0,0,2,2,0,,,,,,,,,,,,,,,,,,,,,,,,,,,,,,,,,,,,,,,,,,,,,,,,,,,,,,,358.87717777599755,None,358.87717777599755,None,358.87717777599755,None,m,0,1.3968928450012754,360.41174677699746,None,360.41174677699746,None,360.41174677699746,None,361.86101907899865,None,361.86101907899865,None,361.86101907899865,None,361.86101907899865,None,,,,,,,,,,,,,,,,,,,,,,,,,,,,,,,,,,,,,,,,,,,,001,71,2020_Feb_04_1538,spring_faces,3.1.5,59.94156297058266,
condition files/Stage1_1.xlsx,,B2,T1,m,"['c', 'm']","['Clue', 'Monopoly']","[-0.15, 0.5]","[0.15, 0.5]",1,1,,,,,,,,,0,0,0,0,0,3,3,2,,,,,,,,,,,,,,,,,,,,,,,,,,,,,,,,,,,,,,,,,,,,,,,,,,,,,,,363.8271854659979,None,363.8271854659979,None,363.8271854659979,None,m,1,1.6635594550025417,365.36107357199944,None,365.36107357199944,None,365.36107357199944,None,367.0933088899983,None,367.0933088899983,None,367.0933088899983,None,367.0933088899983,None,,,,,,,,,,,,,,,,,,,,,,,,,,,,,,,,,,,,,,,,,,,,001,71,2020_Feb_04_1538,spring_faces,3.1.5,59.94156297058266,
condition files/Stage1_1.xlsx,,B1,T2,c,"['c', 'm']","['Clue', 'Monopoly']","[-0.15, 0.5]","[0.15, 0.5]",1,1,,,,,,,,,0,0,0,0,0,4,4,1,,,,,,,,,,,,,,,,,,,,,,,,,,,,,,,,,,,,,,,,,,,,,,,,,,,,,,,369.0439781269997,None,369.0439781269997,None,369.0439781269997,None,c,1,1.2799311029993987,370.57670385500023,None,370.57670385500023,None,370.57670385500023,None,371.92729408099694,None,371.92729408099694,None,371.92729408099694,None,371.92729408099694,None,,,,,,,,,,,,,,,,,,,,,,,,,,,,,,,,,,,,,,,,,,,,001,71,2020_Feb_04_1538,spring_faces,3.1.5,59.94156297058266,
condition files/Stage1_1.xlsx,,B4,T4,m,"['c', 'm']","['Clue', 'Monopoly']","[-0.15, 0.5]","[0.15, 0.5]",1,1,,,,,,,,,0,0,0,0,0,5,5,7,,,,,,,,,,,,,,,,,,,,,,,,,,,,,,,,,,,,,,,,,,,,,,,,,,,,,,,373.87721050899927,None,373.87721050899927,None,373.87721050899927,None,m,1,1.2623368649983604,375.4102409629995,None,375.4102409629995,None,375.4102409629995,None,376.7268168139999,None,376.7268168139999,None,376.7268168139999,None,376.7268168139999,None,,,,,,,,,,,,,,,,,,,,,,,,,,,,,,,,,,,,,,,,,,,,001,71,2020_Feb_04_1538,spring_faces,3.1.5,59.94156297058266,
condition files/Stage1_1.xlsx,,B3,T3,c,"['c', 'm']","['Clue', 'Monopoly']","[-0.15, 0.5]","[0.15, 0.5]",1,1,,,,,,,,,0,0,0,0,0,6,6,4,,,,,,,,,,,,,,,,,,,,,,,,,,,,,,,,,,,,,,,,,,,,,,,,,,,,,,,378.693864891,None,378.693864891,None,378.693864891,None,c,1,1.3884124920004979,380.2442004609984,None,380.2442004609984,None,380.2442004609984,None,381.69581663200006,None,381.69581663200006,None,381.69581663200006,None,381.69581663200006,None,,,,,,,,,,,,,,,,,,,,,,,,,,,,,,,,,,,,,,,,,,,,001,71,2020_Feb_04_1538,spring_faces,3.1.5,59.94156297058266,
condition files/Stage1_1.xlsx,,T2,B2,m,"['c', 'm']","['Clue', 'Monopoly']","[-0.15, 0.5]","[0.15, 0.5]",1,1,,,,,,,,,0,0,0,0,0,7,7,3,,,,,,,,,,,,,,,,,,,,,,,,,,,,,,,,,,,,,,,,,,,,,,,,,,,,,,,383.66053391499736,None,383.66053391499736,None,383.66053391499736,None,c,0,1.5912170279989368,385.19349241599775,None,385.19349241599775,None,385.19349241599775,None,386.8446069679994,None,386.8446069679994,None,386.8446069679994,None,386.8446069679994,None,,,,,,,,,,,,,,,,,,,,,,,,,,,,,,,,,,,,,,,,,,,,001,71,2020_Feb_04_1538,spring_faces,3.1.5,59.94156297058266,
condition files/Stage1_2.xlsx,,T1,B2,m,"['c', 'm']","['Clue', 'Monopoly']","[-0.15, 0.5]","[0.15, 0.5]",1,1,,,,,,,,,0,1,1,1,0,0,0,2,,,,,,,,,,,,,,,,,,,,,,,,,,,,,,,,,,,,,,,,,,,,,,,,,,,,,,,388.8273419349971,None,388.8273419349971,None,388.8273419349971,None,m,1,1.7510665529989637,390.3775138219971,None,390.3775138219971,None,390.3775138219971,None,392.19381274199986,None,392.19381274199986,None,392.19381274199986,None,392.19381274199986,None,,,,,,,,,,,,,,,,,,,,,,,,,,,,,,,,,,,,,,,,,,,,001,71,2020_Feb_04_1538,spring_faces,3.1.5,59.94156297058266,
condition files/Stage1_2.xlsx,,T3,B3,c,"['c', 'm']","['Clue', 'Monopoly']","[-0.15, 0.5]","[0.15, 0.5]",1,1,,,,,,,,,0,1,1,1,0,1,1,4,,,,,,,,,,,,,,,,,,,,,,,,,,,,,,,,,,,,,,,,,,,,,,,,,,,,,,,394.1602347549997,None,394.1602347549997,None,394.1602347549997,None,c,1,1.3937928949999332,395.71090894199733,None,395.71090894199733,None,395.71090894199733,None,397.1630748440002,None,397.1630748440002,None,397.1630748440002,None,397.1630748440002,None,,,,,,,,,,,,,,,,,,,,,,,,,,,,,,,,,,,,,,,,,,,,001,71,2020_Feb_04_1538,spring_faces,3.1.5,59.94156297058266,
condition files/Stage1_2.xlsx,,B4,T3,c,"['c', 'm']","['Clue', 'Monopoly']","[-0.15, 0.5]","[0.15, 0.5]",1,1,,,,,,,,,0,1,1,1,0,2,2,5,,,,,,,,,,,,,,,,,,,,,,,,,,,,,,,,,,,,,,,,,,,,,,,,,,,,,,,399.1270886589991,None,399.1270886589991,None,399.1270886589991,None,m,0,1.2101696859972435,400.66246000200044,None,400.66246000200044,None,400.66246000200044,None,401.92694164899876,None,401.92694164899876,None,401.92694164899876,None,401.92694164899876,None,,,,,,,,,,,,,,,,,,,,,,,,,,,,,,,,,,,,,,,,,,,,001,71,2020_Feb_04_1538,spring_faces,3.1.5,59.94156297058266,
condition files/Stage1_2.xlsx,,T2,B1,c,"['c', 'm']","['Clue', 'Monopoly']","[-0.15, 0.5]","[0.15, 0.5]",1,1,,,,,,,,,0,1,1,1,0,3,3,1,,,,,,,,,,,,,,,,,,,,,,,,,,,,,,,,,,,,,,,,,,,,,,,,,,,,,,,403.8937825840003,None,403.8937825840003,None,403.8937825840003,None,m,0,1.0194549530024233,405.42919079799685,None,405.42919079799685,None,405.42919079799685,None,406.51084451299903,None,406.51084451299903,None,406.51084451299903,None,406.51084451299903,None,,,,,,,,,,,,,,,,,,,,,,,,,,,,,,,,,,,,,,,,,,,,001,71,2020_Feb_04_1538,spring_faces,3.1.5,59.94156297058266,
condition files/Stage1_2.xlsx,,T4,B4,m,"['c', 'm']","['Clue', 'Monopoly']","[-0.15, 0.5]","[0.15, 0.5]",1,1,,,,,,,,,0,1,1,1,0,4,4,7,,,,,,,,,,,,,,,,,,,,,,,,,,,,,,,,,,,,,,,,,,,,,,,,,,,,,,,408.47698693799975,None,408.47698693799975,None,408.47698693799975,None,m,1,0.8051094369984639,410.0274764019996,None,410.0274764019996,None,410.0274764019996,None,410.91072388999964,None,410.91072388999964,None,410.91072388999964,None,410.91072388999964,None,,,,,,,,,,,,,,,,,,,,,,,,,,,,,,,,,,,,,,,,,,,,001,71,2020_Feb_04_1538,spring_faces,3.1.5,59.94156297058266,
condition files/Stage1_2.xlsx,,B1,T1,c,"['c', 'm']","['Clue', 'Monopoly']","[-0.15, 0.5]","[0.15, 0.5]",1,1,,,,,,,,,0,1,1,1,0,5,5,0,,,,,,,,,,,,,,,,,,,,,,,,,,,,,,,,,,,,,,,,,,,,,,,,,,,,,,,412.86031520899996,None,412.86031520899996,None,412.86031520899996,None,m,0,1.1567313880004804,414.3959560609983,None,414.3959560609983,None,414.3959560609983,None,415.6105661719994,None,415.6105661719994,None,415.6105661719994,None,415.6105661719994,None,,,,,,,,,,,,,,,,,,,,,,,,,,,,,,,,,,,,,,,,,,,,001,71,2020_Feb_04_1538,spring_faces,3.1.5,59.94156297058266,
condition files/Stage1_2.xlsx,,B3,T4,m,"['c', 'm']","['Clue', 'Monopoly']","[-0.15, 0.5]","[0.15, 0.5]",1,1,,,,,,,,,0,1,1,1,0,6,6,6,,,,,,,,,,,,,,,,,,,,,,,,,,,,,,,,,,,,,,,,,,,,,,,,,,,,,,,417.57731320200037,None,417.57731320200037,None,417.57731320200037,None,m,1,1.0810552869988896,419.12756800699935,None,419.12756800699935,None,419.12756800699935,None,420.2603928799981,None,420.2603928799981,None,420.2603928799981,None,420.2603928799981,None,,,,,,,,,,,,,,,,,,,,,,,,,,,,,,,,,,,,,,,,,,,,001,71,2020_Feb_04_1538,spring_faces,3.1.5,59.94156297058266,
condition files/Stage1_2.xlsx,,B2,T2,m,"['c', 'm']","['Clue', 'Monopoly']","[-0.15, 0.5]","[0.15, 0.5]",1,1,,,,,,,,,0,1,1,1,0,7,7,3,,,,,,,,,,,,,,,,,,,,,,,,,,,,,,,,,,,,,,,,,,,,,,,,,,,,,,,422.22716528899764,None,422.22716528899764,None,422.22716528899764,None,c,0,1.5977037459997518,423.76292105299945,None,423.76292105299945,None,423.76292105299945,None,425.4110859409993,None,425.4110859409993,None,425.4110859409993,None,425.4110859409993,None,,,,,,,,,,,,,,,,,,,,,,,,,,,,,,,,,,,,,,,,,,,,001,71,2020_Feb_04_1538,spring_faces,3.1.5,59.94156297058266,
condition files/Stage1_1.xlsx,,T1,B1,c,"['c', 'm']","['Clue', 'Monopoly']","[-0.15, 0.5]","[0.15, 0.5]",1,1,,,,,,,,,0,2,2,2,0,0,0,0,,,,,,,,,,,,,,,,,,,,,,,,,,,,,,,,,,,,,,,,,,,,,,,,,,,,,,,427.3942051119993,None,427.3942051119993,None,427.3942051119993,None,c,1,1.6490574939998623,428.92759413899694,None,428.92759413899694,None,428.92759413899694,None,430.62704247999864,None,430.62704247999864,None,430.62704247999864,None,430.62704247999864,None,,,,,,,,,,,,,,,,,,,,,,,,,,,,,,,,,,,,,,,,,,,,001,71,2020_Feb_04_1538,spring_faces,3.1.5,59.94156297058266,
condition files/Stage1_1.xlsx,,B3,T3,c,"['c', 'm']","['Clue', 'Monopoly']","[-0.15, 0.5]","[0.15, 0.5]",1,1,,,,,,,,,0,2,2,2,0,1,1,4,,,,,,,,,,,,,,,,,,,,,,,,,,,,,,,,,,,,,,,,,,,,,,,,,,,,,,,432.5932532009974,None,432.5932532009974,None,432.5932532009974,None,m,0,1.2494639310025377,434.1271655519995,None,434.1271655519995,None,434.1271655519995,None,435.4277617089974,None,435.4277617089974,None,435.4277617089974,None,435.4277617089974,None,,,,,,,,,,,,,,,,,,,,,,,,,,,,,,,,,,,,,,,,,,,,001,71,2020_Feb_04_1538,spring_faces,3.1.5,59.94156297058266,
condition files/Stage1_1.xlsx,,B1,T2,c,"['c', 'm']","['Clue', 'Monopoly']","[-0.15, 0.5]","[0.15, 0.5]",1,1,,,,,,,,,0,2,2,2,0,2,2,1,,,,,,,,,,,,,,,,,,,,,,,,,,,,,,,,,,,,,,,,,,,,,,,,,,,,,,,437.39394340599756,None,437.39394340599756,None,437.39394340599756,None,m,0,1.809163866997551,438.92755344599937,None,438.92755344599937,None,438.92755344599937,None,440.7941081509998,None,440.7941081509998,None,440.7941081509998,None,440.7941081509998,None,,,,,,,,,,,,,,,,,,,,,,,,,,,,,,,,,,,,,,,,,,,,001,71,2020_Feb_04_1538,spring_faces,3.1.5,59.94156297058266,
condition files/Stage1_1.xlsx,,T4,B3,m,"['c', 'm']","['Clue', 'Monopoly']","[-0.15, 0.5]","[0.15, 0.5]",1,1,,,,,,,,,0,2,2,2,0,3,3,6,,,,,,,,,,,,,,,,,,,,,,,,,,,,,,,,,,,,,,,,,,,,,,,,,,,,,,,442.76066839600026,None,442.76066839600026,None,442.76066839600026,None,m,1,0.9223836599994684,444.29431387799923,None,444.29431387799923,None,444.29431387799923,None,445.28019301899985,None,445.28019301899985,None,445.28019301899985,None,445.28019301899985,None,,,,,,,,,,,,,,,,,,,,,,,,,,,,,,,,,,,,,,,,,,,,001,71,2020_Feb_04_1538,spring_faces,3.1.5,59.94156297058266,
condition files/Stage1_1.xlsx,,T2,B2,m,"['c', 'm']","['Clue', 'Monopoly']","[-0.15, 0.5]","[0.15, 0.5]",1,1,,,,,,,,,0,2,2,2,0,4,4,3,,,,,,,,,,,,,,,,,,,,,,,,,,,,,,,,,,,,,,,,,,,,,,,,,,,,,,,447.2437978889975,None,447.2437978889975,None,447.2437978889975,None,c,0,2.1992974120003055,448.79332712599717,None,448.79332712599717,None,448.79332712599717,None,451.04411976199845,None,451.04411976199845,None,451.04411976199845,None,451.04411976199845,None,,,,,,,,,,,,,,,,,,,,,,,,,,,,,,,,,,,,,,,,,,,,001,71,2020_Feb_04_1538,spring_faces,3.1.5,59.94156297058266,
condition files/Stage1_1.xlsx,,B4,T4,m,"['c', 'm']","['Clue', 'Monopoly']","[-0.15, 0.5]","[0.15, 0.5]",1,1,,,,,,,,,0,2,2,2,0,5,5,7,,,,,,,,,,,,,,,,,,,,,,,,,,,,,,,,,,,,,,,,,,,,,,,,,,,,,,,453.01049487399723,None,453.01049487399723,None,453.01049487399723,None,m,1,0.6728563329997996,454.5437563630003,None,454.5437563630003,None,454.5437563630003,None,455.2772840159996,None,455.2772840159996,None,455.2772840159996,None,455.2772840159996,None,,,,,,,,,,,,,,,,,,,,,,,,,,,,,,,,,,,,,,,,,,,,001,71,2020_Feb_04_1538,spring_faces,3.1.5,59.94156297058266,
condition files/Stage1_1.xlsx,,B2,T1,m,"['c', 'm']","['Clue', 'Monopoly']","[-0.15, 0.5]","[0.15, 0.5]",1,1,,,,,,,,,0,2,2,2,0,6,6,2,,,,,,,,,,,,,,,,,,,,,,,,,,,,,,,,,,,,,,,,,,,,,,,,,,,,,,,457.24394328799826,None,457.24394328799826,None,457.24394328799826,None,m,1,1.4786684610007796,458.77797380300035,None,458.77797380300035,None,458.77797380300035,None,460.310374097,None,460.310374097,None,460.310374097,None,460.310374097,None,,,,,,,,,,,,,,,,,,,,,,,,,,,,,,,,,,,,,,,,,,,,001,71,2020_Feb_04_1538,spring_faces,3.1.5,59.94156297058266,
condition files/Stage1_1.xlsx,,T3,B4,c,"['c', 'm']","['Clue', 'Monopoly']","[-0.15, 0.5]","[0.15, 0.5]",1,1,,,,,,,,,0,2,2,2,0,7,7,5,,,,,,,,,,,,,,,,,,,,,,,,,,,,,,,,,,,,,,,,,,,,,,,,,,,,,,,462.2771788329992,None,462.2771788329992,None,462.2771788329992,None,c,1,0.7023963070023456,463.8102498529988,None,463.8102498529988,None,463.8102498529988,None,464.578518893999,None,464.578518893999,None,464.578518893999,None,464.578518893999,None,,,,,,,,,,,,,,,,,,,,,,,,,,,,,,,,,,,,,,,,,,,,001,71,2020_Feb_04_1538,spring_faces,3.1.5,59.94156297058266,
condition files/Stage1_2.xlsx,,B2,T2,m,"['c', 'm']","['Clue', 'Monopoly']","[-0.15, 0.5]","[0.15, 0.5]",1,1,,,,,,,,,0,3,3,3,0,0,0,3,,,,,,,,,,,,,,,,,,,,,,,,,,,,,,,,,,,,,,,,,,,,,,,,,,,,,,,466.56045755099694,None,466.56045755099694,None,466.56045755099694,None,c,0,1.1691820480009483,468.09547715199733,None,468.09547715199733,None,468.09547715199733,None,469.3272152859972,None,469.3272152859972,None,469.3272152859972,None,469.3272152859972,None,,,,,,,,,,,,,,,,,,,,,,,,,,,,,,,,,,,,,,,,,,,,001,71,2020_Feb_04_1538,spring_faces,3.1.5,59.94156297058266,
condition files/Stage1_2.xlsx,,B1,T1,c,"['c', 'm']","['Clue', 'Monopoly']","[-0.15, 0.5]","[0.15, 0.5]",1,1,,,,,,,,,0,3,3,3,0,1,1,0,,,,,,,,,,,,,,,,,,,,,,,,,,,,,,,,,,,,,,,,,,,,,,,,,,,,,,,471.2938155619995,None,471.2938155619995,None,471.2938155619995,None,c,1,2.325788982998347,472.8269240189984,None,472.8269240189984,None,472.8269240189984,None,475.2110135119983,None,475.2110135119983,None,475.2110135119983,None,475.2110135119983,None,,,,,,,,,,,,,,,,,,,,,,,,,,,,,,,,,,,,,,,,,,,,001,71,2020_Feb_04_1538,spring_faces,3.1.5,59.94156297058266,
condition files/Stage1_2.xlsx,,T4,B4,m,"['c', 'm']","['Clue', 'Monopoly']","[-0.15, 0.5]","[0.15, 0.5]",1,1,,,,,,,,,0,3,3,3,0,2,2,7,,,,,,,,,,,,,,,,,,,,,,,,,,,,,,,,,,,,,,,,,,,,,,,,,,,,,,,477.17725015599717,None,477.17725015599717,None,477.17725015599717,None,m,1,0.6800172520015622,478.71261871000024,None,478.71261871000024,None,478.71261871000024,None,479.44692333799685,None,479.44692333799685,None,479.44692333799685,None,479.44692333799685,None,,,,,,,,,,,,,,,,,,,,,,,,,,,,,,,,,,,,,,,,,,,,001,71,2020_Feb_04_1538,spring_faces,3.1.5,59.94156297058266,
condition files/Stage1_2.xlsx,,T1,B2,m,"['c', 'm']","['Clue', 'Monopoly']","[-0.15, 0.5]","[0.15, 0.5]",1,1,,,,,,,,,0,3,3,3,0,3,3,2,,,,,,,,,,,,,,,,,,,,,,,,,,,,,,,,,,,,,,,,,,,,,,,,,,,,,,,481.41066839199993,None,481.41066839199993,None,481.41066839199993,None,m,1,1.248328367000795,482.94431037899994,None,482.94431037899994,None,482.94431037899994,None,484.2441052159993,None,484.2441052159993,None,484.2441052159993,None,484.2441052159993,None,,,,,,,,,,,,,,,,,,,,,,,,,,,,,,,,,,,,,,,,,,,,001,71,2020_Feb_04_1538,spring_faces,3.1.5,59.94156297058266,
condition files/Stage1_2.xlsx,,B3,T4,m,"['c', 'm']","['Clue', 'Monopoly']","[-0.15, 0.5]","[0.15, 0.5]",1,1,,,,,,,,,0,3,3,3,0,4,4,6,,,,,,,,,,,,,,,,,,,,,,,,,,,,,,,,,,,,,,,,,,,,,,,,,,,,,,,486.21024659499744,None,486.21024659499744,None,486.21024659499744,None,m,1,0.7674838490020193,487.7451252389983,None,487.7451252389983,None,487.7451252389983,None,488.5776093989989,None,488.5776093989989,None,488.5776093989989,None,488.5776093989989,None,,,,,,,,,,,,,,,,,,,,,,,,,,,,,,,,,,,,,,,,,,,,001,71,2020_Feb_04_1538,spring_faces,3.1.5,59.94156297058266,
condition files/Stage1_2.xlsx,,T3,B3,c,"['c', 'm']","['Clue', 'Monopoly']","[-0.15, 0.5]","[0.15, 0.5]",1,1,,,,,,,,,0,3,3,3,0,5,5,4,,,,,,,,,,,,,,,,,,,,,,,,,,,,,,,,,,,,,,,,,,,,,,,,,,,,,,,490.54355669699726,None,490.54355669699726,None,490.54355669699726,None,c,1,1.5057655029995658,492.07894361799845,None,492.07894361799845,None,492.07894361799845,None,493.6602334449999,None,493.6602334449999,None,493.6602334449999,None,493.6602334449999,None,,,,,,,,,,,,,,,,,,,,,,,,,,,,,,,,,,,,,,,,,,,,001,71,2020_Feb_04_1538,spring_faces,3.1.5,59.94156297058266,
condition files/Stage1_2.xlsx,,B4,T3,c,"['c', 'm']","['Clue', 'Monopoly']","[-0.15, 0.5]","[0.15, 0.5]",1,1,,,,,,,,,0,3,3,3,0,6,6,5,,,,,,,,,,,,,,,,,,,,,,,,,,,,,,,,,,,,,,,,,,,,,,,,,,,,,,,495.60982521599726,None,495.60982521599726,None,495.60982521599726,None,c,1,0.9043281400008709,497.1443195489992,None,497.1443195489992,None,497.1443195489992,None,498.11072119899836,None,498.11072119899836,None,498.11072119899836,None,498.11072119899836,None,,,,,,,,,,,,,,,,,,,,,,,,,,,,,,,,,,,,,,,,,,,,001,71,2020_Feb_04_1538,spring_faces,3.1.5,59.94156297058266,
condition files/Stage1_2.xlsx,,T2,B1,c,"['c', 'm']","['Clue', 'Monopoly']","[-0.15, 0.5]","[0.15, 0.5]",1,1,,,,,,,,,0,3,3,3,0,7,7,1,,,,,,,,,,,,,,,,,,,,,,,,,,,,,,,,,,,,,,,,,,,,,,,,,,,,,,,500.0771313439982,None,500.0771313439982,None,500.0771313439982,None,m,0,1.7967700379995222,501.6118684739995,None,501.6118684739995,None,501.6118684739995,None,503.4603849039995,None,503.4603849039995,None,503.4603849039995,None,503.4603849039995,None,,,,,,,,,,,,,,,,,,,,,,,,,,,,,,,,,,,,,,,,,,,,001,71,2020_Feb_04_1538,spring_faces,3.1.5,59.94156297058266,
condition files/Stage1_1.xlsx,,B4,T4,m,"['c', 'm']","['Clue', 'Monopoly']","[-0.15, 0.5]","[0.15, 0.5]",1,1,,,,,,,,,0,4,4,4,0,0,0,7,,,,,,,,,,,,,,,,,,,,,,,,,,,,,,,,,,,,,,,,,,,,,,,,,,,,,,,505.44402874799925,None,505.44402874799925,None,505.44402874799925,None,m,1,0.989194176003366,506.97951434999777,None,506.97951434999777,None,506.97951434999777,None,508.0433977069988,None,508.0433977069988,None,508.0433977069988,None,508.0433977069988,None,,,,,,,,,,,,,,,,,,,,,,,,,,,,,,,,,,,,,,,,,,,,001,71,2020_Feb_04_1538,spring_faces,3.1.5,59.94156297058266,
condition files/Stage1_1.xlsx,,T4,B3,m,"['c', 'm']","['Clue', 'Monopoly']","[-0.15, 0.5]","[0.15, 0.5]",1,1,,,,,,,,,0,4,4,4,0,1,1,6,,,,,,,,,,,,,,,,,,,,,,,,,,,,,,,,,,,,,,,,,,,,,,,,,,,,,,,509.9938234399997,None,509.9938234399997,None,509.9938234399997,None,m,1,0.6326722960002371,511.5439553119977,None,511.5439553119977,None,511.5439553119977,None,512.2274551089977,None,512.2274551089977,None,512.2274551089977,None,512.2274551089977,None,,,,,,,,,,,,,,,,,,,,,,,,,,,,,,,,,,,,,,,,,,,,001,71,2020_Feb_04_1538,spring_faces,3.1.5,59.94156297058266,
condition files/Stage1_1.xlsx,,B2,T1,m,"['c', 'm']","['Clue', 'Monopoly']","[-0.15, 0.5]","[0.15, 0.5]",1,1,,,,,,,,,0,4,4,4,0,2,2,2,,,,,,,,,,,,,,,,,,,,,,,,,,,,,,,,,,,,,,,,,,,,,,,,,,,,,,,514.1935609519969,None,514.1935609519969,None,514.1935609519969,None,m,1,2.929816623000079,515.7268108319986,None,515.7268108319986,None,515.7268108319986,None,518.7103424139968,None,518.7103424139968,None,518.7103424139968,None,518.7103424139968,None,,,,,,,,,,,,,,,,,,,,,,,,,,,,,,,,,,,,,,,,,,,,001,71,2020_Feb_04_1538,spring_faces,3.1.5,59.94156297058266,
condition files/Stage1_1.xlsx,,T2,B2,m,"['c', 'm']","['Clue', 'Monopoly']","[-0.15, 0.5]","[0.15, 0.5]",1,1,,,,,,,,,0,4,4,4,0,3,3,3,,,,,,,,,,,,,,,,,,,,,,,,,,,,,,,,,,,,,,,,,,,,,,,,,,,,,,,520.6776000619975,None,520.6776000619975,None,520.6776000619975,None,c,0,1.3581959410003037,522.2105054249987,None,522.2105054249987,None,522.2105054249987,None,523.6274221639978,None,523.6274221639978,None,523.6274221639978,None,523.6274221639978,None,,,,,,,,,,,,,,,,,,,,,,,,,,,,,,,,,,,,,,,,,,,,001,71,2020_Feb_04_1538,spring_faces,3.1.5,59.94156297058266,
condition files/Stage1_1.xlsx,,T3,B4,c,"['c', 'm']","['Clue', 'Monopoly']","[-0.15, 0.5]","[0.15, 0.5]",1,1,,,,,,,,,0,4,4,4,0,4,4,5,,,,,,,,,,,,,,,,,,,,,,,,,,,,,,,,,,,,,,,,,,,,,,,,,,,,,,,525.5938306360003,None,525.5938306360003,None,525.5938306360003,None,c,1,0.7935018909993232,527.1271927629969,None,527.1271927629969,None,527.1271927629969,None,527.9800992079981,None,527.9800992079981,None,527.9800992079981,None,527.9800992079981,None,,,,,,,,,,,,,,,,,,,,,,,,,,,,,,,,,,,,,,,,,,,,001,71,2020_Feb_04_1538,spring_faces,3.1.5,59.94156297058266,
condition files/Stage1_1.xlsx,,B1,T2,c,"['c', 'm']","['Clue', 'Monopoly']","[-0.15, 0.5]","[0.15, 0.5]",1,1,,,,,,,,,0,4,4,4,0,5,5,1,,,,,,,,,,,,,,,,,,,,,,,,,,,,,,,,,,,,,,,,,,,,,,,,,,,,,,,529.9438319179972,None,529.9438319179972,None,529.9438319179972,None,m,0,1.9151519769984588,531.4774888769971,None,531.4774888769971,None,531.4774888769971,None,533.4442944189977,None,533.4442944189977,None,533.4442944189977,None,533.4442944189977,None,,,,,,,,,,,,,,,,,,,,,,,,,,,,,,,,,,,,,,,,,,,,001,71,2020_Feb_04_1538,spring_faces,3.1.5,59.94156297058266,
condition files/Stage1_1.xlsx,,B3,T3,c,"['c', 'm']","['Clue', 'Monopoly']","[-0.15, 0.5]","[0.15, 0.5]",1,1,,,,,,,,,0,4,4,4,0,6,6,4,,,,,,,,,,,,,,,,,,,,,,,,,,,,,,,,,,,,,,,,,,,,,,,,,,,,,,,535.4106597719983,None,535.4106597719983,None,535.4106597719983,None,c,1,1.4088991360004002,536.9438176809999,None,536.9438176809999,None,536.9438176809999,None,538.4105387659984,None,538.4105387659984,None,538.4105387659984,None,538.4105387659984,None,,,,,,,,,,,,,,,,,,,,,,,,,,,,,,,,,,,,,,,,,,,,001,71,2020_Feb_04_1538,spring_faces,3.1.5,59.94156297058266,
condition files/Stage1_1.xlsx,,T1,B1,c,"['c', 'm']","['Clue', 'Monopoly']","[-0.15, 0.5]","[0.15, 0.5]",1,1,,,,,,,,,0,4,4,4,0,7,7,0,,,,,,,,,,,,,,,,,,,,,,,,,,,,,,,,,,,,,,,,,,,,,,,,,,,,,,,540.3771603899986,None,540.3771603899986,None,540.3771603899986,None,m,0,1.5918268390014418,541.9128901059994,None,541.9128901059994,None,541.9128901059994,None,543.5609168649971,None,543.5609168649971,None,543.5609168649971,None,543.5609168649971,None,,,,,,,,,,,,,,,,,,,,,,,,,,,,,,,,,,,,,,,,,,,,001,71,2020_Feb_04_1538,spring_faces,3.1.5,59.94156297058266,
condition files/Stage1_2.xlsx,,B1,T1,c,"['c', 'm']","['Clue', 'Monopoly']","[-0.15, 0.5]","[0.15, 0.5]",1,1,,,,,,,,,0,5,5,5,0,0,0,0,,,,,,,,,,,,,,,,,,,,,,,,,,,,,,,,,,,,,,,,,,,,,,,,,,,,,,,545.5438446499975,None,545.5438446499975,None,545.5438446499975,None,m,0,1.402881793997949,547.0777815449983,None,547.0777815449983,None,547.0777815449983,None,548.5440088670002,None,548.5440088670002,None,548.5440088670002,None,548.5440088670002,None,,,,,,,,,,,,,,,,,,,,,,,,,,,,,,,,,,,,,,,,,,,,001,71,2020_Feb_04_1538,spring_faces,3.1.5,59.94156297058266,
condition files/Stage1_2.xlsx,,T1,B2,m,"['c', 'm']","['Clue', 'Monopoly']","[-0.15, 0.5]","[0.15, 0.5]",1,1,,,,,,,,,0,5,5,5,0,1,1,2,,,,,,,,,,,,,,,,,,,,,,,,,,,,,,,,,,,,,,,,,,,,,,,,,,,,,,,550.5103564229976,None,550.5103564229976,None,550.5103564229976,None,m,1,1.3008398819983995,552.043769388998,None,552.043769388998,None,552.043769388998,None,553.4099618399996,None,553.4099618399996,None,553.4099618399996,None,553.4099618399996,None,,,,,,,,,,,,,,,,,,,,,,,,,,,,,,,,,,,,,,,,,,,,001,71,2020_Feb_04_1538,spring_faces,3.1.5,59.94156297058266,
condition files/Stage1_2.xlsx,,T3,B3,c,"['c', 'm']","['Clue', 'Monopoly']","[-0.15, 0.5]","[0.15, 0.5]",1,1,,,,,,,,,0,5,5,5,0,2,2,4,,,,,,,,,,,,,,,,,,,,,,,,,,,,,,,,,,,,,,,,,,,,,,,,,,,,,,,555.3766820059973,None,555.3766820059973,None,555.3766820059973,None,c,1,0.7704697449989908,556.9101754609983,None,556.9101754609983,None,556.9101754609983,None,557.7466704090002,None,557.7466704090002,None,557.7466704090002,None,557.7466704090002,None,,,,,,,,,,,,,,,,,,,,,,,,,,,,,,,,,,,,,,,,,,,,001,71,2020_Feb_04_1538,spring_faces,3.1.5,59.94156297058266,
condition files/Stage1_2.xlsx,,T2,B1,c,"['c', 'm']","['Clue', 'Monopoly']","[-0.15, 0.5]","[0.15, 0.5]",1,1,,,,,,,,,0,5,5,5,0,3,3,1,,,,,,,,,,,,,,,,,,,,,,,,,,,,,,,,,,,,,,,,,,,,,,,,,,,,,,,559.7106609589973,None,559.7106609589973,None,559.7106609589973,None,c,1,1.1254899140003545,561.2432207069978,None,561.2432207069978,None,561.2432207069978,None,562.4273846269971,None,562.4273846269971,None,562.4273846269971,None,562.4273846269971,None,,,,,,,,,,,,,,,,,,,,,,,,,,,,,,,,,,,,,,,,,,,,001,71,2020_Feb_04_1538,spring_faces,3.1.5,59.94156297058266,
condition files/Stage1_2.xlsx,,B4,T3,c,"['c', 'm']","['Clue', 'Monopoly']","[-0.15, 0.5]","[0.15, 0.5]",1,1,,,,,,,,,0,5,5,5,0,4,4,5,,,,,,,,,,,,,,,,,,,,,,,,,,,,,,,,,,,,,,,,,,,,,,,,,,,,,,,564.3940709239978,None,564.3940709239978,None,564.3940709239978,None,c,1,1.1117749590011954,565.9289865389983,None,565.9289865389983,None,565.9289865389983,None,567.0941314779993,None,567.0941314779993,None,567.0941314779993,None,567.0941314779993,None,,,,,,,,,,,,,,,,,,,,,,,,,,,,,,,,,,,,,,,,,,,,001,71,2020_Feb_04_1538,spring_faces,3.1.5,59.94156297058266,
condition files/Stage1_2.xlsx,,T4,B4,m,"['c', 'm']","['Clue', 'Monopoly']","[-0.15, 0.5]","[0.15, 0.5]",1,1,,,,,,,,,0,5,5,5,0,5,5,7,,,,,,,,,,,,,,,,,,,,,,,,,,,,,,,,,,,,,,,,,,,,,,,,,,,,,,,569.0598290969974,None,569.0598290969974,None,569.0598290969974,None,m,1,0.44679066499884357,570.5939036769996,None,570.5939036769996,None,570.5939036769996,None,571.0942325409997,None,571.0942325409997,None,571.0942325409997,None,571.0942325409997,None,,,,,,,,,,,,,,,,,,,,,,,,,,,,,,,,,,,,,,,,,,,,001,71,2020_Feb_04_1538,spring_faces,3.1.5,59.94156297058266,
condition files/Stage1_2.xlsx,,B2,T2,m,"['c', 'm']","['Clue', 'Monopoly']","[-0.15, 0.5]","[0.15, 0.5]",1,1,,,,,,,,,0,5,5,5,0,6,6,3,,,,,,,,,,,,,,,,,,,,,,,,,,,,,,,,,,,,,,,,,,,,,,,,,,,,,,,573.0604899369973,None,573.0604899369973,None,573.0604899369973,None,c,0,0.7028343780002615,574.5938207990002,None,574.5938207990002,None,574.5938207990002,None,575.3602055899973,None,575.3602055899973,None,575.3602055899973,None,575.3602055899973,None,,,,,,,,,,,,,,,,,,,,,,,,,,,,,,,,,,,,,,,,,,,,001,71,2020_Feb_04_1538,spring_faces,3.1.5,59.94156297058266,
condition files/Stage1_2.xlsx,,B3,T4,m,"['c', 'm']","['Clue', 'Monopoly']","[-0.15, 0.5]","[0.15, 0.5]",1,1,,,,,,,,,0,5,5,5,0,7,7,6,,,,,,,,,,,,,,,,,,,,,,,,,,,,,,,,,,,,,,,,,,,,,,,,,,,,,,,577.3271260660003,None,577.3271260660003,None,577.3271260660003,None,m,1,0.5962698879993695,578.8603781149977,None,578.8603781149977,None,578.8603781149977,None,579.5107904670003,None,579.5107904670003,None,579.5107904670003,None,579.5107904670003,None,,,,,,,,,,,,,,,,,,,,,,,,,,,,,,,,,,,,,,,,,,,,001,71,2020_Feb_04_1538,spring_faces,3.1.5,59.94156297058266,
condition files/Stage1_1.xlsx,,T4,B3,m,"['c', 'm']","['Clue', 'Monopoly']","[-0.15, 0.5]","[0.15, 0.5]",1,1,,,,,,,,,0,6,6,6,0,0,0,6,,,,,,,,,,,,,,,,,,,,,,,,,,,,,,,,,,,,,,,,,,,,,,,,,,,,,,,581.4936574549974,None,581.4936574549974,None,581.4936574549974,None,m,1,0.6032379729986133,583.0294186270003,None,583.0294186270003,None,583.0294186270003,None,583.6940760519974,None,583.6940760519974,None,583.6940760519974,None,583.6940760519974,None,,,,,,,,,,,,,,,,,,,,,,,,,,,,,,,,,,,,,,,,,,,,001,71,2020_Feb_04_1538,spring_faces,3.1.5,59.94156297058266,
condition files/Stage1_1.xlsx,,T1,B1,c,"['c', 'm']","['Clue', 'Monopoly']","[-0.15, 0.5]","[0.15, 0.5]",1,1,,,,,,,,,0,6,6,6,0,1,1,0,,,,,,,,,,,,,,,,,,,,,,,,,,,,,,,,,,,,,,,,,,,,,,,,,,,,,,,585.6606451569969,None,585.6606451569969,None,585.6606451569969,None,m,0,1.2536136070011707,587.1950480189989,None,587.1950480189989,None,587.1950480189989,None,588.5127402750004,None,588.5127402750004,None,588.5127402750004,None,588.5127402750004,None,,,,,,,,,,,,,,,,,,,,,,,,,,,,,,,,,,,,,,,,,,,,001,71,2020_Feb_04_1538,spring_faces,3.1.5,59.94156297058266,
condition files/Stage1_1.xlsx,,B1,T2,c,"['c', 'm']","['Clue', 'Monopoly']","[-0.15, 0.5]","[0.15, 0.5]",1,1,,,,,,,,,0,6,6,6,0,2,2,1,,,,,,,,,,,,,,,,,,,,,,,,,,,,,,,,,,,,,,,,,,,,,,,,,,,,,,,590.4770232070005,None,590.4770232070005,None,590.4770232070005,None,c,1,2.0219891060005466,592.0106288549978,None,592.0106288549978,None,592.0106288549978,None,594.0939212159974,None,594.0939212159974,None,594.0939212159974,None,594.0939212159974,None,,,,,,,,,,,,,,,,,,,,,,,,,,,,,,,,,,,,,,,,,,,,001,71,2020_Feb_04_1538,spring_faces,3.1.5,59.94156297058266,
condition files/Stage1_1.xlsx,,T3,B4,c,"['c', 'm']","['Clue', 'Monopoly']","[-0.15, 0.5]","[0.15, 0.5]",1,1,,,,,,,,,0,6,6,6,0,3,3,5,,,,,,,,,,,,,,,,,,,,,,,,,,,,,,,,,,,,,,,,,,,,,,,,,,,,,,,596.0603478449993,None,596.0603478449993,None,596.0603478449993,None,c,1,1.1431521229969803,597.5935718479996,None,597.5935718479996,None,597.5935718479996,None,598.7944669959979,None,598.7944669959979,None,598.7944669959979,None,598.7944669959979,None,,,,,,,,,,,,,,,,,,,,,,,,,,,,,,,,,,,,,,,,,,,,001,71,2020_Feb_04_1538,spring_faces,3.1.5,59.94156297058266,
condition files/Stage1_1.xlsx,,B4,T4,m,"['c', 'm']","['Clue', 'Monopoly']","[-0.15, 0.5]","[0.15, 0.5]",1,1,,,,,,,,,0,6,6,6,0,4,4,7,,,,,,,,,,,,,,,,,,,,,,,,,,,,,,,,,,,,,,,,,,,,,,,,,,,,,,,600.7599432009993,None,600.7599432009993,None,600.7599432009993,None,m,1,0.6016143859997101,602.2950442259971,None,602.2950442259971,None,602.2950442259971,None,602.9624439079998,None,602.9624439079998,None,602.9624439079998,None,602.9624439079998,None,,,,,,,,,,,,,,,,,,,,,,,,,,,,,,,,,,,,,,,,,,,,001,71,2020_Feb_04_1538,spring_faces,3.1.5,59.94156297058266,
condition files/Stage1_1.xlsx,,B2,T1,m,"['c', 'm']","['Clue', 'Monopoly']","[-0.15, 0.5]","[0.15, 0.5]",1,1,,,,,,,,,0,6,6,6,0,5,5,2,,,,,,,,,,,,,,,,,,,,,,,,,,,,,,,,,,,,,,,,,,,,,,,,,,,,,,,604.9269905539986,None,604.9269905539986,None,604.9269905539986,None,m,1,1.0268786119995639,606.4617559679973,None,606.4617559679973,None,606.4617559679973,None,607.5441258639985,None,607.5441258639985,None,607.5441258639985,None,607.5441258639985,None,,,,,,,,,,,,,,,,,,,,,,,,,,,,,,,,,,,,,,,,,,,,001,71,2020_Feb_04_1538,spring_faces,3.1.5,59.94156297058266,
condition files/Stage1_1.xlsx,,T2,B2,m,"['c', 'm']","['Clue', 'Monopoly']","[-0.15, 0.5]","[0.15, 0.5]",1,1,,,,,,,,,0,6,6,6,0,6,6,3,,,,,,,,,,,,,,,,,,,,,,,,,,,,,,,,,,,,,,,,,,,,,,,,,,,,,,,609.5105972639976,None,609.5105972639976,None,609.5105972639976,None,c,0,1.7070139390016266,611.0457024930001,None,611.0457024930001,None,611.0457024930001,None,612.8107722679997,None,612.8107722679997,None,612.8107722679997,None,612.8107722679997,None,,,,,,,,,,,,,,,,,,,,,,,,,,,,,,,,,,,,,,,,,,,,001,71,2020_Feb_04_1538,spring_faces,3.1.5,59.94156297058266,
condition files/Stage1_1.xlsx,,B3,T3,c,"['c', 'm']","['Clue', 'Monopoly']","[-0.15, 0.5]","[0.15, 0.5]",1,1,,,,,,,,,0,6,6,6,0,7,7,4,,,,,,,,,,,,,,,,,,,,,,,,,,,,,,,,,,,,,,,,,,,,,,,,,,,,,,,614.7771798579997,None,614.7771798579997,None,614.7771798579997,None,c,1,1.81751184499808,616.3111057239985,None,616.3111057239985,None,616.3111057239985,None,618.1954545089975,None,618.1954545089975,None,618.1954545089975,None,618.1954545089975,None,,,,,,,,,,,,,,,,,,,,,,,,,,,,,,,,,,,,,,,,,,,,001,71,2020_Feb_04_1538,spring_faces,3.1.5,59.94156297058266,
condition files/Stage1_2.xlsx,,T3,B3,c,"['c', 'm']","['Clue', 'Monopoly']","[-0.15, 0.5]","[0.15, 0.5]",1,1,,,,,,,,,0,7,7,7,0,0,0,4,,,,,,,,,,,,,,,,,,,,,,,,,,,,,,,,,,,,,,,,,,,,,,,,,,,,,,,620.1769352449992,None,620.1769352449992,None,620.1769352449992,None,c,1,1.6330544199990982,621.7275376839971,None,621.7275376839971,None,621.7275376839971,None,623.4105984729977,None,623.4105984729977,None,623.4105984729977,None,623.4105984729977,None,,,,,,,,,,,,,,,,,,,,,,,,,,,,,,,,,,,,,,,,,,,,001,71,2020_Feb_04_1538,spring_faces,3.1.5,59.94156297058266,
condition files/Stage1_2.xlsx,,B4,T3,c,"['c', 'm']","['Clue', 'Monopoly']","[-0.15, 0.5]","[0.15, 0.5]",1,1,,,,,,,,,0,7,7,7,0,1,1,5,,,,,,,,,,,,,,,,,,,,,,,,,,,,,,,,,,,,,,,,,,,,,,,,,,,,,,,625.3772840569982,None,625.3772840569982,None,625.3772840569982,None,c,1,0.8505347829996026,626.910111661,None,626.910111661,None,626.910111661,None,627.8101534119996,None,627.8101534119996,None,627.8101534119996,None,627.8101534119996,None,,,,,,,,,,,,,,,,,,,,,,,,,,,,,,,,,,,,,,,,,,,,001,71,2020_Feb_04_1538,spring_faces,3.1.5,59.94156297058266,
condition files/Stage1_2.xlsx,,T4,B4,m,"['c', 'm']","['Clue', 'Monopoly']","[-0.15, 0.5]","[0.15, 0.5]",1,1,,,,,,,,,0,7,7,7,0,2,2,7,,,,,,,,,,,,,,,,,,,,,,,,,,,,,,,,,,,,,,,,,,,,,,,,,,,,,,,629.7772141040004,None,629.7772141040004,None,629.7772141040004,None,m,1,0.8804455290010083,631.3121858729974,None,631.3121858729974,None,631.3121858729974,None,632.2450203709996,None,632.2450203709996,None,632.2450203709996,None,632.2450203709996,None,,,,,,,,,,,,,,,,,,,,,,,,,,,,,,,,,,,,,,,,,,,,001,71,2020_Feb_04_1538,spring_faces,3.1.5,59.94156297058266,
condition files/Stage1_2.xlsx,,B2,T2,m,"['c', 'm']","['Clue', 'Monopoly']","[-0.15, 0.5]","[0.15, 0.5]",1,1,,,,,,,,,0,7,7,7,0,3,3,3,,,,,,,,,,,,,,,,,,,,,,,,,,,,,,,,,,,,,,,,,,,,,,,,,,,,,,,634.2099925729999,None,634.2099925729999,None,634.2099925729999,None,m,1,2.12844731199948,635.7442333289982,None,635.7442333289982,None,635.7442333289982,None,637.9269518389992,None,637.9269518389992,None,637.9269518389992,None,637.9269518389992,None,,,,,,,,,,,,,,,,,,,,,,,,,,,,,,,,,,,,,,,,,,,,001,71,2020_Feb_04_1538,spring_faces,3.1.5,59.94156297058266,
condition files/Stage1_2.xlsx,,B3,T4,m,"['c', 'm']","['Clue', 'Monopoly']","[-0.15, 0.5]","[0.15, 0.5]",1,1,,,,,,,,,0,7,7,7,0,4,4,6,,,,,,,,,,,,,,,,,,,,,,,,,,,,,,,,,,,,,,,,,,,,,,,,,,,,,,,639.8938461479993,None,639.8938461479993,None,639.8938461479993,None,m,1,1.1165804840020428,641.4440552919987,None,641.4440552919987,None,641.4440552919987,None,642.6110722550002,None,642.6110722550002,None,642.6110722550002,None,642.6110722550002,None,,,,,,,,,,,,,,,,,,,,,,,,,,,,,,,,,,,,,,,,,,,,001,71,2020_Feb_04_1538,spring_faces,3.1.5,59.94156297058266,
condition files/Stage1_2.xlsx,,T2,B1,c,"['c', 'm']","['Clue', 'Monopoly']","[-0.15, 0.5]","[0.15, 0.5]",1,1,,,,,,,,,0,7,7,7,0,5,5,1,,,,,,,,,,,,,,,,,,,,,,,,,,,,,,,,,,,,,,,,,,,,,,,,,,,,,,,644.5765514529994,None,644.5765514529994,None,644.5765514529994,None,c,1,2.1943558040002245,646.1103548069987,None,646.1103548069987,None,646.1103548069987,None,648.3607517429991,None,648.3607517429991,None,648.3607517429991,None,648.3607517429991,None,,,,,,,,,,,,,,,,,,,,,,,,,,,,,,,,,,,,,,,,,,,,001,71,2020_Feb_04_1538,spring_faces,3.1.5,59.94156297058266,
condition files/Stage1_2.xlsx,,B1,T1,c,"['c', 'm']","['Clue', 'Monopoly']","[-0.15, 0.5]","[0.15, 0.5]",1,1,,,,,,,,,0,7,7,7,0,6,6,0,,,,,,,,,,,,,,,,,,,,,,,,,,,,,,,,,,,,,,,,,,,,,,,,,,,,,,,650.3271991589972,None,650.3271991589972,None,650.3271991589972,None,m,0,1.6903436350003176,651.8623712539993,None,651.8623712539993,None,651.8623712539993,None,653.6109775349978,None,653.6109775349978,None,653.6109775349978,None,653.6109775349978,None,,,,,,,,,,,,,,,,,,,,,,,,,,,,,,,,,,,,,,,,,,,,001,71,2020_Feb_04_1538,spring_faces,3.1.5,59.94156297058266,
condition files/Stage1_2.xlsx,,T1,B2,m,"['c', 'm']","['Clue', 'Monopoly']","[-0.15, 0.5]","[0.15, 0.5]",1,1,,,,,,,,,0,7,7,7,0,7,7,2,,,,,,,,,,,,,,,,,,,,,,,,,,,,,,,,,,,,,,,,,,,,,,,,,,,,,,,655.5774169039978,None,655.5774169039978,None,655.5774169039978,None,m,1,1.6398249289995874,657.1129000779983,None,657.1129000779983,None,657.1129000779983,None,658.8273197499984,None,658.8273197499984,None,658.8273197499984,None,658.8273197499984,None,,,,,,,,,,,,,,,,,,,,,,,,,,,,,,,,,,,,,,,,,,,,001,71,2020_Feb_04_1538,spring_faces,3.1.5,59.94156297058266,
condition files/Stage1_1.xlsx,,B4,T4,m,"['c', 'm']","['Clue', 'Monopoly']","[-0.15, 0.5]","[0.15, 0.5]",1,1,,,,,,,,,0,8,8,8,0,0,0,7,,,,,,,,,,,,,,,,,,,,,,,,,,,,,,,,,,,,,,,,,,,,,,,,,,,,,,,660.7939074749993,None,660.7939074749993,None,660.7939074749993,None,m,1,0.8413353809992259,662.3273693369993,None,662.3273693369993,None,662.3273693369993,None,663.2267405979983,None,663.2267405979983,None,663.2267405979983,None,663.2267405979983,None,,,,,,,,,,,,,,,,,,,,,,,,,,,,,,,,,,,,,,,,,,,,001,71,2020_Feb_04_1538,spring_faces,3.1.5,59.94156297058266,
condition files/Stage1_1.xlsx,,T3,B4,c,"['c', 'm']","['Clue', 'Monopoly']","[-0.15, 0.5]","[0.15, 0.5]",1,1,,,,,,,,,0,8,8,8,0,1,1,5,,,,,,,,,,,,,,,,,,,,,,,,,,,,,,,,,,,,,,,,,,,,,,,,,,,,,,,665.1937762999987,None,665.1937762999987,None,665.1937762999987,None,c,1,1.3216785690019606,666.7269743069992,None,666.7269743069992,None,666.7269743069992,None,668.1111760959975,None,668.1111760959975,None,668.1111760959975,None,668.1111760959975,None,,,,,,,,,,,,,,,,,,,,,,,,,,,,,,,,,,,,,,,,,,,,001,71,2020_Feb_04_1538,spring_faces,3.1.5,59.94156297058266,
condition files/Stage1_1.xlsx,,T4,B3,m,"['c', 'm']","['Clue', 'Monopoly']","[-0.15, 0.5]","[0.15, 0.5]",1,1,,,,,,,,,0,8,8,8,0,2,2,6,,,,,,,,,,,,,,,,,,,,,,,,,,,,,,,,,,,,,,,,,,,,,,,,,,,,,,,670.0769526570002,None,670.0769526570002,None,670.0769526570002,None,m,1,2.7576265130010142,671.6110865269984,None,671.6110865269984,None,671.6110865269984,None,674.4444935409992,None,674.4444935409992,None,674.4444935409992,None,674.4444935409992,None,,,,,,,,,,,,,,,,,,,,,,,,,,,,,,,,,,,,,,,,,,,,001,71,2020_Feb_04_1538,spring_faces,3.1.5,59.94156297058266,
condition files/Stage1_1.xlsx,,B1,T2,c,"['c', 'm']","['Clue', 'Monopoly']","[-0.15, 0.5]","[0.15, 0.5]",1,1,,,,,,,,,0,8,8,8,0,3,3,1,,,,,,,,,,,,,,,,,,,,,,,,,,,,,,,,,,,,,,,,,,,,,,,,,,,,,,,676.393877536997,None,676.393877536997,None,676.393877536997,None,c,1,1.8631579459979548,677.9294856479974,None,677.9294856479974,None,677.9294856479974,None,679.8440733639982,None,679.8440733639982,None,679.8440733639982,None,679.8440733639982,None,,,,,,,,,,,,,,,,,,,,,,,,,,,,,,,,,,,,,,,,,,,,001,71,2020_Feb_04_1538,spring_faces,3.1.5,59.94156297058266,
condition files/Stage1_1.xlsx,,B2,T1,m,"['c', 'm']","['Clue', 'Monopoly']","[-0.15, 0.5]","[0.15, 0.5]",1,1,,,,,,,,,0,8,8,8,0,4,4,2,,,,,,,,,,,,,,,,,,,,,,,,,,,,,,,,,,,,,,,,,,,,,,,,,,,,,,,681.810506308997,None,681.810506308997,None,681.810506308997,None,m,1,1.1522364680022292,683.344417379998,None,683.344417379998,None,683.344417379998,None,684.5602680640004,None,684.5602680640004,None,684.5602680640004,None,684.5602680640004,None,,,,,,,,,,,,,,,,,,,,,,,,,,,,,,,,,,,,,,,,,,,,001,71,2020_Feb_04_1538,spring_faces,3.1.5,59.94156297058266,
condition files/Stage1_1.xlsx,,T2,B2,m,"['c', 'm']","['Clue', 'Monopoly']","[-0.15, 0.5]","[0.15, 0.5]",1,1,,,,,,,,,0,8,8,8,0,5,5,3,,,,,,,,,,,,,,,,,,,,,,,,,,,,,,,,,,,,,,,,,,,,,,,,,,,,,,,686.5269453189976,None,686.5269453189976,None,686.5269453189976,None,m,1,1.2196060650021536,688.0610284359973,None,688.0610284359973,None,688.0610284359973,None,689.344096042998,None,689.344096042998,None,689.344096042998,None,689.344096042998,None,,,,,,,,,,,,,,,,,,,,,,,,,,,,,,,,,,,,,,,,,,,,001,71,2020_Feb_04_1538,spring_faces,3.1.5,59.94156297058266,
condition files/Stage1_1.xlsx,,T1,B1,c,"['c', 'm']","['Clue', 'Monopoly']","[-0.15, 0.5]","[0.15, 0.5]",1,1,,,,,,,,,0,8,8,8,0,6,6,0,,,,,,,,,,,,,,,,,,,,,,,,,,,,,,,,,,,,,,,,,,,,,,,,,,,,,,,691.3103980439992,None,691.3103980439992,None,691.3103980439992,None,c,1,0.8849504890022217,692.8436632079975,None,692.8436632079975,None,692.8436632079975,None,693.8106725139987,None,693.8106725139987,None,693.8106725139987,None,693.8106725139987,None,,,,,,,,,,,,,,,,,,,,,,,,,,,,,,,,,,,,,,,,,,,,001,71,2020_Feb_04_1538,spring_faces,3.1.5,59.94156297058266,
condition files/Stage1_1.xlsx,,B3,T3,c,"['c', 'm']","['Clue', 'Monopoly']","[-0.15, 0.5]","[0.15, 0.5]",1,1,,,,,,,,,0,8,8,8,0,7,7,4,,,,,,,,,,,,,,,,,,,,,,,,,,,,,,,,,,,,,,,,,,,,,,,,,,,,,,,695.7606020639978,None,695.7606020639978,None,695.7606020639978,None,c,1,1.250769169000705,697.2938366369999,None,697.2938366369999,None,697.2938366369999,None,698.6105099079978,None,698.6105099079978,None,698.6105099079978,None,698.6105099079978,None,,,,,,,,,,,,,,,,,,,,,,,,,,,,,,,,,,,,,,,,,,,,001,71,2020_Feb_04_1538,spring_faces,3.1.5,59.94156297058266,
condition files/Stage1_2.xlsx,,B3,T4,m,"['c', 'm']","['Clue', 'Monopoly']","[-0.15, 0.5]","[0.15, 0.5]",1,1,,,,,,,,,0,9,9,9,0,0,0,6,,,,,,,,,,,,,,,,,,,,,,,,,,,,,,,,,,,,,,,,,,,,,,,,,,,,,,,700.5941921919984,None,700.5941921919984,None,700.5941921919984,None,m,1,0.6570239500033495,702.1436840079987,None,702.1436840079987,None,702.1436840079987,None,702.8774288940003,None,702.8774288940003,None,702.8774288940003,None,702.8774288940003,None,,,,,,,,,,,,,,,,,,,,,,,,,,,,,,,,,,,,,,,,,,,,001,71,2020_Feb_04_1538,spring_faces,3.1.5,59.94156297058266,
condition files/Stage1_2.xlsx,,T3,B3,c,"['c', 'm']","['Clue', 'Monopoly']","[-0.15, 0.5]","[0.15, 0.5]",1,1,,,,,,,,,0,9,9,9,0,1,1,4,,,,,,,,,,,,,,,,,,,,,,,,,,,,,,,,,,,,,,,,,,,,,,,,,,,,,,,704.8272547549968,None,704.8272547549968,None,704.8272547549968,None,c,1,1.064259956998285,706.3603711789983,None,706.3603711789983,None,706.3603711789983,None,707.4802194389995,None,707.4802194389995,None,707.4802194389995,None,707.4802194389995,None,,,,,,,,,,,,,,,,,,,,,,,,,,,,,,,,,,,,,,,,,,,,001,71,2020_Feb_04_1538,spring_faces,3.1.5,59.94156297058266,
condition files/Stage1_2.xlsx,,T2,B1,c,"['c', 'm']","['Clue', 'Monopoly']","[-0.15, 0.5]","[0.15, 0.5]",1,1,,,,,,,,,0,9,9,9,0,2,2,1,,,,,,,,,,,,,,,,,,,,,,,,,,,,,,,,,,,,,,,,,,,,,,,,,,,,,,,709.4439008599984,None,709.4439008599984,None,709.4439008599984,None,c,1,1.3254209280021314,710.9792985049971,None,710.9792985049971,None,710.9792985049971,None,712.360504504999,None,712.360504504999,None,712.360504504999,None,712.360504504999,None,,,,,,,,,,,,,,,,,,,,,,,,,,,,,,,,,,,,,,,,,,,,001,71,2020_Feb_04_1538,spring_faces,3.1.5,59.94156297058266,
condition files/Stage1_2.xlsx,,T1,B2,m,"['c', 'm']","['Clue', 'Monopoly']","[-0.15, 0.5]","[0.15, 0.5]",1,1,,,,,,,,,0,9,9,9,0,3,3,2,,,,,,,,,,,,,,,,,,,,,,,,,,,,,,,,,,,,,,,,,,,,,,,,,,,,,,,714.3270912579974,None,714.3270912579974,None,714.3270912579974,None,m,1,1.1638388329993177,715.8608086049971,None,715.8608086049971,None,715.8608086049971,None,717.0789521279985,None,717.0789521279985,None,717.0789521279985,None,717.0789521279985,None,,,,,,,,,,,,,,,,,,,,,,,,,,,,,,,,,,,,,,,,,,,,001,71,2020_Feb_04_1538,spring_faces,3.1.5,59.94156297058266,
condition files/Stage1_2.xlsx,,T4,B4,m,"['c', 'm']","['Clue', 'Monopoly']","[-0.15, 0.5]","[0.15, 0.5]",1,1,,,,,,,,,0,9,9,9,0,4,4,7,,,,,,,,,,,,,,,,,,,,,,,,,,,,,,,,,,,,,,,,,,,,,,,,,,,,,,,719.0437055289985,None,719.0437055289985,None,719.0437055289985,None,m,1,1.1673734759970102,720.5772435149993,None,720.5772435149993,None,720.5772435149993,None,721.8107568209998,None,721.8107568209998,None,721.8107568209998,None,721.8107568209998,None,,,,,,,,,,,,,,,,,,,,,,,,,,,,,,,,,,,,,,,,,,,,001,71,2020_Feb_04_1538,spring_faces,3.1.5,59.94156297058266,
condition files/Stage1_2.xlsx,,B4,T3,c,"['c', 'm']","['Clue', 'Monopoly']","[-0.15, 0.5]","[0.15, 0.5]",1,1,,,,,,,,,0,9,9,9,0,5,5,5,,,,,,,,,,,,,,,,,,,,,,,,,,,,,,,,,,,,,,,,,,,,,,,,,,,,,,,723.7773044589994,None,723.7773044589994,None,723.7773044589994,None,c,1,0.9783657400002994,725.3102768850003,None,725.3102768850003,None,725.3102768850003,None,726.3452742619993,None,726.3452742619993,None,726.3452742619993,None,726.3452742619993,None,,,,,,,,,,,,,,,,,,,,,,,,,,,,,,,,,,,,,,,,,,,,001,71,2020_Feb_04_1538,spring_faces,3.1.5,59.94156297058266,
condition files/Stage1_2.xlsx,,B2,T2,m,"['c', 'm']","['Clue', 'Monopoly']","[-0.15, 0.5]","[0.15, 0.5]",1,1,,,,,,,,,0,9,9,9,0,6,6,3,,,,,,,,,,,,,,,,,,,,,,,,,,,,,,,,,,,,,,,,,,,,,,,,,,,,,,,728.3104903649983,None,728.3104903649983,None,728.3104903649983,None,m,1,1.9169218509996426,729.8436796509995,None,729.8436796509995,None,729.8436796509995,None,731.8127205860001,None,731.8127205860001,None,731.8127205860001,None,731.8127205860001,None,,,,,,,,,,,,,,,,,,,,,,,,,,,,,,,,,,,,,,,,,,,,001,71,2020_Feb_04_1538,spring_faces,3.1.5,59.94156297058266,
condition files/Stage1_2.xlsx,,B1,T1,c,"['c', 'm']","['Clue', 'Monopoly']","[-0.15, 0.5]","[0.15, 0.5]",1,1,,,,,,,,,0,9,9,9,0,7,7,0,,,,,,,,,,,,,,,,,,,,,,,,,,,,,,,,,,,,,,,,,,,,,,,,,,,,,,,733.7773456909999,None,733.7773456909999,None,733.7773456909999,None,c,1,1.2180995320013608,735.3105014760004,None,735.3105014760004,None,735.3105014760004,None,736.5933904289996,None,736.5933904289996,None,736.5933904289996,None,736.5933904289996,None,,,,,,,,,,,,,,,,,,,,,,,,,,,,,,,,,,,,,,,,,,,,001,71,2020_Feb_04_1538,spring_faces,3.1.5,59.94156297058266,
condition files/Stage1_1.xlsx,,T2,B2,m,"['c', 'm']","['Clue', 'Monopoly']","[-0.15, 0.5]","[0.15, 0.5]",1,1,,,,,,,,,0,10,10,10,0,0,0,3,,,,,,,,,,,,,,,,,,,,,,,,,,,,,,,,,,,,,,,,,,,,,,,,,,,,,,,738.5766772419993,None,738.5766772419993,None,738.5766772419993,None,m,1,2.2089752860010776,740.1117542699976,None,740.1117542699976,None,740.1117542699976,None,742.378516343997,None,742.378516343997,None,742.378516343997,None,742.378516343997,None,,,,,,,,,,,,,,,,,,,,,,,,,,,,,,,,,,,,,,,,,,,,001,71,2020_Feb_04_1538,spring_faces,3.1.5,59.94156297058266,
condition files/Stage1_1.xlsx,,B2,T1,m,"['c', 'm']","['Clue', 'Monopoly']","[-0.15, 0.5]","[0.15, 0.5]",1,1,,,,,,,,,0,10,10,10,0,1,1,2,,,,,,,,,,,,,,,,,,,,,,,,,,,,,,,,,,,,,,,,,,,,,,,,,,,,,,,744.3441790439974,None,744.3441790439974,None,744.3441790439974,None,m,1,2.2513783229987894,745.8772208399969,None,745.8772208399969,None,745.8772208399969,None,748.194091931,None,748.194091931,None,748.194091931,None,748.194091931,None,,,,,,,,,,,,,,,,,,,,,,,,,,,,,,,,,,,,,,,,,,,,001,71,2020_Feb_04_1538,spring_faces,3.1.5,59.94156297058266,
condition files/Stage1_1.xlsx,,T4,B3,m,"['c', 'm']","['Clue', 'Monopoly']","[-0.15, 0.5]","[0.15, 0.5]",1,1,,,,,,,,,0,10,10,10,0,2,2,6,,,,,,,,,,,,,,,,,,,,,,,,,,,,,,,,,,,,,,,,,,,,,,,,,,,,,,,750.1605656190004,None,750.1605656190004,None,750.1605656190004,None,m,1,1.8429298129995004,751.6937915559974,None,751.6937915559974,None,751.6937915559974,None,753.5939348309985,None,753.5939348309985,None,753.5939348309985,None,753.5939348309985,None,,,,,,,,,,,,,,,,,,,,,,,,,,,,,,,,,,,,,,,,,,,,001,71,2020_Feb_04_1538,spring_faces,3.1.5,59.94156297058266,
condition files/Stage1_1.xlsx,,T1,B1,c,"['c', 'm']","['Clue', 'Monopoly']","[-0.15, 0.5]","[0.15, 0.5]",1,1,,,,,,,,,0,10,10,10,0,3,3,0,,,,,,,,,,,,,,,,,,,,,,,,,,,,,,,,,,,,,,,,,,,,,,,,,,,,,,,755.5605130650001,None,755.5605130650001,None,755.5605130650001,None,c,1,1.3386495599988848,757.0939895099982,None,757.0939895099982,None,757.0939895099982,None,758.5109252660004,None,758.5109252660004,None,758.5109252660004,None,758.5109252660004,None,,,,,,,,,,,,,,,,,,,,,,,,,,,,,,,,,,,,,,,,,,,,001,71,2020_Feb_04_1538,spring_faces,3.1.5,59.94156297058266,
condition files/Stage1_1.xlsx,,T3,B4,c,"['c', 'm']","['Clue', 'Monopoly']","[-0.15, 0.5]","[0.15, 0.5]",1,1,,,,,,,,,0,10,10,10,0,4,4,5,,,,,,,,,,,,,,,,,,,,,,,,,,,,,,,,,,,,,,,,,,,,,,,,,,,,,,,760.4604097169977,None,760.4604097169977,None,760.4604097169977,None,c,1,1.268786552001984,761.9958734129978,None,761.9958734129978,None,761.9958734129978,None,763.3270982840004,None,763.3270982840004,None,763.3270982840004,None,763.3270982840004,None,,,,,,,,,,,,,,,,,,,,,,,,,,,,,,,,,,,,,,,,,,,,001,71,2020_Feb_04_1538,spring_faces,3.1.5,59.94156297058266,
condition files/Stage1_1.xlsx,,B3,T3,c,"['c', 'm']","['Clue', 'Monopoly']","[-0.15, 0.5]","[0.15, 0.5]",1,1,,,,,,,,,0,10,10,10,0,5,5,4,,,,,,,,,,,,,,,,,,,,,,,,,,,,,,,,,,,,,,,,,,,,,,,,,,,,,,,765.2937310479974,None,765.2937310479974,None,765.2937310479974,None,c,1,1.3173612190003041,766.827251458999,None,766.827251458999,None,766.827251458999,None,768.2100299739977,None,768.2100299739977,None,768.2100299739977,None,768.2100299739977,None,,,,,,,,,,,,,,,,,,,,,,,,,,,,,,,,,,,,,,,,,,,,001,71,2020_Feb_04_1538,spring_faces,3.1.5,59.94156297058266,
condition files/Stage1_1.xlsx,,B1,T2,c,"['c', 'm']","['Clue', 'Monopoly']","[-0.15, 0.5]","[0.15, 0.5]",1,1,,,,,,,,,0,10,10,10,0,6,6,1,,,,,,,,,,,,,,,,,,,,,,,,,,,,,,,,,,,,,,,,,,,,,,,,,,,,,,,770.1771777499998,None,770.1771777499998,None,770.1771777499998,None,c,1,3.714281658998516,771.710349601999,None,771.710349601999,None,771.710349601999,None,775.4767975089999,None,775.4767975089999,None,775.4767975089999,None,775.4767975089999,None,,,,,,,,,,,,,,,,,,,,,,,,,,,,,,,,,,,,,,,,,,,,001,71,2020_Feb_04_1538,spring_faces,3.1.5,59.94156297058266,
condition files/Stage1_1.xlsx,,B4,T4,m,"['c', 'm']","['Clue', 'Monopoly']","[-0.15, 0.5]","[0.15, 0.5]",1,1,,,,,,,,,0,10,10,10,0,7,7,7,,,,,,,,,,,,,,,,,,,,,,,,,,,,,,,,,,,,,,,,,,,,,,,,,,,,,,,777.443831665998,None,777.443831665998,None,777.443831665998,None,m,1,1.0555796840017138,778.9770094729975,None,778.9770094729975,None,778.9770094729975,None,780.1109052689972,None,780.1109052689972,None,780.1109052689972,None,780.1109052689972,None,,,,,,,,,,,,,,,,,,,,,,,,,,,,,,,,,,,,,,,,,,,,001,71,2020_Feb_04_1538,spring_faces,3.1.5,59.94156297058266,
condition files/Stage1_2.xlsx,,B3,T4,m,"['c', 'm']","['Clue', 'Monopoly']","[-0.15, 0.5]","[0.15, 0.5]",1,1,,,,,,,,,0,11,11,11,0,0,0,6,,,,,,,,,,,,,,,,,,,,,,,,,,,,,,,,,,,,,,,,,,,,,,,,,,,,,,,782.0774622559984,None,782.0774622559984,None,782.0774622559984,None,m,1,1.0776820780010894,783.6109051879976,None,783.6109051879976,None,783.6109051879976,None,784.7442686979994,None,784.7442686979994,None,784.7442686979994,None,784.7442686979994,None,,,,,,,,,,,,,,,,,,,,,,,,,,,,,,,,,,,,,,,,,,,,001,71,2020_Feb_04_1538,spring_faces,3.1.5,59.94156297058266,
condition files/Stage1_2.xlsx,,T3,B3,c,"['c', 'm']","['Clue', 'Monopoly']","[-0.15, 0.5]","[0.15, 0.5]",1,1,,,,,,,,,0,11,11,11,0,1,1,4,,,,,,,,,,,,,,,,,,,,,,,,,,,,,,,,,,,,,,,,,,,,,,,,,,,,,,,786.7105450909985,None,786.7105450909985,None,786.7105450909985,None,c,1,0.604142915999546,788.2445003559988,None,788.2445003559988,None,788.2445003559988,None,788.910006504997,None,788.910006504997,None,788.910006504997,None,788.910006504997,None,,,,,,,,,,,,,,,,,,,,,,,,,,,,,,,,,,,,,,,,,,,,001,71,2020_Feb_04_1538,spring_faces,3.1.5,59.94156297058266,
condition files/Stage1_2.xlsx,,T1,B2,m,"['c', 'm']","['Clue', 'Monopoly']","[-0.15, 0.5]","[0.15, 0.5]",1,1,,,,,,,,,0,11,11,11,0,2,2,2,,,,,,,,,,,,,,,,,,,,,,,,,,,,,,,,,,,,,,,,,,,,,,,,,,,,,,,790.877220585,None,790.877220585,None,790.877220585,None,m,1,1.1721423029994185,792.412566316998,None,792.412566316998,None,792.412566316998,None,793.6610392449984,None,793.6610392449984,None,793.6610392449984,None,793.6610392449984,None,,,,,,,,,,,,,,,,,,,,,,,,,,,,,,,,,,,,,,,,,,,,001,71,2020_Feb_04_1538,spring_faces,3.1.5,59.94156297058266,
condition files/Stage1_2.xlsx,,B4,T3,c,"['c', 'm']","['Clue', 'Monopoly']","[-0.15, 0.5]","[0.15, 0.5]",1,1,,,,,,,,,0,11,11,11,0,3,3,5,,,,,,,,,,,,,,,,,,,,,,,,,,,,,,,,,,,,,,,,,,,,,,,,,,,,,,,795.6100817279985,None,795.6100817279985,None,795.6100817279985,None,c,1,0.8390843989982386,797.145641846997,None,797.145641846997,None,797.145641846997,None,798.0436959959989,None,798.0436959959989,None,798.0436959959989,None,798.0436959959989,None,,,,,,,,,,,,,,,,,,,,,,,,,,,,,,,,,,,,,,,,,,,,001,71,2020_Feb_04_1538,spring_faces,3.1.5,59.94156297058266,
condition files/Stage1_2.xlsx,,T4,B4,m,"['c', 'm']","['Clue', 'Monopoly']","[-0.15, 0.5]","[0.15, 0.5]",1,1,,,,,,,,,0,11,11,11,0,4,4,7,,,,,,,,,,,,,,,,,,,,,,,,,,,,,,,,,,,,,,,,,,,,,,,,,,,,,,,800.0105938630004,None,800.0105938630004,None,800.0105938630004,None,m,1,0.5837691849992552,801.5448262469981,None,801.5448262469981,None,801.5448262469981,None,802.1942064989998,None,802.1942064989998,None,802.1942064989998,None,802.1942064989998,None,,,,,,,,,,,,,,,,,,,,,,,,,,,,,,,,,,,,,,,,,,,,001,71,2020_Feb_04_1538,spring_faces,3.1.5,59.94156297058266,
condition files/Stage1_2.xlsx,,B1,T1,c,"['c', 'm']","['Clue', 'Monopoly']","[-0.15, 0.5]","[0.15, 0.5]",1,1,,,,,,,,,0,11,11,11,0,5,5,0,,,,,,,,,,,,,,,,,,,,,,,,,,,,,,,,,,,,,,,,,,,,,,,,,,,,,,,804.1605241929974,None,804.1605241929974,None,804.1605241929974,None,c,1,1.1538807260003523,805.6947679749974,None,805.6947679749974,None,805.6947679749974,None,806.910694885999,None,806.910694885999,None,806.910694885999,None,806.910694885999,None,,,,,,,,,,,,,,,,,,,,,,,,,,,,,,,,,,,,,,,,,,,,001,71,2020_Feb_04_1538,spring_faces,3.1.5,59.94156297058266,
condition files/Stage1_2.xlsx,,T2,B1,c,"['c', 'm']","['Clue', 'Monopoly']","[-0.15, 0.5]","[0.15, 0.5]",1,1,,,,,,,,,0,11,11,11,0,6,6,1,,,,,,,,,,,,,,,,,,,,,,,,,,,,,,,,,,,,,,,,,,,,,,,,,,,,,,,808.8771626499984,None,808.8771626499984,None,808.8771626499984,None,c,1,0.661528624001221,810.4111334669979,None,810.4111334669979,None,810.4111334669979,None,811.1267557399988,None,811.1267557399988,None,811.1267557399988,None,811.1267557399988,None,,,,,,,,,,,,,,,,,,,,,,,,,,,,,,,,,,,,,,,,,,,,001,71,2020_Feb_04_1538,spring_faces,3.1.5,59.94156297058266,
condition files/Stage1_2.xlsx,,B2,T2,m,"['c', 'm']","['Clue', 'Monopoly']","[-0.15, 0.5]","[0.15, 0.5]",1,1,,,,,,,,,0,11,11,11,0,7,7,3,,,,,,,,,,,,,,,,,,,,,,,,,,,,,,,,,,,,,,,,,,,,,,,,,,,,,,,813.0939659579999,None,813.0939659579999,None,813.0939659579999,None,m,1,1.1643672779973713,814.628276018997,None,814.628276018997,None,814.628276018997,None,815.8458647619991,None,815.8458647619991,None,815.8458647619991,None,815.8458647619991,None,,,,,,,,,,,,,,,,,,,,,,,,,,,,,,,,,,,,,,,,,,,,001,71,2020_Feb_04_1538,spring_faces,3.1.5,59.94156297058266,
,,,,,,,,,,,,,,,,,,,,,,,,,,,,,,,,,,,,,,,,,,,,,,,,,,,,,,,,,,,,,,,,,,,,,,,,,,,,,,,,,,,,,,,,,,,,,,,,,,,,,,,,,,,,,,,,817.8271693179995,None,space,4.309502849999262,822.8272832509974,None,,,,,,,,,,,,,,,,,,,,,,,,,,,,,,001,71,2020_Feb_04_1538,spring_faces,3.1.5,59.94156297058266,
condition files/Stage2_1.xlsx,,B4,T4,r,"['s', 'r']","['Stratego', 'Risk']","[-0.15, 0.5]","[0.15, 0.5]",1,1,,,,,,,,,,,,,,,,,0,0,0,0,0,0,0,5,,,,,,,,,,,,,,,,,,,,,,,,,,,,,,,,,,,,,,,,,,,,,,,827.1943433989982,None,827.1943433989982,None,827.1943433989982,None,r,1,1.0029696109995712,828.6936910490003,None,828.6936910490003,None,828.6936910490003,None,829.7619067939995,None,829.7619067939995,None,829.7619067939995,None,829.7619067939995,None,,,,,,,,,,,,,,,822.8272832509974,None,,,,,,,,,,,,,,,,,,,,,,,,,,,,001,71,2020_Feb_04_1538,spring_faces,3.1.5,59.94156297058266,
condition files/Stage2_1.xlsx,,B2,T2,r,"['s', 'r']","['Stratego', 'Risk']","[-0.15, 0.5]","[0.15, 0.5]",1,1,,,,,,,,,,,,,,,,,0,0,0,0,0,1,1,3,,,,,,,,,,,,,,,,,,,,,,,,,,,,,,,,,,,,,,,,,,,,,,,831.7269374649986,None,831.7269374649986,None,831.7269374649986,None,r,1,1.4760572369996225,833.2766444699992,None,833.2766444699992,None,833.2766444699992,None,834.8103266699982,None,834.8103266699982,None,834.8103266699982,None,834.8103266699982,None,,,,,,,,,,,,,,,,,,,,,,,,,,,,,,,,,,,,,,,,,,,,001,71,2020_Feb_04_1538,spring_faces,3.1.5,59.94156297058266,
condition files/Stage2_1.xlsx,,T1,B1,s,"['s', 'r']","['Stratego', 'Risk']","[-0.15, 0.5]","[0.15, 0.5]",1,1,,,,,,,,,,,,,,,,,0,0,0,0,0,2,2,2,,,,,,,,,,,,,,,,,,,,,,,,,,,,,,,,,,,,,,,,,,,,,,,836.7765813669976,None,836.7765813669976,None,836.7765813669976,None,s,1,0.9380778290033049,838.3105739700004,None,838.3105739700004,None,838.3105739700004,None,839.3132475509992,None,839.3132475509992,None,839.3132475509992,None,839.3132475509992,None,,,,,,,,,,,,,,,,,,,,,,,,,,,,,,,,,,,,,,,,,,,,001,71,2020_Feb_04_1538,spring_faces,3.1.5,59.94156297058266,
condition files/Stage2_1.xlsx,,T3,B3,s,"['s', 'r']","['Stratego', 'Risk']","[-0.15, 0.5]","[0.15, 0.5]",1,1,,,,,,,,,,,,,,,,,0,0,0,0,0,3,3,4,,,,,,,,,,,,,,,,,,,,,,,,,,,,,,,,,,,,,,,,,,,,,,,841.2771660189974,None,841.2771660189974,None,841.2771660189974,None,s,1,0.6301946499988844,842.810597787,None,842.810597787,None,842.810597787,None,843.4939656930001,None,843.4939656930001,None,843.4939656930001,None,843.4939656930001,None,,,,,,,,,,,,,,,,,,,,,,,,,,,,,,,,,,,,,,,,,,,,001,71,2020_Feb_04_1538,spring_faces,3.1.5,59.94156297058266,
condition files/Stage2_1.xlsx,,B6,T6,r,"['s', 'r']","['Stratego', 'Risk']","[-0.15, 0.5]","[0.15, 0.5]",1,1,,,,,,,,,,,,,,,,,0,0,0,0,0,4,4,1,,,,,,,,,,,,,,,,,,,,,,,,,,,,,,,,,,,,,,,,,,,,,,,845.460485268999,None,845.460485268999,None,845.460485268999,None,r,1,2.780521651999152,846.9961277789989,None,846.9961277789989,None,846.9961277789989,None,849.8440707739974,None,849.8440707739974,None,849.8440707739974,None,849.8440707739974,None,,,,,,,,,,,,,,,,,,,,,,,,,,,,,,,,,,,,,,,,,,,,001,71,2020_Feb_04_1538,spring_faces,3.1.5,59.94156297058266,
condition files/Stage2_1.xlsx,,T5,B5,s,"['s', 'r']","['Stratego', 'Risk']","[-0.15, 0.5]","[0.15, 0.5]",1,1,,,,,,,,,,,,,,,,,0,0,0,0,0,5,5,0,,,,,,,,,,,,,,,,,,,,,,,,,,,,,,,,,,,,,,,,,,,,,,,851.793781360997,None,851.793781360997,None,851.793781360997,None,s,1,1.681336638997891,853.3273172289992,None,853.3273172289992,None,853.3273172289992,None,855.0623901449981,None,855.0623901449981,None,855.0623901449981,None,855.0623901449981,None,,,,,,,,,,,,,,,,,,,,,,,,,,,,,,,,,,,,,,,,,,,,001,71,2020_Feb_04_1538,spring_faces,3.1.5,59.94156297058266,
condition files/Stage2_2.xlsx,,B1,T1,s,"['s', 'r']","['Stratego', 'Risk']","[-0.15, 0.5]","[0.15, 0.5]",1,1,,,,,,,,,,,,,,,,,0,1,1,1,0,0,0,2,,,,,,,,,,,,,,,,,,,,,,,,,,,,,,,,,,,,,,,,,,,,,,,857.0443901029976,None,857.0443901029976,None,857.0443901029976,None,s,1,2.108915126998909,858.5797329359993,None,858.5797329359993,None,858.5797329359993,None,860.7438055029997,None,860.7438055029997,None,860.7438055029997,None,860.7438055029997,None,,,,,,,,,,,,,,,,,,,,,,,,,,,,,,,,,,,,,,,,,,,,001,71,2020_Feb_04_1538,spring_faces,3.1.5,59.94156297058266,
condition files/Stage2_2.xlsx,,B3,T3,s,"['s', 'r']","['Stratego', 'Risk']","[-0.15, 0.5]","[0.15, 0.5]",1,1,,,,,,,,,,,,,,,,,0,1,1,1,0,1,1,4,,,,,,,,,,,,,,,,,,,,,,,,,,,,,,,,,,,,,,,,,,,,,,,862.7105430269985,None,862.7105430269985,None,862.7105430269985,None,s,1,1.372176226999727,864.244474338997,None,864.244474338997,None,864.244474338997,None,865.6770816360004,None,865.6770816360004,None,865.6770816360004,None,865.6770816360004,None,,,,,,,,,,,,,,,,,,,,,,,,,,,,,,,,,,,,,,,,,,,,001,71,2020_Feb_04_1538,spring_faces,3.1.5,59.94156297058266,
condition files/Stage2_2.xlsx,,T6,B6,r,"['s', 'r']","['Stratego', 'Risk']","[-0.15, 0.5]","[0.15, 0.5]",1,1,,,,,,,,,,,,,,,,,0,1,1,1,0,2,2,1,,,,,,,,,,,,,,,,,,,,,,,,,,,,,,,,,,,,,,,,,,,,,,,867.6438231909997,None,867.6438231909997,None,867.6438231909997,None,r,1,1.5271505989985599,869.1775665329988,None,869.1775665329988,None,869.1775665329988,None,870.7615346709972,None,870.7615346709972,None,870.7615346709972,None,870.7615346709972,None,,,,,,,,,,,,,,,,,,,,,,,,,,,,,,,,,,,,,,,,,,,,001,71,2020_Feb_04_1538,spring_faces,3.1.5,59.94156297058266,
condition files/Stage2_2.xlsx,,T4,B4,r,"['s', 'r']","['Stratego', 'Risk']","[-0.15, 0.5]","[0.15, 0.5]",1,1,,,,,,,,,,,,,,,,,0,1,1,1,0,3,3,5,,,,,,,,,,,,,,,,,,,,,,,,,,,,,,,,,,,,,,,,,,,,,,,872.727278817998,None,872.727278817998,None,872.727278817998,None,r,1,1.0364761639975768,874.2601677579987,None,874.2601677579987,None,874.2601677579987,None,875.3601028979974,None,875.3601028979974,None,875.3601028979974,None,875.3601028979974,None,,,,,,,,,,,,,,,,,,,,,,,,,,,,,,,,,,,,,,,,,,,,001,71,2020_Feb_04_1538,spring_faces,3.1.5,59.94156297058266,
condition files/Stage2_2.xlsx,,B5,T5,s,"['s', 'r']","['Stratego', 'Risk']","[-0.15, 0.5]","[0.15, 0.5]",1,1,,,,,,,,,,,,,,,,,0,1,1,1,0,4,4,0,,,,,,,,,,,,,,,,,,,,,,,,,,,,,,,,,,,,,,,,,,,,,,,877.3269644549982,None,877.3269644549982,None,877.3269644549982,None,s,1,1.3791442539986747,878.8616211219996,None,878.8616211219996,None,878.8616211219996,None,880.3108448819985,None,880.3108448819985,None,880.3108448819985,None,880.3108448819985,None,,,,,,,,,,,,,,,,,,,,,,,,,,,,,,,,,,,,,,,,,,,,001,71,2020_Feb_04_1538,spring_faces,3.1.5,59.94156297058266,
condition files/Stage2_2.xlsx,,T2,B2,r,"['s', 'r']","['Stratego', 'Risk']","[-0.15, 0.5]","[0.15, 0.5]",1,1,,,,,,,,,,,,,,,,,0,1,1,1,0,5,5,3,,,,,,,,,,,,,,,,,,,,,,,,,,,,,,,,,,,,,,,,,,,,,,,882.260596494998,None,882.260596494998,None,882.260596494998,None,r,1,1.390136744001211,883.8105628880003,None,883.8105628880003,None,883.8105628880003,None,885.2605527769992,None,885.2605527769992,None,885.2605527769992,None,885.2605527769992,None,,,,,,,,,,,,,,,,,,,,,,,,,,,,,,,,,,,,,,,,,,,,001,71,2020_Feb_04_1538,spring_faces,3.1.5,59.94156297058266,
condition files/Stage2_1.xlsx,,T3,B3,s,"['s', 'r']","['Stratego', 'Risk']","[-0.15, 0.5]","[0.15, 0.5]",1,1,,,,,,,,,,,,,,,,,0,2,2,2,0,0,0,4,,,,,,,,,,,,,,,,,,,,,,,,,,,,,,,,,,,,,,,,,,,,,,,887.243795782997,None,887.243795782997,None,887.243795782997,None,s,1,1.3836171660004766,888.7770354429995,None,888.7770354429995,None,888.7770354429995,None,890.2274089929997,None,890.2274089929997,None,890.2274089929997,None,890.2274089929997,None,,,,,,,,,,,,,,,,,,,,,,,,,,,,,,,,,,,,,,,,,,,,001,71,2020_Feb_04_1538,spring_faces,3.1.5,59.94156297058266,
condition files/Stage2_1.xlsx,,B4,T4,r,"['s', 'r']","['Stratego', 'Risk']","[-0.15, 0.5]","[0.15, 0.5]",1,1,,,,,,,,,,,,,,,,,0,2,2,2,0,1,1,5,,,,,,,,,,,,,,,,,,,,,,,,,,,,,,,,,,,,,,,,,,,,,,,892.177169311999,None,892.177169311999,None,892.177169311999,None,r,1,0.849617166997632,893.7110512899999,None,893.7110512899999,None,893.7110512899999,None,894.6272229530005,None,894.6272229530005,None,894.6272229530005,None,894.6272229530005,None,,,,,,,,,,,,,,,,,,,,,,,,,,,,,,,,,,,,,,,,,,,,001,71,2020_Feb_04_1538,spring_faces,3.1.5,59.94156297058266,
condition files/Stage2_1.xlsx,,T1,B1,s,"['s', 'r']","['Stratego', 'Risk']","[-0.15, 0.5]","[0.15, 0.5]",1,1,,,,,,,,,,,,,,,,,0,2,2,2,0,2,2,2,,,,,,,,,,,,,,,,,,,,,,,,,,,,,,,,,,,,,,,,,,,,,,,896.577565804997,None,896.577565804997,None,896.577565804997,None,s,1,0.8980792080001265,898.1105765329994,None,898.1105765329994,None,898.1105765329994,None,899.0772511049981,None,899.0772511049981,None,899.0772511049981,None,899.0772511049981,None,,,,,,,,,,,,,,,,,,,,,,,,,,,,,,,,,,,,,,,,,,,,001,71,2020_Feb_04_1538,spring_faces,3.1.5,59.94156297058266,
condition files/Stage2_1.xlsx,,B2,T2,r,"['s', 'r']","['Stratego', 'Risk']","[-0.15, 0.5]","[0.15, 0.5]",1,1,,,,,,,,,,,,,,,,,0,2,2,2,0,3,3,3,,,,,,,,,,,,,,,,,,,,,,,,,,,,,,,,,,,,,,,,,,,,,,,901.0265991699998,None,901.0265991699998,None,901.0265991699998,None,r,1,1.5359046070007025,902.560754594997,None,902.560754594997,None,902.560754594997,None,904.1775958010003,None,904.1775958010003,None,904.1775958010003,None,904.1775958010003,None,,,,,,,,,,,,,,,,,,,,,,,,,,,,,,,,,,,,,,,,,,,,001,71,2020_Feb_04_1538,spring_faces,3.1.5,59.94156297058266,
condition files/Stage2_1.xlsx,,T5,B5,s,"['s', 'r']","['Stratego', 'Risk']","[-0.15, 0.5]","[0.15, 0.5]",1,1,,,,,,,,,,,,,,,,,0,2,2,2,0,4,4,0,,,,,,,,,,,,,,,,,,,,,,,,,,,,,,,,,,,,,,,,,,,,,,,906.1271962469982,None,906.1271962469982,None,906.1271962469982,None,s,1,1.139731376999407,907.676956780997,None,907.676956780997,None,907.676956780997,None,908.879095303997,None,908.879095303997,None,908.879095303997,None,908.879095303997,None,,,,,,,,,,,,,,,,,,,,,,,,,,,,,,,,,,,,,,,,,,,,001,71,2020_Feb_04_1538,spring_faces,3.1.5,59.94156297058266,
condition files/Stage2_1.xlsx,,B6,T6,r,"['s', 'r']","['Stratego', 'Risk']","[-0.15, 0.5]","[0.15, 0.5]",1,1,,,,,,,,,,,,,,,,,0,2,2,2,0,5,5,1,,,,,,,,,,,,,,,,,,,,,,,,,,,,,,,,,,,,,,,,,,,,,,,910.8433449039985,None,910.8433449039985,None,910.8433449039985,None,r,1,1.2868161469996267,912.3938302239985,None,912.3938302239985,None,912.3938302239985,None,913.7601157229983,None,913.7601157229983,None,913.7601157229983,None,913.7601157229983,None,,,,,,,,,,,,,,,,,,,,,,,,,,,,,,,,,,,,,,,,,,,,001,71,2020_Feb_04_1538,spring_faces,3.1.5,59.94156297058266,
condition files/Stage2_2.xlsx,,B5,T5,s,"['s', 'r']","['Stratego', 'Risk']","[-0.15, 0.5]","[0.15, 0.5]",1,1,,,,,,,,,,,,,,,,,0,3,3,3,0,0,0,0,,,,,,,,,,,,,,,,,,,,,,,,,,,,,,,,,,,,,,,,,,,,,,,915.727381277,None,915.727381277,None,915.727381277,None,s,1,0.8836588539998047,917.2449180949989,None,917.2449180949989,None,917.2449180949989,None,918.2105959589971,None,918.2105959589971,None,918.2105959589971,None,918.2105959589971,None,,,,,,,,,,,,,,,,,,,,,,,,,,,,,,,,,,,,,,,,,,,,001,71,2020_Feb_04_1538,spring_faces,3.1.5,59.94156297058266,
condition files/Stage2_2.xlsx,,B3,T3,s,"['s', 'r']","['Stratego', 'Risk']","[-0.15, 0.5]","[0.15, 0.5]",1,1,,,,,,,,,,,,,,,,,0,3,3,3,0,1,1,4,,,,,,,,,,,,,,,,,,,,,,,,,,,,,,,,,,,,,,,,,,,,,,,920.1605988739975,None,920.1605988739975,None,920.1605988739975,None,s,1,0.8814336529976572,921.6951908089977,None,921.6951908089977,None,921.6951908089977,None,922.6274586749969,None,922.6274586749969,None,922.6274586749969,None,922.6274586749969,None,,,,,,,,,,,,,,,,,,,,,,,,,,,,,,,,,,,,,,,,,,,,001,71,2020_Feb_04_1538,spring_faces,3.1.5,59.94156297058266,
condition files/Stage2_2.xlsx,,T6,B6,r,"['s', 'r']","['Stratego', 'Risk']","[-0.15, 0.5]","[0.15, 0.5]",1,1,,,,,,,,,,,,,,,,,0,3,3,3,0,2,2,1,,,,,,,,,,,,,,,,,,,,,,,,,,,,,,,,,,,,,,,,,,,,,,,924.5940975140002,None,924.5940975140002,None,924.5940975140002,None,r,1,1.328637542999786,926.143997580999,None,926.143997580999,None,926.143997580999,None,927.528648386,None,927.528648386,None,927.528648386,None,927.528648386,None,,,,,,,,,,,,,,,,,,,,,,,,,,,,,,,,,,,,,,,,,,,,001,71,2020_Feb_04_1538,spring_faces,3.1.5,59.94156297058266,
condition files/Stage2_2.xlsx,,T2,B2,r,"['s', 'r']","['Stratego', 'Risk']","[-0.15, 0.5]","[0.15, 0.5]",1,1,,,,,,,,,,,,,,,,,0,3,3,3,0,3,3,3,,,,,,,,,,,,,,,,,,,,,,,,,,,,,,,,,,,,,,,,,,,,,,,929.4938393230004,None,929.4938393230004,None,929.4938393230004,None,r,1,1.2931580109980132,931.0275572479986,None,931.0275572479986,None,931.0275572479986,None,932.3767635699987,None,932.3767635699987,None,932.3767635699987,None,932.3767635699987,None,,,,,,,,,,,,,,,,,,,,,,,,,,,,,,,,,,,,,,,,,,,,001,71,2020_Feb_04_1538,spring_faces,3.1.5,59.94156297058266,
condition files/Stage2_2.xlsx,,T4,B4,r,"['s', 'r']","['Stratego', 'Risk']","[-0.15, 0.5]","[0.15, 0.5]",1,1,,,,,,,,,,,,,,,,,0,3,3,3,0,4,4,5,,,,,,,,,,,,,,,,,,,,,,,,,,,,,,,,,,,,,,,,,,,,,,,934.3437320209996,None,934.3437320209996,None,934.3437320209996,None,r,1,0.7475704200005566,935.877083935,None,935.877083935,None,935.877083935,None,936.677222610997,None,936.677222610997,None,936.677222610997,None,936.677222610997,None,,,,,,,,,,,,,,,,,,,,,,,,,,,,,,,,,,,,,,,,,,,,001,71,2020_Feb_04_1538,spring_faces,3.1.5,59.94156297058266,
condition files/Stage2_2.xlsx,,B1,T1,s,"['s', 'r']","['Stratego', 'Risk']","[-0.15, 0.5]","[0.15, 0.5]",1,1,,,,,,,,,,,,,,,,,0,3,3,3,0,5,5,2,,,,,,,,,,,,,,,,,,,,,,,,,,,,,,,,,,,,,,,,,,,,,,,938.643708481999,None,938.643708481999,None,938.643708481999,None,s,1,1.919551335999131,940.177095144998,None,940.177095144998,None,940.177095144998,None,942.1630258939986,None,942.1630258939986,None,942.1630258939986,None,942.1630258939986,None,,,,,,,,,,,,,,,,,,,,,,,,,,,,,,,,,,,,,,,,,,,,001,71,2020_Feb_04_1538,spring_faces,3.1.5,59.94156297058266,
condition files/Stage2_1.xlsx,,B2,T2,r,"['s', 'r']","['Stratego', 'Risk']","[-0.15, 0.5]","[0.15, 0.5]",1,1,,,,,,,,,,,,,,,,,0,4,4,4,0,0,0,3,,,,,,,,,,,,,,,,,,,,,,,,,,,,,,,,,,,,,,,,,,,,,,,944.1444847189996,None,944.1444847189996,None,944.1444847189996,None,r,1,1.297793529000046,945.6788558359985,None,945.6788558359985,None,945.6788558359985,None,947.0298806930005,None,947.0298806930005,None,947.0298806930005,None,947.0298806930005,None,,,,,,,,,,,,,,,,,,,,,,,,,,,,,,,,,,,,,,,,,,,,001,71,2020_Feb_04_1538,spring_faces,3.1.5,59.94156297058266,
condition files/Stage2_1.xlsx,,T1,B1,s,"['s', 'r']","['Stratego', 'Risk']","[-0.15, 0.5]","[0.15, 0.5]",1,1,,,,,,,,,,,,,,,,,0,4,4,4,0,1,1,2,,,,,,,,,,,,,,,,,,,,,,,,,,,,,,,,,,,,,,,,,,,,,,,948.9933082299976,None,948.9933082299976,None,948.9933082299976,None,s,1,0.8015438809998159,950.5270309929983,None,950.5270309929983,None,950.5270309929983,None,951.4102838090002,None,951.4102838090002,None,951.4102838090002,None,951.4102838090002,None,,,,,,,,,,,,,,,,,,,,,,,,,,,,,,,,,,,,,,,,,,,,001,71,2020_Feb_04_1538,spring_faces,3.1.5,59.94156297058266,
condition files/Stage2_1.xlsx,,T3,B3,s,"['s', 'r']","['Stratego', 'Risk']","[-0.15, 0.5]","[0.15, 0.5]",1,1,,,,,,,,,,,,,,,,,0,4,4,4,0,2,2,4,,,,,,,,,,,,,,,,,,,,,,,,,,,,,,,,,,,,,,,,,,,,,,,953.3606513019986,None,953.3606513019986,None,953.3606513019986,None,s,1,1.1203700339974603,954.8963512849987,None,954.8963512849987,None,954.8963512849987,None,956.0777785859973,None,956.0777785859973,None,956.0777785859973,None,956.0777785859973,None,,,,,,,,,,,,,,,,,,,,,,,,,,,,,,,,,,,,,,,,,,,,001,71,2020_Feb_04_1538,spring_faces,3.1.5,59.94156297058266,
condition files/Stage2_1.xlsx,,B6,T6,r,"['s', 'r']","['Stratego', 'Risk']","[-0.15, 0.5]","[0.15, 0.5]",1,1,,,,,,,,,,,,,,,,,0,4,4,4,0,3,3,1,,,,,,,,,,,,,,,,,,,,,,,,,,,,,,,,,,,,,,,,,,,,,,,958.0438139179969,None,958.0438139179969,None,958.0438139179969,None,r,1,1.4459739129997615,959.5786791809987,None,959.5786791809987,None,959.5786791809987,None,961.0800510079971,None,961.0800510079971,None,961.0800510079971,None,961.0800510079971,None,,,,,,,,,,,,,,,,,,,,,,,,,,,,,,,,,,,,,,,,,,,,001,71,2020_Feb_04_1538,spring_faces,3.1.5,59.94156297058266,
