condsFile,subStage,cue1,cue2,correct,responseKeys,responseNames,cue1Position,cue2Position,cue1Opacity,cue2Opacity,stageLoop0.thisRepN,stageLoop0.thisTrialN,stageLoop0.thisN,stageLoop0.thisIndex,blockLoop0.thisRepN,blockLoop0.thisTrialN,blockLoop0.thisN,blockLoop0.thisIndex,stage1Loop.thisRepN,stage1Loop.thisTrialN,stage1Loop.thisN,stage1Loop.thisIndex,blockLoop1.thisRepN,blockLoop1.thisTrialN,blockLoop1.thisN,blockLoop1.thisIndex,stage2Loop.thisRepN,stage2Loop.thisTrialN,stage2Loop.thisN,stage2Loop.thisIndex,blockLoop2.thisRepN,blockLoop2.thisTrialN,blockLoop2.thisN,blockLoop2.thisIndex,testLoop.thisRepN,testLoop.thisTrialN,testLoop.thisN,testLoop.thisIndex,blockLoopTest.thisRepN,blockLoopTest.thisTrialN,blockLoopTest.thisN,blockLoopTest.thisIndex,cuePics,id_instr_text.started,id_instr_text.stopped,space_to_continue_2.started,space_to_continue_2.stopped,end_instructions_resp_3.keys,end_instructions_resp_3.rt,end_instructions_resp_3.started,end_instructions_resp_3.stopped,id_input_instr.started,id_input_instr.stopped,id_input_rect.started,id_input_rect.stopped,id_input_resp.keys,id_input_resp.rt,id_input_resp.started,id_input_resp.stopped,sonaID,id_input_text.started,id_input_text.stopped,final_text.started,final_text.stopped,instructions.started,instructions.stopped,end_instructions_resp.keys,end_instructions_resp.rt,end_instructions_resp.started,end_instructions_resp.stopped,space_to_continue.started,space_to_continue.stopped,instructions_stage0.started,instructions_stage0.stopped,end_instructions_resp_stage0.keys,end_instructions_resp_stage0.rt,end_instructions_resp_stage0.started,end_instructions_resp_stage0.stopped,space_to_continue_stage0.started,space_to_continue_stage0.stopped,text.started,text.stopped,resp_text1.started,resp_text1.stopped,resp_text2.started,resp_text2.stopped,trial_resp.keys,trial_resp.corr,trial_resp.rt,trial_resp.started,trial_resp.stopped,cue1Image.started,cue1Image.stopped,cue2Image.started,cue2Image.stopped,cue1Image_fb.started,cue1Image_fb.stopped,cue2Image_fb.started,cue2Image_fb.stopped,fb_text_answer.started,fb_text_answer.stopped,feedback_image.started,feedback_image.stopped,instructions_stage1.started,instructions_stage1.stopped,end_instructions_resp_stage1.keys,end_instructions_resp_stage1.rt,end_instructions_resp_stage1.started,end_instructions_resp_stage1.stopped,space_to_continue_stage1.started,space_to_continue_stage1.stopped,instructions_2.started,instructions_2.stopped,end_instructions_resp_2.keys,end_instructions_resp_2.rt,end_instructions_resp_2.started,end_instructions_resp_2.stopped,press_space_to_continue_stage2.started,press_space_to_continue_stage2.stopped,instructions_testStage1.started,instructions_testStage1.stopped,end_instructions_resp_test1.keys,end_instructions_resp_test1.rt,end_instructions_resp_test1.started,end_instructions_resp_test1.stopped,press_space_to_continue_test1.started,press_space_to_continue_test1.stopped,cue1Image_testChoice.started,cue1Image_testChoice.stopped,cue2Image_testChoice.started,cue2Image_testChoice.stopped,test_resp.keys,test_resp.corr,test_resp.rt,test_resp.started,test_resp.stopped,cue1Image_testConf.started,cue1Image_testConf.stopped,cue2Image_testConf.started,cue2Image_testConf.stopped,conf_reminder.started,conf_reminder.stopped,conf_rating.response,conf_rating.rt,conf_rating.started,conf_rating.stopped,session,participant,date,expName,psychopyVersion,frameRate,
,,,,,,,,,,,,,,,,,,,,,,,,,,,,,,,,,,,,,,,,,,,"{'none': 'pictures/20M_AN_C.png', 'alpha': 'pictures/SHINEd_pepper.png', 'beta': 'pictures/SHINEd_melon.png', 'theta': 'pictures/SHINEd_apple.png', 'phi': 'pictures/SHINEd_pear.png', 'T1': 'pictures/22M_AN_C.png', 'T2': 'pictures/23M_AN_C.png', 'T3': 'pictures/38M_AN_C.png', 'T4': 'pictures/34M_AN_C.png', 'T5': 'pictures/26M_AN_C.png', 'T6': 'pictures/20M_AN_C.png', 'B1': 'pictures/32M_NE_C.png', 'B2': 'pictures/37M_NE_C.png', 'B3': 'pictures/33M_NE_C.png', 'B4': 'pictures/36M_NE_C.png', 'B5': 'pictures/25M_NE_C.png', 'B6': 'pictures/31M_NE_C.png'}",14.312417473000096,None,19.312136071999703,None,space,7.212516368999786,19.312136071999703,None,,,,,,,,,,,,,,,,,,,,,,,,,,,,,,,,,,,,,,,,,,,,,,,,,,,,,,,,,,,,,,,,,,,,,,,,,,,,,,,,,,,,,,,,,,,,,,,,001,73,2020_Feb_04_1634,spring_faces,3.1.5,60.071234391551755,
,,,,,,,,,,,,,,,,,,,,,,,,,,,,,,,,,,,,,,,,,,,,,,,,,,,,26.91210373300055,None,26.91210373300055,None,"['g', 'd', 'backspace', 'backspace', '1', '0', '0', '3', 'v', 'k', 'm', 'a', 'r', 'backspace', '1', '0', '0', '3', 'v', 'i', 'm', 'a', 'r']","[34.22055347599962, 34.332555916000274, 35.22844909199921, 35.38855562800018, 43.88449784099794, 44.15652674699959, 48.68449518699708, 48.84451308599819, 54.23655056999996, 54.3967505469991, 61.99670156499997, 62.22055550999721, 62.52458037699762, 65.05259331599882, 72.90858680699966, 73.08450345099845, 78.14057017099913, 78.3165903400004, 83.6125384429979, 83.80456904399762, 86.82854740999755, 87.03655325799991, 87.32450773899836]",26.91210373300055,None,,,,,,,,,,,,,,,,,,,,,,,,,,,,,,,,,,,,,,,,,,,,,,,,,,,,,,,,,,,,,,,,,,,,,,,,,,,,,,,,,,,,,,,,001,73,2020_Feb_04_1634,spring_faces,3.1.5,60.071234391551755,
,,,,,,,,,,,,,,,,,,,,,,,,,,,,,,,,,,,,,,,,,,,,,,,,,,,,,,,,,,,,1003vimar,26.91210373300055,None,26.91210373300055,None,119.31164365299992,None,space,0.8685776190031902,124.31201021000015,None,,,,,,,,,,,,,,,,,,,,,,,,,,,,,,,,,,,,,,,,,,,,,,,,,,,,,,,,,,,,,,,,,,,,,,,,,,,,,001,73,2020_Feb_04_1634,spring_faces,3.1.5,60.071234391551755,
,,,,,,,,,,,,,,,,,,,,,,,,,,,,,,,,,,,,,,,,,,,,,,,,,,,,,,,,,,,,,,,,,,,,,,,124.31201021000015,None,125.22820114899878,None,space,5.399981389997265,130.2287258920005,None,,,,,,,,,,,,,,,,,,,,,,,,,,,,,,,,,,,,,,,,,,,,,,,,,,,,,,,,,,,,,,,,,,,,,001,73,2020_Feb_04_1634,spring_faces,3.1.5,60.071234391551755,
condition files/Stage0a.xlsx,0a,alpha,none,h,"['h', 'g']","['Chess', 'Go']","[0, 0.5]","[0, 0]",1,0,0,0,0,0,0,0,0,0,,,,,,,,,,,,,,,,,,,,,,,,,,,,,,,,,,,,,,,,,,,,,,,,,,,,,,,,,,,,,130.2287258920005,None,135.6788142510013,None,135.6788142510013,None,135.6788142510013,None,h,1,2.670673373999307,137.26201411700094,None,137.26201411700094,None,137.26201411700094,None,140.01213819999975,None,140.01213819999975,None,140.01213819999975,None,140.01213819999975,None,,,,,,,,,,,,,,,,,,,,,,,,,,,,,,,,,,,,,,,,,,,,001,73,2020_Feb_04_1634,spring_faces,3.1.5,60.071234391551755,
condition files/Stage0a.xlsx,0a,beta,none,g,"['h', 'g']","['Chess', 'Go']","[0, 0.5]","[0, 0]",1,0,0,0,0,0,0,1,1,1,,,,,,,,,,,,,,,,,,,,,,,,,,,,,,,,,,,,,,,,,,,,,,,,,,,,,,,,,,,,,,,141.96195738800088,None,141.96195738800088,None,141.96195738800088,None,g,1,1.0926256950006064,143.5121010570001,None,143.5121010570001,None,143.5121010570001,None,144.66195156899994,None,144.66195156899994,None,144.66195156899994,None,144.66195156899994,None,,,,,,,,,,,,,,,,,,,,,,,,,,,,,,,,,,,,,,,,,,,,001,73,2020_Feb_04_1634,spring_faces,3.1.5,60.071234391551755,
condition files/Stage0a.xlsx,0a,alpha,none,h,"['h', 'g']","['Chess', 'Go']","[0, 0.5]","[0, 0]",1,0,0,1,1,1,0,0,0,0,,,,,,,,,,,,,,,,,,,,,,,,,,,,,,,,,,,,,,,,,,,,,,,,,,,,,,,,,,,,,,,146.64547020700047,None,146.64547020700047,None,146.64547020700047,None,g,0,0.9540738819996477,148.178613262,None,148.178613262,None,148.178613262,None,149.19555383600164,None,149.19555383600164,None,149.19555383600164,None,149.19555383600164,None,,,,,,,,,,,,,,,,,,,,,,,,,,,,,,,,,,,,,,,,,,,,001,73,2020_Feb_04_1634,spring_faces,3.1.5,60.071234391551755,
condition files/Stage0a.xlsx,0a,beta,none,g,"['h', 'g']","['Chess', 'Go']","[0, 0.5]","[0, 0]",1,0,0,1,1,1,0,1,1,1,,,,,,,,,,,,,,,,,,,,,,,,,,,,,,,,,,,,,,,,,,,,,,,,,,,,,,,,,,,,,,,151.16200219900202,None,151.16200219900202,None,151.16200219900202,None,h,0,0.7729333530005533,152.69572012299977,None,152.69572012299977,None,152.69572012299977,None,153.5285666689997,None,153.5285666689997,None,153.5285666689997,None,153.5285666689997,None,,,,,,,,,,,,,,,,,,,,,,,,,,,,,,,,,,,,,,,,,,,,001,73,2020_Feb_04_1634,spring_faces,3.1.5,60.071234391551755,
condition files/Stage0a.xlsx,0a,beta,none,g,"['h', 'g']","['Chess', 'Go']","[0, 0.5]","[0, 0]",1,0,0,2,2,2,0,0,0,1,,,,,,,,,,,,,,,,,,,,,,,,,,,,,,,,,,,,,,,,,,,,,,,,,,,,,,,,,,,,,,,155.51222931200027,None,155.51222931200027,None,155.51222931200027,None,g,1,1.9598614009992161,157.04487941200205,None,157.04487941200205,None,157.04487941200205,None,159.06156339800145,None,159.06156339800145,None,159.06156339800145,None,159.06156339800145,None,,,,,,,,,,,,,,,,,,,,,,,,,,,,,,,,,,,,,,,,,,,,001,73,2020_Feb_04_1634,spring_faces,3.1.5,60.071234391551755,
condition files/Stage0a.xlsx,0a,alpha,none,h,"['h', 'g']","['Chess', 'Go']","[0, 0.5]","[0, 0]",1,0,0,2,2,2,0,1,1,0,,,,,,,,,,,,,,,,,,,,,,,,,,,,,,,,,,,,,,,,,,,,,,,,,,,,,,,,,,,,,,,161.02849099599916,None,161.02849099599916,None,161.02849099599916,None,h,1,2.8910635559986986,162.56162150399905,None,162.56162150399905,None,162.56162150399905,None,165.5119166680015,None,165.5119166680015,None,165.5119166680015,None,165.5119166680015,None,,,,,,,,,,,,,,,,,,,,,,,,,,,,,,,,,,,,,,,,,,,,001,73,2020_Feb_04_1634,spring_faces,3.1.5,60.071234391551755,
condition files/Stage0a.xlsx,0a,beta,none,g,"['h', 'g']","['Chess', 'Go']","[0, 0.5]","[0, 0]",1,0,0,3,3,3,0,0,0,1,,,,,,,,,,,,,,,,,,,,,,,,,,,,,,,,,,,,,,,,,,,,,,,,,,,,,,,,,,,,,,,167.49527602200033,None,167.49527602200033,None,167.49527602200033,None,h,0,1.2078369999981078,169.02886621500147,None,169.02886621500147,None,169.02886621500147,None,170.2950214800003,None,170.2950214800003,None,170.2950214800003,None,170.2950214800003,None,,,,,,,,,,,,,,,,,,,,,,,,,,,,,,,,,,,,,,,,,,,,001,73,2020_Feb_04_1634,spring_faces,3.1.5,60.071234391551755,
condition files/Stage0a.xlsx,0a,alpha,none,h,"['h', 'g']","['Chess', 'Go']","[0, 0.5]","[0, 0]",1,0,0,3,3,3,0,1,1,0,,,,,,,,,,,,,,,,,,,,,,,,,,,,,,,,,,,,,,,,,,,,,,,,,,,,,,,,,,,,,,,172.261307312001,None,172.261307312001,None,172.261307312001,None,h,1,1.449577669001883,173.79510489300083,None,173.79510489300083,None,173.79510489300083,None,175.29524246599976,None,175.29524246599976,None,175.29524246599976,None,175.29524246599976,None,,,,,,,,,,,,,,,,,,,,,,,,,,,,,,,,,,,,,,,,,,,,001,73,2020_Feb_04_1634,spring_faces,3.1.5,60.071234391551755,
condition files/Stage0a.xlsx,0a,beta,none,g,"['h', 'g']","['Chess', 'Go']","[0, 0.5]","[0, 0]",1,0,0,4,4,4,0,0,0,1,,,,,,,,,,,,,,,,,,,,,,,,,,,,,,,,,,,,,,,,,,,,,,,,,,,,,,,,,,,,,,,177.27815745399857,None,177.27815745399857,None,177.27815745399857,None,g,1,0.5612909820010827,178.81142497100154,None,178.81142497100154,None,178.81142497100154,None,179.42842011000175,None,179.42842011000175,None,179.42842011000175,None,179.42842011000175,None,,,,,,,,,,,,,,,,,,,,,,,,,,,,,,,,,,,,,,,,,,,,001,73,2020_Feb_04_1634,spring_faces,3.1.5,60.071234391551755,
condition files/Stage0a.xlsx,0a,alpha,none,h,"['h', 'g']","['Chess', 'Go']","[0, 0.5]","[0, 0]",1,0,0,4,4,4,0,1,1,0,,,,,,,,,,,,,,,,,,,,,,,,,,,,,,,,,,,,,,,,,,,,,,,,,,,,,,,,,,,,,,,181.39462701999946,None,181.39462701999946,None,181.39462701999946,None,h,1,1.1157411319982202,182.92893476999961,None,182.92893476999961,None,182.92893476999961,None,184.09540959399965,None,184.09540959399965,None,184.09540959399965,None,184.09540959399965,None,,,,,,,,,,,,,,,,,,,,,,,,,,,,,,,,,,,,,,,,,,,,001,73,2020_Feb_04_1634,spring_faces,3.1.5,60.071234391551755,
condition files/Stage0a.xlsx,0a,alpha,none,h,"['h', 'g']","['Chess', 'Go']","[0, 0.5]","[0, 0]",1,0,0,5,5,5,0,0,0,0,,,,,,,,,,,,,,,,,,,,,,,,,,,,,,,,,,,,,,,,,,,,,,,,,,,,,,,,,,,,,,,186.07905889800168,None,186.07905889800168,None,186.07905889800168,None,h,1,0.6412104390001332,187.61149129100158,None,187.61149129100158,None,187.61149129100158,None,188.31159777300127,None,188.31159777300127,None,188.31159777300127,None,188.31159777300127,None,,,,,,,,,,,,,,,,,,,,,,,,,,,,,,,,,,,,,,,,,,,,001,73,2020_Feb_04_1634,spring_faces,3.1.5,60.071234391551755,
condition files/Stage0a.xlsx,0a,beta,none,g,"['h', 'g']","['Chess', 'Go']","[0, 0.5]","[0, 0]",1,0,0,5,5,5,0,1,1,1,,,,,,,,,,,,,,,,,,,,,,,,,,,,,,,,,,,,,,,,,,,,,,,,,,,,,,,,,,,,,,,190.27862483500212,None,190.27862483500212,None,190.27862483500212,None,g,1,0.5209713719996216,191.81169096600206,None,191.81169096600206,None,191.81169096600206,None,192.39543428199977,None,192.39543428199977,None,192.39543428199977,None,192.39543428199977,None,,,,,,,,,,,,,,,,,,,,,,,,,,,,,,,,,,,,,,,,,,,,001,73,2020_Feb_04_1634,spring_faces,3.1.5,60.071234391551755,
condition files/Stage0b_1.xlsx,0b,none,beta,g,"['h', 'g']","['Chess', 'Go']","[-0.15, 0.5]","[0.15, 0.5]",0,1,0,6,6,6,0,0,0,1,,,,,,,,,,,,,,,,,,,,,,,,,,,,,,,,,,,,,,,,,,,,,,,,,,,,,,,,,,,,,,,194.3785788999994,None,194.3785788999994,None,194.3785788999994,None,g,1,0.8680399219992978,195.9285503960018,None,195.9285503960018,None,195.9285503960018,None,196.86244771800193,None,196.86244771800193,None,196.86244771800193,None,196.86244771800193,None,,,,,,,,,,,,,,,,,,,,,,,,,,,,,,,,,,,,,,,,,,,,001,73,2020_Feb_04_1634,spring_faces,3.1.5,60.071234391551755,
condition files/Stage0b_1.xlsx,0b,alpha,none,h,"['h', 'g']","['Chess', 'Go']","[-0.15, 0.5]","[0.15, 0.5]",1,0,0,6,6,6,0,1,1,0,,,,,,,,,,,,,,,,,,,,,,,,,,,,,,,,,,,,,,,,,,,,,,,,,,,,,,,,,,,,,,,198.82863649900173,None,198.82863649900173,None,198.82863649900173,None,h,1,0.34912303499731934,200.36753203600165,None,200.36753203600165,None,200.36753203600165,None,200.78166334500202,None,200.78166334500202,None,200.78166334500202,None,200.78166334500202,None,,,,,,,,,,,,,,,,,,,,,,,,,,,,,,,,,,,,,,,,,,,,001,73,2020_Feb_04_1634,spring_faces,3.1.5,60.071234391551755,
condition files/Stage0b_2.xlsx,0b,none,alpha,h,"['h', 'g']","['Chess', 'Go']","[-0.15, 0.5]","[0.15, 0.5]",0,1,0,7,7,7,0,0,0,0,,,,,,,,,,,,,,,,,,,,,,,,,,,,,,,,,,,,,,,,,,,,,,,,,,,,,,,,,,,,,,,202.76243598699875,None,202.76243598699875,None,202.76243598699875,None,h,1,0.6605320039998333,204.31215822599916,None,204.31215822599916,None,204.31215822599916,None,205.03269589499905,None,205.03269589499905,None,205.03269589499905,None,205.03269589499905,None,,,,,,,,,,,,,,,,,,,,,,,,,,,,,,,,,,,,,,,,,,,,001,73,2020_Feb_04_1634,spring_faces,3.1.5,60.071234391551755,
condition files/Stage0b_2.xlsx,0b,beta,none,g,"['h', 'g']","['Chess', 'Go']","[-0.15, 0.5]","[0.15, 0.5]",1,0,0,7,7,7,0,1,1,1,,,,,,,,,,,,,,,,,,,,,,,,,,,,,,,,,,,,,,,,,,,,,,,,,,,,,,,,,,,,,,,206.9952379540009,None,206.9952379540009,None,206.9952379540009,None,g,1,0.6322944179992191,208.53234426199924,None,208.53234426199924,None,208.53234426199924,None,209.22855209599948,None,209.22855209599948,None,209.22855209599948,None,209.22855209599948,None,,,,,,,,,,,,,,,,,,,,,,,,,,,,,,,,,,,,,,,,,,,,001,73,2020_Feb_04_1634,spring_faces,3.1.5,60.071234391551755,
condition files/Stage0b_1.xlsx,0b,alpha,none,h,"['h', 'g']","['Chess', 'Go']","[-0.15, 0.5]","[0.15, 0.5]",1,0,0,8,8,8,0,0,0,0,,,,,,,,,,,,,,,,,,,,,,,,,,,,,,,,,,,,,,,,,,,,,,,,,,,,,,,,,,,,,,,211.21215327699974,None,211.21215327699974,None,211.21215327699974,None,h,1,0.6114860400011821,212.74515442800111,None,212.74515442800111,None,212.74515442800111,None,213.41179303399986,None,213.41179303399986,None,213.41179303399986,None,213.41179303399986,None,,,,,,,,,,,,,,,,,,,,,,,,,,,,,,,,,,,,,,,,,,,,001,73,2020_Feb_04_1634,spring_faces,3.1.5,60.071234391551755,
condition files/Stage0b_1.xlsx,0b,none,beta,g,"['h', 'g']","['Chess', 'Go']","[-0.15, 0.5]","[0.15, 0.5]",0,1,0,8,8,8,0,1,1,1,,,,,,,,,,,,,,,,,,,,,,,,,,,,,,,,,,,,,,,,,,,,,,,,,,,,,,,,,,,,,,,215.37868188599896,None,215.37868188599896,None,215.37868188599896,None,g,1,0.5042410250025569,216.91646399800084,None,216.91646399800084,None,216.91646399800084,None,217.48133391699957,None,217.48133391699957,None,217.48133391699957,None,217.48133391699957,None,,,,,,,,,,,,,,,,,,,,,,,,,,,,,,,,,,,,,,,,,,,,001,73,2020_Feb_04_1634,spring_faces,3.1.5,60.071234391551755,
condition files/Stage0b_2.xlsx,0b,beta,none,g,"['h', 'g']","['Chess', 'Go']","[-0.15, 0.5]","[0.15, 0.5]",1,0,0,9,9,9,0,0,0,1,,,,,,,,,,,,,,,,,,,,,,,,,,,,,,,,,,,,,,,,,,,,,,,,,,,,,,,,,,,,,,,219.46214523600065,None,219.46214523600065,None,219.46214523600065,None,g,1,1.0118055999992066,221.00084008900012,None,221.00084008900012,None,221.00084008900012,None,222.07897043000048,None,222.07897043000048,None,222.07897043000048,None,222.07897043000048,None,,,,,,,,,,,,,,,,,,,,,,,,,,,,,,,,,,,,,,,,,,,,001,73,2020_Feb_04_1634,spring_faces,3.1.5,60.071234391551755,
condition files/Stage0b_2.xlsx,0b,none,alpha,h,"['h', 'g']","['Chess', 'Go']","[-0.15, 0.5]","[0.15, 0.5]",0,1,0,9,9,9,0,1,1,0,,,,,,,,,,,,,,,,,,,,,,,,,,,,,,,,,,,,,,,,,,,,,,,,,,,,,,,,,,,,,,,224.04460989799918,None,224.04460989799918,None,224.04460989799918,None,h,1,0.9910854529989592,225.58161873399877,None,225.58161873399877,None,225.58161873399877,None,226.63004249300138,None,226.63004249300138,None,226.63004249300138,None,226.63004249300138,None,,,,,,,,,,,,,,,,,,,,,,,,,,,,,,,,,,,,,,,,,,,,001,73,2020_Feb_04_1634,spring_faces,3.1.5,60.071234391551755,
condition files/Stage0b_1.xlsx,0b,none,beta,g,"['h', 'g']","['Chess', 'Go']","[-0.15, 0.5]","[0.15, 0.5]",0,1,0,10,10,10,0,0,0,1,,,,,,,,,,,,,,,,,,,,,,,,,,,,,,,,,,,,,,,,,,,,,,,,,,,,,,,,,,,,,,,228.6123729589999,None,228.6123729589999,None,228.6123729589999,None,g,1,0.5713441190018784,230.14533357500113,None,230.14533357500113,None,230.14533357500113,None,230.77842672800034,None,230.77842672800034,None,230.77842672800034,None,230.77842672800034,None,,,,,,,,,,,,,,,,,,,,,,,,,,,,,,,,,,,,,,,,,,,,001,73,2020_Feb_04_1634,spring_faces,3.1.5,60.071234391551755,
condition files/Stage0b_1.xlsx,0b,alpha,none,h,"['h', 'g']","['Chess', 'Go']","[-0.15, 0.5]","[0.15, 0.5]",1,0,0,10,10,10,0,1,1,0,,,,,,,,,,,,,,,,,,,,,,,,,,,,,,,,,,,,,,,,,,,,,,,,,,,,,,,,,,,,,,,232.7454598309996,None,232.7454598309996,None,232.7454598309996,None,h,1,0.5329142029986542,234.2956696399997,None,234.2956696399997,None,234.2956696399997,None,234.88379518900183,None,234.88379518900183,None,234.88379518900183,None,234.88379518900183,None,,,,,,,,,,,,,,,,,,,,,,,,,,,,,,,,,,,,,,,,,,,,001,73,2020_Feb_04_1634,spring_faces,3.1.5,60.071234391551755,
condition files/Stage0b_2.xlsx,0b,beta,none,g,"['h', 'g']","['Chess', 'Go']","[-0.15, 0.5]","[0.15, 0.5]",1,0,0,11,11,11,0,0,0,1,,,,,,,,,,,,,,,,,,,,,,,,,,,,,,,,,,,,,,,,,,,,,,,,,,,,,,,,,,,,,,,236.86241880300076,None,236.86241880300076,None,236.86241880300076,None,g,1,3.3295691720013565,238.39509664900106,None,238.39509664900106,None,238.39509664900106,None,241.7781232849993,None,241.7781232849993,None,241.7781232849993,None,241.7781232849993,None,,,,,,,,,,,,,,,,,,,,,,,,,,,,,,,,,,,,,,,,,,,,001,73,2020_Feb_04_1634,spring_faces,3.1.5,60.071234391551755,
condition files/Stage0b_2.xlsx,0b,none,alpha,h,"['h', 'g']","['Chess', 'Go']","[-0.15, 0.5]","[0.15, 0.5]",0,1,0,11,11,11,0,1,1,0,,,,,,,,,,,,,,,,,,,,,,,,,,,,,,,,,,,,,,,,,,,,,,,,,,,,,,,,,,,,,,,243.74488668599952,None,243.74488668599952,None,243.74488668599952,None,h,1,0.5530412990010518,245.28365978900183,None,245.28365978900183,None,245.28365978900183,None,245.9008086190006,None,245.9008086190006,None,245.9008086190006,None,245.9008086190006,None,,,,,,,,,,,,,,,,,,,,,,,,,,,,,,,,,,,,,,,,,,,,001,73,2020_Feb_04_1634,spring_faces,3.1.5,60.071234391551755,
condition files/Stage0c_1.xlsx,0c,theta,alpha,h,"['h', 'g']","['Chess', 'Go']","[-0.15, 0.5]","[0.15, 0.5]",1,1,0,12,12,12,0,0,0,0,,,,,,,,,,,,,,,,,,,,,,,,,,,,,,,,,,,,,,,,,,,,,,,,,,,,,,,,,,,,,,,247.87827997299974,None,247.87827997299974,None,247.87827997299974,None,h,1,3.912184945002082,249.41238010600136,None,249.41238010600136,None,249.41238010600136,None,253.37879237400193,None,253.37879237400193,None,253.37879237400193,None,253.37879237400193,None,,,,,,,,,,,,,,,,,,,,,,,,,,,,,,,,,,,,,,,,,,,,001,73,2020_Feb_04_1634,spring_faces,3.1.5,60.071234391551755,
condition files/Stage0c_1.xlsx,0c,alpha,phi,h,"['h', 'g']","['Chess', 'Go']","[-0.15, 0.5]","[0.15, 0.5]",1,1,0,12,12,12,0,1,1,1,,,,,,,,,,,,,,,,,,,,,,,,,,,,,,,,,,,,,,,,,,,,,,,,,,,,,,,,,,,,,,,255.3455522180011,None,255.3455522180011,None,255.3455522180011,None,h,1,1.1503956189990276,256.87829850300113,None,256.87829850300113,None,256.87829850300113,None,258.0786020420019,None,258.0786020420019,None,258.0786020420019,None,258.0786020420019,None,,,,,,,,,,,,,,,,,,,,,,,,,,,,,,,,,,,,,,,,,,,,001,73,2020_Feb_04_1634,spring_faces,3.1.5,60.071234391551755,
condition files/Stage0c_1.xlsx,0c,phi,beta,g,"['h', 'g']","['Chess', 'Go']","[-0.15, 0.5]","[0.15, 0.5]",1,1,0,12,12,12,0,2,2,3,,,,,,,,,,,,,,,,,,,,,,,,,,,,,,,,,,,,,,,,,,,,,,,,,,,,,,,,,,,,,,,260.045193558999,None,260.045193558999,None,260.045193558999,None,g,1,0.6261057850024372,261.5786196529989,None,261.5786196529989,None,261.5786196529989,None,262.26152840000213,None,262.26152840000213,None,262.26152840000213,None,262.26152840000213,None,,,,,,,,,,,,,,,,,,,,,,,,,,,,,,,,,,,,,,,,,,,,001,73,2020_Feb_04_1634,spring_faces,3.1.5,60.071234391551755,
condition files/Stage0c_1.xlsx,0c,beta,theta,g,"['h', 'g']","['Chess', 'Go']","[-0.15, 0.5]","[0.15, 0.5]",1,1,0,12,12,12,0,3,3,2,,,,,,,,,,,,,,,,,,,,,,,,,,,,,,,,,,,,,,,,,,,,,,,,,,,,,,,,,,,,,,,264.2284438259994,None,264.2284438259994,None,264.2284438259994,None,g,1,0.5710264539993659,265.7616582490009,None,265.7616582490009,None,265.7616582490009,None,266.38237307700183,None,266.38237307700183,None,266.38237307700183,None,266.38237307700183,None,,,,,,,,,,,,,,,,,,,,,,,,,,,,,,,,,,,,,,,,,,,,001,73,2020_Feb_04_1634,spring_faces,3.1.5,60.071234391551755,
condition files/Stage0c_2.xlsx,0c,theta,beta,g,"['h', 'g']","['Chess', 'Go']","[-0.15, 0.5]","[0.15, 0.5]",1,1,0,13,13,13,0,0,0,2,,,,,,,,,,,,,,,,,,,,,,,,,,,,,,,,,,,,,,,,,,,,,,,,,,,,,,,,,,,,,,,268.37906257000213,None,268.37906257000213,None,268.37906257000213,None,g,1,0.7249008949984272,269.911812008002,None,269.911812008002,None,269.911812008002,None,270.68089779100046,None,270.68089779100046,None,270.68089779100046,None,270.68089779100046,None,,,,,,,,,,,,,,,,,,,,,,,,,,,,,,,,,,,,,,,,,,,,001,73,2020_Feb_04_1634,spring_faces,3.1.5,60.071234391551755,
condition files/Stage0c_2.xlsx,0c,phi,alpha,h,"['h', 'g']","['Chess', 'Go']","[-0.15, 0.5]","[0.15, 0.5]",1,1,0,13,13,13,0,1,1,1,,,,,,,,,,,,,,,,,,,,,,,,,,,,,,,,,,,,,,,,,,,,,,,,,,,,,,,,,,,,,,,272.6619128349994,None,272.6619128349994,None,272.6619128349994,None,h,1,0.7452764460031176,274.1953729340021,None,274.1953729340021,None,274.1953729340021,None,274.995578353999,None,274.995578353999,None,274.995578353999,None,274.995578353999,None,,,,,,,,,,,,,,,,,,,,,,,,,,,,,,,,,,,,,,,,,,,,001,73,2020_Feb_04_1634,spring_faces,3.1.5,60.071234391551755,
condition files/Stage0c_2.xlsx,0c,beta,phi,g,"['h', 'g']","['Chess', 'Go']","[-0.15, 0.5]","[0.15, 0.5]",1,1,0,13,13,13,0,2,2,3,,,,,,,,,,,,,,,,,,,,,,,,,,,,,,,,,,,,,,,,,,,,,,,,,,,,,,,,,,,,,,,276.9614719250021,None,276.9614719250021,None,276.9614719250021,None,g,1,1.1809063489999971,278.49572976299896,None,278.49572976299896,None,278.49572976299896,None,279.72860076100187,None,279.72860076100187,None,279.72860076100187,None,279.72860076100187,None,,,,,,,,,,,,,,,,,,,,,,,,,,,,,,,,,,,,,,,,,,,,001,73,2020_Feb_04_1634,spring_faces,3.1.5,60.071234391551755,
condition files/Stage0c_2.xlsx,0c,alpha,theta,h,"['h', 'g']","['Chess', 'Go']","[-0.15, 0.5]","[0.15, 0.5]",1,1,0,13,13,13,0,3,3,0,,,,,,,,,,,,,,,,,,,,,,,,,,,,,,,,,,,,,,,,,,,,,,,,,,,,,,,,,,,,,,,281.6954109620019,None,281.6954109620019,None,281.6954109620019,None,h,1,0.7361390480000409,283.2284944259991,None,283.2284944259991,None,283.2284944259991,None,284.0287616099995,None,284.0287616099995,None,284.0287616099995,None,284.0287616099995,None,,,,,,,,,,,,,,,,,,,,,,,,,,,,,,,,,,,,,,,,,,,,001,73,2020_Feb_04_1634,spring_faces,3.1.5,60.071234391551755,
condition files/Stage0c_1.xlsx,0c,phi,beta,g,"['h', 'g']","['Chess', 'Go']","[-0.15, 0.5]","[0.15, 0.5]",1,1,0,14,14,14,0,0,0,3,,,,,,,,,,,,,,,,,,,,,,,,,,,,,,,,,,,,,,,,,,,,,,,,,,,,,,,,,,,,,,,286.0119090049993,None,286.0119090049993,None,286.0119090049993,None,g,1,1.0750972210007603,287.5454626989995,None,287.5454626989995,None,287.5454626989995,None,288.67881565100106,None,288.67881565100106,None,288.67881565100106,None,288.67881565100106,None,,,,,,,,,,,,,,,,,,,,,,,,,,,,,,,,,,,,,,,,,,,,001,73,2020_Feb_04_1634,spring_faces,3.1.5,60.071234391551755,
condition files/Stage0c_1.xlsx,0c,alpha,phi,h,"['h', 'g']","['Chess', 'Go']","[-0.15, 0.5]","[0.15, 0.5]",1,1,0,14,14,14,0,1,1,1,,,,,,,,,,,,,,,,,,,,,,,,,,,,,,,,,,,,,,,,,,,,,,,,,,,,,,,,,,,,,,,290.6446138409992,None,290.6446138409992,None,290.6446138409992,None,h,1,1.0825462799984962,292.17810869800087,None,292.17810869800087,None,292.17810869800087,None,293.3123608499991,None,293.3123608499991,None,293.3123608499991,None,293.3123608499991,None,,,,,,,,,,,,,,,,,,,,,,,,,,,,,,,,,,,,,,,,,,,,001,73,2020_Feb_04_1634,spring_faces,3.1.5,60.071234391551755,
condition files/Stage0c_1.xlsx,0c,theta,alpha,h,"['h', 'g']","['Chess', 'Go']","[-0.15, 0.5]","[0.15, 0.5]",1,1,0,14,14,14,0,2,2,0,,,,,,,,,,,,,,,,,,,,,,,,,,,,,,,,,,,,,,,,,,,,,,,,,,,,,,,,,,,,,,,295.27836204100095,None,295.27836204100095,None,295.27836204100095,None,h,1,0.9126552429988806,296.81197871399854,None,296.81197871399854,None,296.81197871399854,None,297.76514713399956,None,297.76514713399956,None,297.76514713399956,None,297.76514713399956,None,,,,,,,,,,,,,,,,,,,,,,,,,,,,,,,,,,,,,,,,,,,,001,73,2020_Feb_04_1634,spring_faces,3.1.5,60.071234391551755,
condition files/Stage0c_1.xlsx,0c,beta,theta,g,"['h', 'g']","['Chess', 'Go']","[-0.15, 0.5]","[0.15, 0.5]",1,1,0,14,14,14,0,3,3,2,,,,,,,,,,,,,,,,,,,,,,,,,,,,,,,,,,,,,,,,,,,,,,,,,,,,,,,,,,,,,,,299.76219768100054,None,299.76219768100054,None,299.76219768100054,None,g,1,0.766368844997487,301.27830259999973,None,301.27830259999973,None,301.27830259999973,None,302.09530089500186,None,302.09530089500186,None,302.09530089500186,None,302.09530089500186,None,,,,,,,,,,,,,,,,,,,,,,,,,,,,,,,,,,,,,,,,,,,,001,73,2020_Feb_04_1634,spring_faces,3.1.5,60.071234391551755,
condition files/Stage0c_2.xlsx,0c,beta,phi,g,"['h', 'g']","['Chess', 'Go']","[-0.15, 0.5]","[0.15, 0.5]",1,1,0,15,15,15,0,0,0,3,,,,,,,,,,,,,,,,,,,,,,,,,,,,,,,,,,,,,,,,,,,,,,,,,,,,,,,,,,,,,,,304.079020322999,None,304.079020322999,None,304.079020322999,None,g,1,0.8004645369983336,305.6121348029992,None,305.6121348029992,None,305.6121348029992,None,306.46207898300054,None,306.46207898300054,None,306.46207898300054,None,306.46207898300054,None,,,,,,,,,,,,,,,,,,,,,,,,,,,,,,,,,,,,,,,,,,,,001,73,2020_Feb_04_1634,spring_faces,3.1.5,60.071234391551755,
condition files/Stage0c_2.xlsx,0c,phi,alpha,h,"['h', 'g']","['Chess', 'Go']","[-0.15, 0.5]","[0.15, 0.5]",1,1,0,15,15,15,0,1,1,1,,,,,,,,,,,,,,,,,,,,,,,,,,,,,,,,,,,,,,,,,,,,,,,,,,,,,,,,,,,,,,,308.445626105,None,308.445626105,None,308.445626105,None,h,1,0.9778147559991339,309.9788009900003,None,309.9788009900003,None,309.9788009900003,None,311.01157056100055,None,311.01157056100055,None,311.01157056100055,None,311.01157056100055,None,,,,,,,,,,,,,,,,,,,,,,,,,,,,,,,,,,,,,,,,,,,,001,73,2020_Feb_04_1634,spring_faces,3.1.5,60.071234391551755,
condition files/Stage0c_2.xlsx,0c,alpha,theta,h,"['h', 'g']","['Chess', 'Go']","[-0.15, 0.5]","[0.15, 0.5]",1,1,0,15,15,15,0,2,2,0,,,,,,,,,,,,,,,,,,,,,,,,,,,,,,,,,,,,,,,,,,,,,,,,,,,,,,,,,,,,,,,312.9787021359989,None,312.9787021359989,None,312.9787021359989,None,h,1,0.5242903980033589,314.51240707000034,None,314.51240707000034,None,314.51240707000034,None,315.0807520849994,None,315.0807520849994,None,315.0807520849994,None,315.0807520849994,None,,,,,,,,,,,,,,,,,,,,,,,,,,,,,,,,,,,,,,,,,,,,001,73,2020_Feb_04_1634,spring_faces,3.1.5,60.071234391551755,
condition files/Stage0c_2.xlsx,0c,theta,beta,g,"['h', 'g']","['Chess', 'Go']","[-0.15, 0.5]","[0.15, 0.5]",1,1,0,15,15,15,0,3,3,2,,,,,,,,,,,,,,,,,,,,,,,,,,,,,,,,,,,,,,,,,,,,,,,,,,,,,,,,,,,,,,,317.06156676500177,None,317.06156676500177,None,317.06156676500177,None,g,1,0.6817494259994419,318.594885327002,None,318.594885327002,None,318.594885327002,None,319.3285379779991,None,319.3285379779991,None,319.3285379779991,None,319.3285379779991,None,,,,,,,,,,,,,,,,,,,,,,,,,,,,,,,,,,,,,,,,,,,,001,73,2020_Feb_04_1634,spring_faces,3.1.5,60.071234391551755,
condition files/Stage0c_1.xlsx,0c,alpha,phi,h,"['h', 'g']","['Chess', 'Go']","[-0.15, 0.5]","[0.15, 0.5]",1,1,0,16,16,16,0,0,0,1,,,,,,,,,,,,,,,,,,,,,,,,,,,,,,,,,,,,,,,,,,,,,,,,,,,,,,,,,,,,,,,321.31203008300145,None,321.31203008300145,None,321.31203008300145,None,h,1,0.9756436089992349,322.84506220299954,None,322.84506220299954,None,322.84506220299954,None,323.8788130210014,None,323.8788130210014,None,323.8788130210014,None,323.8788130210014,None,,,,,,,,,,,,,,,,,,,,,,,,,,,,,,,,,,,,,,,,,,,,001,73,2020_Feb_04_1634,spring_faces,3.1.5,60.071234391551755,
condition files/Stage0c_1.xlsx,0c,theta,alpha,h,"['h', 'g']","['Chess', 'Go']","[-0.15, 0.5]","[0.15, 0.5]",1,1,0,16,16,16,0,1,1,0,,,,,,,,,,,,,,,,,,,,,,,,,,,,,,,,,,,,,,,,,,,,,,,,,,,,,,,,,,,,,,,325.84557792600026,None,325.84557792600026,None,325.84557792600026,None,h,1,0.6817021380011283,327.37895625300007,None,327.37895625300007,None,327.37895625300007,None,328.09712255200066,None,328.09712255200066,None,328.09712255200066,None,328.09712255200066,None,,,,,,,,,,,,,,,,,,,,,,,,,,,,,,,,,,,,,,,,,,,,001,73,2020_Feb_04_1634,spring_faces,3.1.5,60.071234391551755,
condition files/Stage0c_1.xlsx,0c,beta,theta,g,"['h', 'g']","['Chess', 'Go']","[-0.15, 0.5]","[0.15, 0.5]",1,1,0,16,16,16,0,2,2,2,,,,,,,,,,,,,,,,,,,,,,,,,,,,,,,,,,,,,,,,,,,,,,,,,,,,,,,,,,,,,,,330.0781628709992,None,330.0781628709992,None,330.0781628709992,None,g,1,0.5440913200000068,331.612531281,None,331.612531281,None,331.612531281,None,332.2119090699998,None,332.2119090699998,None,332.2119090699998,None,332.2119090699998,None,,,,,,,,,,,,,,,,,,,,,,,,,,,,,,,,,,,,,,,,,,,,001,73,2020_Feb_04_1634,spring_faces,3.1.5,60.071234391551755,
condition files/Stage0c_1.xlsx,0c,phi,beta,g,"['h', 'g']","['Chess', 'Go']","[-0.15, 0.5]","[0.15, 0.5]",1,1,0,16,16,16,0,3,3,3,,,,,,,,,,,,,,,,,,,,,,,,,,,,,,,,,,,,,,,,,,,,,,,,,,,,,,,,,,,,,,,334.17860695200216,None,334.17860695200216,None,334.17860695200216,None,g,1,1.148590176999278,335.71208047300024,None,335.71208047300024,None,335.71208047300024,None,336.8980550910019,None,336.8980550910019,None,336.8980550910019,None,336.8980550910019,None,,,,,,,,,,,,,,,,,,,,,,,,,,,,,,,,,,,,,,,,,,,,001,73,2020_Feb_04_1634,spring_faces,3.1.5,60.071234391551755,
condition files/Stage0c_2.xlsx,0c,theta,beta,g,"['h', 'g']","['Chess', 'Go']","[-0.15, 0.5]","[0.15, 0.5]",1,1,0,17,17,17,0,0,0,2,,,,,,,,,,,,,,,,,,,,,,,,,,,,,,,,,,,,,,,,,,,,,,,,,,,,,,,,,,,,,,,338.8952438939996,None,338.8952438939996,None,338.8952438939996,None,g,1,1.055415074002667,340.4292509420011,None,340.4292509420011,None,340.4292509420011,None,341.5303636230019,None,341.5303636230019,None,341.5303636230019,None,341.5303636230019,None,,,,,,,,,,,,,,,,,,,,,,,,,,,,,,,,,,,,,,,,,,,,001,73,2020_Feb_04_1634,spring_faces,3.1.5,60.071234391551755,
condition files/Stage0c_2.xlsx,0c,phi,alpha,h,"['h', 'g']","['Chess', 'Go']","[-0.15, 0.5]","[0.15, 0.5]",1,1,0,17,17,17,0,1,1,1,,,,,,,,,,,,,,,,,,,,,,,,,,,,,,,,,,,,,,,,,,,,,,,,,,,,,,,,,,,,,,,343.5118612760016,None,343.5118612760016,None,343.5118612760016,None,h,1,0.791202232001524,345.04549337999924,None,345.04549337999924,None,345.04549337999924,None,345.89488307099964,None,345.89488307099964,None,345.89488307099964,None,345.89488307099964,None,,,,,,,,,,,,,,,,,,,,,,,,,,,,,,,,,,,,,,,,,,,,001,73,2020_Feb_04_1634,spring_faces,3.1.5,60.071234391551755,
condition files/Stage0c_2.xlsx,0c,beta,phi,g,"['h', 'g']","['Chess', 'Go']","[-0.15, 0.5]","[0.15, 0.5]",1,1,0,17,17,17,0,2,2,3,,,,,,,,,,,,,,,,,,,,,,,,,,,,,,,,,,,,,,,,,,,,,,,,,,,,,,,,,,,,,,,347.8616894049992,None,347.8616894049992,None,347.8616894049992,None,g,1,0.5850612100002763,349.39553059800164,None,349.39553059800164,None,349.39553059800164,None,350.0456686969992,None,350.0456686969992,None,350.0456686969992,None,350.0456686969992,None,,,,,,,,,,,,,,,,,,,,,,,,,,,,,,,,,,,,,,,,,,,,001,73,2020_Feb_04_1634,spring_faces,3.1.5,60.071234391551755,
condition files/Stage0c_2.xlsx,0c,alpha,theta,h,"['h', 'g']","['Chess', 'Go']","[-0.15, 0.5]","[0.15, 0.5]",1,1,0,17,17,17,0,3,3,0,,,,,,,,,,,,,,,,,,,,,,,,,,,,,,,,,,,,,,,,,,,,,,,,,,,,,,,,,,,,,,,352.0119914079987,None,352.0119914079987,None,352.0119914079987,None,h,1,0.7236284520004119,353.5450289319997,None,353.5450289319997,None,353.5450289319997,None,354.3287353090018,None,354.3287353090018,None,354.3287353090018,None,354.3287353090018,None,,,,,,,,,,,,,,,,,,,,,,,,,,,,,,,,,,,,,,,,,,,,001,73,2020_Feb_04_1634,spring_faces,3.1.5,60.071234391551755,
,,,,,,,,,,,,,,,,,,,,,,,,,,,,,,,,,,,,,,,,,,,,,,,,,,,,,,,,,,,,,,,,,,,,,,,,,,,,,,,,,,,,,,,,,,,,,,,,,,,,,,,,356.3123613630014,None,space,2.220670575999975,361.3120140350002,None,,,,,,,,,,,,,,,,,,,,,,,,,,,,,,,,,,,,,,001,73,2020_Feb_04_1634,spring_faces,3.1.5,60.071234391551755,
condition files/Stage1_1.xlsx,,T3,B4,c,"['c', 'm']","['Clue', 'Monopoly']","[-0.15, 0.5]","[0.15, 0.5]",1,1,,,,,,,,,0,0,0,0,0,0,0,5,,,,,,,,,,,,,,,,,,,,,,,,,,,,,,,,,,,,,,,,,,,,,,,,,,,,,,,363.5954269489994,None,363.5954269489994,None,363.5954269489994,None,m,0,2.5000946119980654,365.1125189500017,None,365.1125189500017,None,365.1125189500017,None,367.6951900560016,None,367.6951900560016,None,367.6951900560016,None,367.6951900560016,None,,,,,,,361.3120140350002,None,,,,,,,,,,,,,,,,,,,,,,,,,,,,,,,,,,,,001,73,2020_Feb_04_1634,spring_faces,3.1.5,60.071234391551755,
condition files/Stage1_1.xlsx,,T4,B3,m,"['c', 'm']","['Clue', 'Monopoly']","[-0.15, 0.5]","[0.15, 0.5]",1,1,,,,,,,,,0,0,0,0,0,1,1,6,,,,,,,,,,,,,,,,,,,,,,,,,,,,,,,,,,,,,,,,,,,,,,,,,,,,,,,369.64541825000197,None,369.64541825000197,None,369.64541825000197,None,m,1,1.5219423990020005,371.17873882999993,None,371.17873882999993,None,371.17873882999993,None,372.77822147700135,None,372.77822147700135,None,372.77822147700135,None,372.77822147700135,None,,,,,,,,,,,,,,,,,,,,,,,,,,,,,,,,,,,,,,,,,,,,001,73,2020_Feb_04_1634,spring_faces,3.1.5,60.071234391551755,
condition files/Stage1_1.xlsx,,B1,T2,c,"['c', 'm']","['Clue', 'Monopoly']","[-0.15, 0.5]","[0.15, 0.5]",1,1,,,,,,,,,0,0,0,0,0,2,2,1,,,,,,,,,,,,,,,,,,,,,,,,,,,,,,,,,,,,,,,,,,,,,,,,,,,,,,,374.72877333200086,None,374.72877333200086,None,374.72877333200086,None,c,1,0.8863405420015624,376.2623479870017,None,376.2623479870017,None,376.2623479870017,None,377.2127856650004,None,377.2127856650004,None,377.2127856650004,None,377.2127856650004,None,,,,,,,,,,,,,,,,,,,,,,,,,,,,,,,,,,,,,,,,,,,,001,73,2020_Feb_04_1634,spring_faces,3.1.5,60.071234391551755,
condition files/Stage1_1.xlsx,,T1,B1,c,"['c', 'm']","['Clue', 'Monopoly']","[-0.15, 0.5]","[0.15, 0.5]",1,1,,,,,,,,,0,0,0,0,0,3,3,0,,,,,,,,,,,,,,,,,,,,,,,,,,,,,,,,,,,,,,,,,,,,,,,,,,,,,,,379.17864580400055,None,379.17864580400055,None,379.17864580400055,None,c,1,1.3954202490021999,380.7132280680016,None,380.7132280680016,None,380.7132280680016,None,382.16186184600156,None,382.16186184600156,None,382.16186184600156,None,382.16186184600156,None,,,,,,,,,,,,,,,,,,,,,,,,,,,,,,,,,,,,,,,,,,,,001,73,2020_Feb_04_1634,spring_faces,3.1.5,60.071234391551755,
condition files/Stage1_1.xlsx,,B3,T3,c,"['c', 'm']","['Clue', 'Monopoly']","[-0.15, 0.5]","[0.15, 0.5]",1,1,,,,,,,,,0,0,0,0,0,4,4,4,,,,,,,,,,,,,,,,,,,,,,,,,,,,,,,,,,,,,,,,,,,,,,,,,,,,,,,384.1290450359993,None,384.1290450359993,None,384.1290450359993,None,m,0,1.9342847000007168,385.67832096500206,None,385.67832096500206,None,385.67832096500206,None,387.6789108810008,None,387.6789108810008,None,387.6789108810008,None,387.6789108810008,None,,,,,,,,,,,,,,,,,,,,,,,,,,,,,,,,,,,,,,,,,,,,001,73,2020_Feb_04_1634,spring_faces,3.1.5,60.071234391551755,
condition files/Stage1_1.xlsx,,B2,T1,m,"['c', 'm']","['Clue', 'Monopoly']","[-0.15, 0.5]","[0.15, 0.5]",1,1,,,,,,,,,0,0,0,0,0,5,5,2,,,,,,,,,,,,,,,,,,,,,,,,,,,,,,,,,,,,,,,,,,,,,,,,,,,,,,,389.64506411600087,None,389.64506411600087,None,389.64506411600087,None,m,1,1.6000510519988893,391.1805892929988,None,391.1805892929988,None,391.1805892929988,None,392.845857581,None,392.845857581,None,392.845857581,None,392.845857581,None,,,,,,,,,,,,,,,,,,,,,,,,,,,,,,,,,,,,,,,,,,,,001,73,2020_Feb_04_1634,spring_faces,3.1.5,60.071234391551755,
condition files/Stage1_1.xlsx,,T2,B2,m,"['c', 'm']","['Clue', 'Monopoly']","[-0.15, 0.5]","[0.15, 0.5]",1,1,,,,,,,,,0,0,0,0,0,6,6,3,,,,,,,,,,,,,,,,,,,,,,,,,,,,,,,,,,,,,,,,,,,,,,,,,,,,,,,394.81195978100004,None,394.81195978100004,None,394.81195978100004,None,m,1,2.242630894998001,396.3620975820013,None,396.3620975820013,None,396.3620975820013,None,398.66204420400027,None,398.66204420400027,None,398.66204420400027,None,398.66204420400027,None,,,,,,,,,,,,,,,,,,,,,,,,,,,,,,,,,,,,,,,,,,,,001,73,2020_Feb_04_1634,spring_faces,3.1.5,60.071234391551755,
condition files/Stage1_1.xlsx,,B4,T4,m,"['c', 'm']","['Clue', 'Monopoly']","[-0.15, 0.5]","[0.15, 0.5]",1,1,,,,,,,,,0,0,0,0,0,7,7,7,,,,,,,,,,,,,,,,,,,,,,,,,,,,,,,,,,,,,,,,,,,,,,,,,,,,,,,400.6287262670012,None,400.6287262670012,None,400.6287262670012,None,c,0,2.1862263650000386,402.17841481399955,None,402.17841481399955,None,402.17841481399955,None,404.4291579130004,None,404.4291579130004,None,404.4291579130004,None,404.4291579130004,None,,,,,,,,,,,,,,,,,,,,,,,,,,,,,,,,,,,,,,,,,,,,001,73,2020_Feb_04_1634,spring_faces,3.1.5,60.071234391551755,
condition files/Stage1_2.xlsx,,T2,B1,c,"['c', 'm']","['Clue', 'Monopoly']","[-0.15, 0.5]","[0.15, 0.5]",1,1,,,,,,,,,0,1,1,1,0,0,0,1,,,,,,,,,,,,,,,,,,,,,,,,,,,,,,,,,,,,,,,,,,,,,,,,,,,,,,,406.4123372540016,None,406.4123372540016,None,406.4123372540016,None,c,1,2.066761575999408,407.9619266869995,None,407.9619266869995,None,407.9619266869995,None,410.0794907800009,None,410.0794907800009,None,410.0794907800009,None,410.0794907800009,None,,,,,,,,,,,,,,,,,,,,,,,,,,,,,,,,,,,,,,,,,,,,001,73,2020_Feb_04_1634,spring_faces,3.1.5,60.071234391551755,
condition files/Stage1_2.xlsx,,B3,T4,m,"['c', 'm']","['Clue', 'Monopoly']","[-0.15, 0.5]","[0.15, 0.5]",1,1,,,,,,,,,0,1,1,1,0,1,1,6,,,,,,,,,,,,,,,,,,,,,,,,,,,,,,,,,,,,,,,,,,,,,,,,,,,,,,,412.0447769099992,None,412.0447769099992,None,412.0447769099992,None,m,1,3.1683731939992867,413.5803014640005,None,413.5803014640005,None,413.5803014640005,None,416.81225457500113,None,416.81225457500113,None,416.81225457500113,None,416.81225457500113,None,,,,,,,,,,,,,,,,,,,,,,,,,,,,,,,,,,,,,,,,,,,,001,73,2020_Feb_04_1634,spring_faces,3.1.5,60.071234391551755,
condition files/Stage1_2.xlsx,,B4,T3,c,"['c', 'm']","['Clue', 'Monopoly']","[-0.15, 0.5]","[0.15, 0.5]",1,1,,,,,,,,,0,1,1,1,0,2,2,5,,,,,,,,,,,,,,,,,,,,,,,,,,,,,,,,,,,,,,,,,,,,,,,,,,,,,,,418.7786064319989,None,418.7786064319989,None,418.7786064319989,None,c,1,1.410976031998871,420.3136822910019,None,420.3136822910019,None,420.3136822910019,None,421.7812447670003,None,421.7812447670003,None,421.7812447670003,None,421.7812447670003,None,,,,,,,,,,,,,,,,,,,,,,,,,,,,,,,,,,,,,,,,,,,,001,73,2020_Feb_04_1634,spring_faces,3.1.5,60.071234391551755,
condition files/Stage1_2.xlsx,,T4,B4,m,"['c', 'm']","['Clue', 'Monopoly']","[-0.15, 0.5]","[0.15, 0.5]",1,1,,,,,,,,,0,1,1,1,0,3,3,7,,,,,,,,,,,,,,,,,,,,,,,,,,,,,,,,,,,,,,,,,,,,,,,,,,,,,,,423.7453808319988,None,423.7453808319988,None,423.7453808319988,None,c,0,1.837218512999243,425.29544967499896,None,425.29544967499896,None,425.29544967499896,None,427.21163785500175,None,427.21163785500175,None,427.21163785500175,None,427.21163785500175,None,,,,,,,,,,,,,,,,,,,,,,,,,,,,,,,,,,,,,,,,,,,,001,73,2020_Feb_04_1634,spring_faces,3.1.5,60.071234391551755,
condition files/Stage1_2.xlsx,,B2,T2,m,"['c', 'm']","['Clue', 'Monopoly']","[-0.15, 0.5]","[0.15, 0.5]",1,1,,,,,,,,,0,1,1,1,0,4,4,3,,,,,,,,,,,,,,,,,,,,,,,,,,,,,,,,,,,,,,,,,,,,,,,,,,,,,,,429.1619636680007,None,429.1619636680007,None,429.1619636680007,None,m,1,2.1483321669984434,430.6963541590012,None,430.6963541590012,None,430.6963541590012,None,432.89538251200065,None,432.89538251200065,None,432.89538251200065,None,432.89538251200065,None,,,,,,,,,,,,,,,,,,,,,,,,,,,,,,,,,,,,,,,,,,,,001,73,2020_Feb_04_1634,spring_faces,3.1.5,60.071234391551755,
condition files/Stage1_2.xlsx,,T3,B3,c,"['c', 'm']","['Clue', 'Monopoly']","[-0.15, 0.5]","[0.15, 0.5]",1,1,,,,,,,,,0,1,1,1,0,5,5,4,,,,,,,,,,,,,,,,,,,,,,,,,,,,,,,,,,,,,,,,,,,,,,,,,,,,,,,434.8619313900017,None,434.8619313900017,None,434.8619313900017,None,c,1,0.8796006020020286,436.3970598019987,None,436.3970598019987,None,436.3970598019987,None,437.32885610200174,None,437.32885610200174,None,437.32885610200174,None,437.32885610200174,None,,,,,,,,,,,,,,,,,,,,,,,,,,,,,,,,,,,,,,,,,,,,001,73,2020_Feb_04_1634,spring_faces,3.1.5,60.071234391551755,
condition files/Stage1_2.xlsx,,B1,T1,c,"['c', 'm']","['Clue', 'Monopoly']","[-0.15, 0.5]","[0.15, 0.5]",1,1,,,,,,,,,0,1,1,1,0,6,6,0,,,,,,,,,,,,,,,,,,,,,,,,,,,,,,,,,,,,,,,,,,,,,,,,,,,,,,,439.29520578600204,None,439.29520578600204,None,439.29520578600204,None,c,1,1.7910265099999378,440.8456783770016,None,440.8456783770016,None,440.8456783770016,None,442.6954054730013,None,442.6954054730013,None,442.6954054730013,None,442.6954054730013,None,,,,,,,,,,,,,,,,,,,,,,,,,,,,,,,,,,,,,,,,,,,,001,73,2020_Feb_04_1634,spring_faces,3.1.5,60.071234391551755,
condition files/Stage1_2.xlsx,,T1,B2,m,"['c', 'm']","['Clue', 'Monopoly']","[-0.15, 0.5]","[0.15, 0.5]",1,1,,,,,,,,,0,1,1,1,0,7,7,2,,,,,,,,,,,,,,,,,,,,,,,,,,,,,,,,,,,,,,,,,,,,,,,,,,,,,,,444.66190937899955,None,444.66190937899955,None,444.66190937899955,None,c,0,2.1366906740004197,446.2119803700007,None,446.2119803700007,None,446.2119803700007,None,448.4139135049991,None,448.4139135049991,None,448.4139135049991,None,448.4139135049991,None,,,,,,,,,,,,,,,,,,,,,,,,,,,,,,,,,,,,,,,,,,,,001,73,2020_Feb_04_1634,spring_faces,3.1.5,60.071234391551755,
condition files/Stage1_1.xlsx,,T2,B2,m,"['c', 'm']","['Clue', 'Monopoly']","[-0.15, 0.5]","[0.15, 0.5]",1,1,,,,,,,,,0,2,2,2,0,0,0,3,,,,,,,,,,,,,,,,,,,,,,,,,,,,,,,,,,,,,,,,,,,,,,,,,,,,,,,450.39488668000195,None,450.39488668000195,None,450.39488668000195,None,c,0,1.058638479000365,451.9460789420009,None,451.9460789420009,None,451.9460789420009,None,453.06239113099946,None,453.06239113099946,None,453.06239113099946,None,453.06239113099946,None,,,,,,,,,,,,,,,,,,,,,,,,,,,,,,,,,,,,,,,,,,,,001,73,2020_Feb_04_1634,spring_faces,3.1.5,60.071234391551755,
condition files/Stage1_1.xlsx,,B1,T2,c,"['c', 'm']","['Clue', 'Monopoly']","[-0.15, 0.5]","[0.15, 0.5]",1,1,,,,,,,,,0,2,2,2,0,1,1,1,,,,,,,,,,,,,,,,,,,,,,,,,,,,,,,,,,,,,,,,,,,,,,,,,,,,,,,455.0282028690017,None,455.0282028690017,None,455.0282028690017,None,c,1,0.7617055450027692,456.5788867150004,None,456.5788867150004,None,456.5788867150004,None,457.3983087650013,None,457.3983087650013,None,457.3983087650013,None,457.3983087650013,None,,,,,,,,,,,,,,,,,,,,,,,,,,,,,,,,,,,,,,,,,,,,001,73,2020_Feb_04_1634,spring_faces,3.1.5,60.071234391551755,
condition files/Stage1_1.xlsx,,B2,T1,m,"['c', 'm']","['Clue', 'Monopoly']","[-0.15, 0.5]","[0.15, 0.5]",1,1,,,,,,,,,0,2,2,2,0,2,2,2,,,,,,,,,,,,,,,,,,,,,,,,,,,,,,,,,,,,,,,,,,,,,,,,,,,,,,,459.3621352730006,None,459.3621352730006,None,459.3621352730006,None,m,1,1.6277142460021423,460.89694043599957,None,460.89694043599957,None,460.89694043599957,None,462.59503759600193,None,462.59503759600193,None,462.59503759600193,None,462.59503759600193,None,,,,,,,,,,,,,,,,,,,,,,,,,,,,,,,,,,,,,,,,,,,,001,73,2020_Feb_04_1634,spring_faces,3.1.5,60.071234391551755,
condition files/Stage1_1.xlsx,,B4,T4,m,"['c', 'm']","['Clue', 'Monopoly']","[-0.15, 0.5]","[0.15, 0.5]",1,1,,,,,,,,,0,2,2,2,0,3,3,7,,,,,,,,,,,,,,,,,,,,,,,,,,,,,,,,,,,,,,,,,,,,,,,,,,,,,,,464.54540472699955,None,464.54540472699955,None,464.54540472699955,None,c,0,1.2287203839987342,466.08007865000036,None,466.08007865000036,None,466.08007865000036,None,467.36136591299874,None,467.36136591299874,None,467.36136591299874,None,467.36136591299874,None,,,,,,,,,,,,,,,,,,,,,,,,,,,,,,,,,,,,,,,,,,,,001,73,2020_Feb_04_1634,spring_faces,3.1.5,60.071234391551755,
condition files/Stage1_1.xlsx,,T3,B4,c,"['c', 'm']","['Clue', 'Monopoly']","[-0.15, 0.5]","[0.15, 0.5]",1,1,,,,,,,,,0,2,2,2,0,4,4,5,,,,,,,,,,,,,,,,,,,,,,,,,,,,,,,,,,,,,,,,,,,,,,,,,,,,,,,469.32861847499953,None,469.32861847499953,None,469.32861847499953,None,c,1,1.5177086209987465,470.8629473410001,None,470.8629473410001,None,470.8629473410001,None,472.46252747200197,None,472.46252747200197,None,472.46252747200197,None,472.46252747200197,None,,,,,,,,,,,,,,,,,,,,,,,,,,,,,,,,,,,,,,,,,,,,001,73,2020_Feb_04_1634,spring_faces,3.1.5,60.071234391551755,
condition files/Stage1_1.xlsx,,T1,B1,c,"['c', 'm']","['Clue', 'Monopoly']","[-0.15, 0.5]","[0.15, 0.5]",1,1,,,,,,,,,0,2,2,2,0,5,5,0,,,,,,,,,,,,,,,,,,,,,,,,,,,,,,,,,,,,,,,,,,,,,,,,,,,,,,,474.41152522300035,None,474.41152522300035,None,474.41152522300035,None,m,0,1.0906273730033718,475.9620721499996,None,475.9620721499996,None,475.9620721499996,None,477.11206780499924,None,477.11206780499924,None,477.11206780499924,None,477.11206780499924,None,,,,,,,,,,,,,,,,,,,,,,,,,,,,,,,,,,,,,,,,,,,,001,73,2020_Feb_04_1634,spring_faces,3.1.5,60.071234391551755,
condition files/Stage1_1.xlsx,,T4,B3,m,"['c', 'm']","['Clue', 'Monopoly']","[-0.15, 0.5]","[0.15, 0.5]",1,1,,,,,,,,,0,2,2,2,0,6,6,6,,,,,,,,,,,,,,,,,,,,,,,,,,,,,,,,,,,,,,,,,,,,,,,,,,,,,,,479.07813289000114,None,479.07813289000114,None,479.07813289000114,None,m,1,1.4008148690008966,480.61179298099887,None,480.61179298099887,None,480.61179298099887,None,482.08139612300147,None,482.08139612300147,None,482.08139612300147,None,482.08139612300147,None,,,,,,,,,,,,,,,,,,,,,,,,,,,,,,,,,,,,,,,,,,,,001,73,2020_Feb_04_1634,spring_faces,3.1.5,60.071234391551755,
condition files/Stage1_1.xlsx,,B3,T3,c,"['c', 'm']","['Clue', 'Monopoly']","[-0.15, 0.5]","[0.15, 0.5]",1,1,,,,,,,,,0,2,2,2,0,7,7,4,,,,,,,,,,,,,,,,,,,,,,,,,,,,,,,,,,,,,,,,,,,,,,,,,,,,,,,484.0449841340014,None,484.0449841340014,None,484.0449841340014,None,c,1,0.8807313289980812,485.579951478001,None,485.579951478001,None,485.579951478001,None,486.5114440940015,None,486.5114440940015,None,486.5114440940015,None,486.5114440940015,None,,,,,,,,,,,,,,,,,,,,,,,,,,,,,,,,,,,,,,,,,,,,001,73,2020_Feb_04_1634,spring_faces,3.1.5,60.071234391551755,
condition files/Stage1_2.xlsx,,B2,T2,m,"['c', 'm']","['Clue', 'Monopoly']","[-0.15, 0.5]","[0.15, 0.5]",1,1,,,,,,,,,0,3,3,3,0,0,0,3,,,,,,,,,,,,,,,,,,,,,,,,,,,,,,,,,,,,,,,,,,,,,,,,,,,,,,,488.49499902200114,None,488.49499902200114,None,488.49499902200114,None,m,1,1.6134023160011566,490.0312904800012,None,490.0312904800012,None,490.0312904800012,None,491.7120322010014,None,491.7120322010014,None,491.7120322010014,None,491.7120322010014,None,,,,,,,,,,,,,,,,,,,,,,,,,,,,,,,,,,,,,,,,,,,,001,73,2020_Feb_04_1634,spring_faces,3.1.5,60.071234391551755,
condition files/Stage1_2.xlsx,,B3,T4,m,"['c', 'm']","['Clue', 'Monopoly']","[-0.15, 0.5]","[0.15, 0.5]",1,1,,,,,,,,,0,3,3,3,0,1,1,6,,,,,,,,,,,,,,,,,,,,,,,,,,,,,,,,,,,,,,,,,,,,,,,,,,,,,,,493.6619568189999,None,493.6619568189999,None,493.6619568189999,None,m,1,1.4557648840018373,495.19693703699886,None,495.19693703699886,None,495.19693703699886,None,496.7122024970013,None,496.7122024970013,None,496.7122024970013,None,496.7122024970013,None,,,,,,,,,,,,,,,,,,,,,,,,,,,,,,,,,,,,,,,,,,,,001,73,2020_Feb_04_1634,spring_faces,3.1.5,60.071234391551755,
condition files/Stage1_2.xlsx,,T3,B3,c,"['c', 'm']","['Clue', 'Monopoly']","[-0.15, 0.5]","[0.15, 0.5]",1,1,,,,,,,,,0,3,3,3,0,2,2,4,,,,,,,,,,,,,,,,,,,,,,,,,,,,,,,,,,,,,,,,,,,,,,,,,,,,,,,498.678695437,None,498.678695437,None,498.678695437,None,c,1,0.9050301399984164,500.2116371939992,None,500.2116371939992,None,500.2116371939992,None,501.18032661899997,None,501.18032661899997,None,501.18032661899997,None,501.18032661899997,None,,,,,,,,,,,,,,,,,,,,,,,,,,,,,,,,,,,,,,,,,,,,001,73,2020_Feb_04_1634,spring_faces,3.1.5,60.071234391551755,
condition files/Stage1_2.xlsx,,T1,B2,m,"['c', 'm']","['Clue', 'Monopoly']","[-0.15, 0.5]","[0.15, 0.5]",1,1,,,,,,,,,0,3,3,3,0,3,3,2,,,,,,,,,,,,,,,,,,,,,,,,,,,,,,,,,,,,,,,,,,,,,,,,,,,,,,,503.1456869559988,None,503.1456869559988,None,503.1456869559988,None,m,1,1.2525159710021398,504.68017671300186,None,504.68017671300186,None,504.68017671300186,None,506.01236586600135,None,506.01236586600135,None,506.01236586600135,None,506.01236586600135,None,,,,,,,,,,,,,,,,,,,,,,,,,,,,,,,,,,,,,,,,,,,,001,73,2020_Feb_04_1634,spring_faces,3.1.5,60.071234391551755,
condition files/Stage1_2.xlsx,,B1,T1,c,"['c', 'm']","['Clue', 'Monopoly']","[-0.15, 0.5]","[0.15, 0.5]",1,1,,,,,,,,,0,3,3,3,0,4,4,0,,,,,,,,,,,,,,,,,,,,,,,,,,,,,,,,,,,,,,,,,,,,,,,,,,,,,,,507.9619481350019,None,507.9619481350019,None,507.9619481350019,None,m,0,0.8671853070009092,509.49748462700154,None,509.49748462700154,None,509.49748462700154,None,510.4450971949991,None,510.4450971949991,None,510.4450971949991,None,510.4450971949991,None,,,,,,,,,,,,,,,,,,,,,,,,,,,,,,,,,,,,,,,,,,,,001,73,2020_Feb_04_1634,spring_faces,3.1.5,60.071234391551755,
condition files/Stage1_2.xlsx,,T4,B4,m,"['c', 'm']","['Clue', 'Monopoly']","[-0.15, 0.5]","[0.15, 0.5]",1,1,,,,,,,,,0,3,3,3,0,5,5,7,,,,,,,,,,,,,,,,,,,,,,,,,,,,,,,,,,,,,,,,,,,,,,,,,,,,,,,512.3952380449991,None,512.3952380449991,None,512.3952380449991,None,m,1,1.234995501999947,513.9456147550009,None,513.9456147550009,None,513.9456147550009,None,515.2476770909998,None,515.2476770909998,None,515.2476770909998,None,515.2476770909998,None,,,,,,,,,,,,,,,,,,,,,,,,,,,,,,,,,,,,,,,,,,,,001,73,2020_Feb_04_1634,spring_faces,3.1.5,60.071234391551755,
condition files/Stage1_2.xlsx,,T2,B1,c,"['c', 'm']","['Clue', 'Monopoly']","[-0.15, 0.5]","[0.15, 0.5]",1,1,,,,,,,,,0,3,3,3,0,6,6,1,,,,,,,,,,,,,,,,,,,,,,,,,,,,,,,,,,,,,,,,,,,,,,,,,,,,,,,517.212047858,None,517.212047858,None,517.212047858,None,c,1,1.458504885998991,518.7621967619998,None,518.7621967619998,None,518.7621967619998,None,520.2953520880001,None,520.2953520880001,None,520.2953520880001,None,520.2953520880001,None,,,,,,,,,,,,,,,,,,,,,,,,,,,,,,,,,,,,,,,,,,,,001,73,2020_Feb_04_1634,spring_faces,3.1.5,60.071234391551755,
condition files/Stage1_2.xlsx,,B4,T3,c,"['c', 'm']","['Clue', 'Monopoly']","[-0.15, 0.5]","[0.15, 0.5]",1,1,,,,,,,,,0,3,3,3,0,7,7,5,,,,,,,,,,,,,,,,,,,,,,,,,,,,,,,,,,,,,,,,,,,,,,,,,,,,,,,522.2450173120014,None,522.2450173120014,None,522.2450173120014,None,c,1,0.6656973589997506,523.7949680460006,None,523.7949680460006,None,523.7949680460006,None,524.512071019999,None,524.512071019999,None,524.512071019999,None,524.512071019999,None,,,,,,,,,,,,,,,,,,,,,,,,,,,,,,,,,,,,,,,,,,,,001,73,2020_Feb_04_1634,spring_faces,3.1.5,60.071234391551755,
condition files/Stage1_1.xlsx,,B1,T2,c,"['c', 'm']","['Clue', 'Monopoly']","[-0.15, 0.5]","[0.15, 0.5]",1,1,,,,,,,,,0,4,4,4,0,0,0,1,,,,,,,,,,,,,,,,,,,,,,,,,,,,,,,,,,,,,,,,,,,,,,,,,,,,,,,526.4953638810002,None,526.4953638810002,None,526.4953638810002,None,c,1,1.3271532129983825,528.0455644819995,None,528.0455644819995,None,528.0455644819995,None,529.4288403130013,None,529.4288403130013,None,529.4288403130013,None,529.4288403130013,None,,,,,,,,,,,,,,,,,,,,,,,,,,,,,,,,,,,,,,,,,,,,001,73,2020_Feb_04_1634,spring_faces,3.1.5,60.071234391551755,
condition files/Stage1_1.xlsx,,T3,B4,c,"['c', 'm']","['Clue', 'Monopoly']","[-0.15, 0.5]","[0.15, 0.5]",1,1,,,,,,,,,0,4,4,4,0,1,1,5,,,,,,,,,,,,,,,,,,,,,,,,,,,,,,,,,,,,,,,,,,,,,,,,,,,,,,,531.3946441490007,None,531.3946441490007,None,531.3946441490007,None,m,0,0.9698623449985462,532.9308265110012,None,532.9308265110012,None,532.9308265110012,None,533.9622347770019,None,533.9622347770019,None,533.9622347770019,None,533.9622347770019,None,,,,,,,,,,,,,,,,,,,,,,,,,,,,,,,,,,,,,,,,,,,,001,73,2020_Feb_04_1634,spring_faces,3.1.5,60.071234391551755,
condition files/Stage1_1.xlsx,,B3,T3,c,"['c', 'm']","['Clue', 'Monopoly']","[-0.15, 0.5]","[0.15, 0.5]",1,1,,,,,,,,,0,4,4,4,0,2,2,4,,,,,,,,,,,,,,,,,,,,,,,,,,,,,,,,,,,,,,,,,,,,,,,,,,,,,,,535.9281814589995,None,535.9281814589995,None,535.9281814589995,None,c,1,0.5671231400010583,537.4615619549986,None,537.4615619549986,None,537.4615619549986,None,538.0785240309997,None,538.0785240309997,None,538.0785240309997,None,538.0785240309997,None,,,,,,,,,,,,,,,,,,,,,,,,,,,,,,,,,,,,,,,,,,,,001,73,2020_Feb_04_1634,spring_faces,3.1.5,60.071234391551755,
condition files/Stage1_1.xlsx,,B4,T4,m,"['c', 'm']","['Clue', 'Monopoly']","[-0.15, 0.5]","[0.15, 0.5]",1,1,,,,,,,,,0,4,4,4,0,3,3,7,,,,,,,,,,,,,,,,,,,,,,,,,,,,,,,,,,,,,,,,,,,,,,,,,,,,,,,540.044778124,None,540.044778124,None,540.044778124,None,c,0,1.9370044690003851,541.5956657300012,None,541.5956657300012,None,541.5956657300012,None,543.6122311350009,None,543.6122311350009,None,543.6122311350009,None,543.6122311350009,None,,,,,,,,,,,,,,,,,,,,,,,,,,,,,,,,,,,,,,,,,,,,001,73,2020_Feb_04_1634,spring_faces,3.1.5,60.071234391551755,
condition files/Stage1_1.xlsx,,T2,B2,m,"['c', 'm']","['Clue', 'Monopoly']","[-0.15, 0.5]","[0.15, 0.5]",1,1,,,,,,,,,0,4,4,4,0,4,4,3,,,,,,,,,,,,,,,,,,,,,,,,,,,,,,,,,,,,,,,,,,,,,,,,,,,,,,,545.5621043950014,None,545.5621043950014,None,545.5621043950014,None,c,0,1.9083524750021752,547.1123526720003,None,547.1123526720003,None,547.1123526720003,None,549.0788821419992,None,549.0788821419992,None,549.0788821419992,None,549.0788821419992,None,,,,,,,,,,,,,,,,,,,,,,,,,,,,,,,,,,,,,,,,,,,,001,73,2020_Feb_04_1634,spring_faces,3.1.5,60.071234391551755,
condition files/Stage1_1.xlsx,,T4,B3,m,"['c', 'm']","['Clue', 'Monopoly']","[-0.15, 0.5]","[0.15, 0.5]",1,1,,,,,,,,,0,4,4,4,0,5,5,6,,,,,,,,,,,,,,,,,,,,,,,,,,,,,,,,,,,,,,,,,,,,,,,,,,,,,,,551.0452429680008,None,551.0452429680008,None,551.0452429680008,None,c,0,1.2102990630010027,552.5783826609986,None,552.5783826609986,None,552.5783826609986,None,553.8453258320005,None,553.8453258320005,None,553.8453258320005,None,553.8453258320005,None,,,,,,,,,,,,,,,,,,,,,,,,,,,,,,,,,,,,,,,,,,,,001,73,2020_Feb_04_1634,spring_faces,3.1.5,60.071234391551755,
condition files/Stage1_1.xlsx,,T1,B1,c,"['c', 'm']","['Clue', 'Monopoly']","[-0.15, 0.5]","[0.15, 0.5]",1,1,,,,,,,,,0,4,4,4,0,6,6,0,,,,,,,,,,,,,,,,,,,,,,,,,,,,,,,,,,,,,,,,,,,,,,,,,,,,,,,555.8117964430021,None,555.8117964430021,None,555.8117964430021,None,m,0,0.6039316919996054,557.3447375450014,None,557.3447375450014,None,557.3447375450014,None,558.0125246499992,None,558.0125246499992,None,558.0125246499992,None,558.0125246499992,None,,,,,,,,,,,,,,,,,,,,,,,,,,,,,,,,,,,,,,,,,,,,001,73,2020_Feb_04_1634,spring_faces,3.1.5,60.071234391551755,
condition files/Stage1_1.xlsx,,B2,T1,m,"['c', 'm']","['Clue', 'Monopoly']","[-0.15, 0.5]","[0.15, 0.5]",1,1,,,,,,,,,0,4,4,4,0,7,7,2,,,,,,,,,,,,,,,,,,,,,,,,,,,,,,,,,,,,,,,,,,,,,,,,,,,,,,,559.9786765419994,None,559.9786765419994,None,559.9786765419994,None,c,0,0.40311109400136047,561.5135772300018,None,561.5135772300018,None,561.5135772300018,None,561.9813494180016,None,561.9813494180016,None,561.9813494180016,None,561.9813494180016,None,,,,,,,,,,,,,,,,,,,,,,,,,,,,,,,,,,,,,,,,,,,,001,73,2020_Feb_04_1634,spring_faces,3.1.5,60.071234391551755,
condition files/Stage1_2.xlsx,,T2,B1,c,"['c', 'm']","['Clue', 'Monopoly']","[-0.15, 0.5]","[0.15, 0.5]",1,1,,,,,,,,,0,5,5,5,0,0,0,1,,,,,,,,,,,,,,,,,,,,,,,,,,,,,,,,,,,,,,,,,,,,,,,,,,,,,,,563.9622199600017,None,563.9622199600017,None,563.9622199600017,None,c,1,1.365638029998081,565.4950523709995,None,565.4950523709995,None,565.4950523709995,None,566.9138417249997,None,566.9138417249997,None,566.9138417249997,None,566.9138417249997,None,,,,,,,,,,,,,,,,,,,,,,,,,,,,,,,,,,,,,,,,,,,,001,73,2020_Feb_04_1634,spring_faces,3.1.5,60.071234391551755,
condition files/Stage1_2.xlsx,,B4,T3,c,"['c', 'm']","['Clue', 'Monopoly']","[-0.15, 0.5]","[0.15, 0.5]",1,1,,,,,,,,,0,5,5,5,0,1,1,5,,,,,,,,,,,,,,,,,,,,,,,,,,,,,,,,,,,,,,,,,,,,,,,,,,,,,,,568.878553909999,None,568.878553909999,None,568.878553909999,None,c,1,0.8946018610004103,570.4141239380006,None,570.4141239380006,None,570.4141239380006,None,571.3622945179995,None,571.3622945179995,None,571.3622945179995,None,571.3622945179995,None,,,,,,,,,,,,,,,,,,,,,,,,,,,,,,,,,,,,,,,,,,,,001,73,2020_Feb_04_1634,spring_faces,3.1.5,60.071234391551755,
condition files/Stage1_2.xlsx,,T3,B3,c,"['c', 'm']","['Clue', 'Monopoly']","[-0.15, 0.5]","[0.15, 0.5]",1,1,,,,,,,,,0,5,5,5,0,2,2,4,,,,,,,,,,,,,,,,,,,,,,,,,,,,,,,,,,,,,,,,,,,,,,,,,,,,,,,573.328297606,None,573.328297606,None,573.328297606,None,c,1,0.76589723899815,574.8787730709992,None,574.8787730709992,None,574.8787730709992,None,575.6950795150005,None,575.6950795150005,None,575.6950795150005,None,575.6950795150005,None,,,,,,,,,,,,,,,,,,,,,,,,,,,,,,,,,,,,,,,,,,,,001,73,2020_Feb_04_1634,spring_faces,3.1.5,60.071234391551755,
condition files/Stage1_2.xlsx,,B1,T1,c,"['c', 'm']","['Clue', 'Monopoly']","[-0.15, 0.5]","[0.15, 0.5]",1,1,,,,,,,,,0,5,5,5,0,3,3,0,,,,,,,,,,,,,,,,,,,,,,,,,,,,,,,,,,,,,,,,,,,,,,,,,,,,,,,577.6619380420016,None,577.6619380420016,None,577.6619380420016,None,m,0,1.120855784000014,579.2118194489994,None,579.2118194489994,None,579.2118194489994,None,580.3950352350003,None,580.3950352350003,None,580.3950352350003,None,580.3950352350003,None,,,,,,,,,,,,,,,,,,,,,,,,,,,,,,,,,,,,,,,,,,,,001,73,2020_Feb_04_1634,spring_faces,3.1.5,60.071234391551755,
condition files/Stage1_2.xlsx,,T1,B2,m,"['c', 'm']","['Clue', 'Monopoly']","[-0.15, 0.5]","[0.15, 0.5]",1,1,,,,,,,,,0,5,5,5,0,4,4,2,,,,,,,,,,,,,,,,,,,,,,,,,,,,,,,,,,,,,,,,,,,,,,,,,,,,,,,582.3619382200013,None,582.3619382200013,None,582.3619382200013,None,m,1,1.285402814999543,583.8952419480011,None,583.8952419480011,None,583.8952419480011,None,585.2453880710018,None,585.2453880710018,None,585.2453880710018,None,585.2453880710018,None,,,,,,,,,,,,,,,,,,,,,,,,,,,,,,,,,,,,,,,,,,,,001,73,2020_Feb_04_1634,spring_faces,3.1.5,60.071234391551755,
condition files/Stage1_2.xlsx,,B2,T2,m,"['c', 'm']","['Clue', 'Monopoly']","[-0.15, 0.5]","[0.15, 0.5]",1,1,,,,,,,,,0,5,5,5,0,5,5,3,,,,,,,,,,,,,,,,,,,,,,,,,,,,,,,,,,,,,,,,,,,,,,,,,,,,,,,587.2113181550012,None,587.2113181550012,None,587.2113181550012,None,m,1,1.426464140000462,588.7462583759989,None,588.7462583759989,None,588.7462583759989,None,590.2284558470019,None,590.2284558470019,None,590.2284558470019,None,590.2284558470019,None,,,,,,,,,,,,,,,,,,,,,,,,,,,,,,,,,,,,,,,,,,,,001,73,2020_Feb_04_1634,spring_faces,3.1.5,60.071234391551755,
condition files/Stage1_2.xlsx,,B3,T4,m,"['c', 'm']","['Clue', 'Monopoly']","[-0.15, 0.5]","[0.15, 0.5]",1,1,,,,,,,,,0,5,5,5,0,6,6,6,,,,,,,,,,,,,,,,,,,,,,,,,,,,,,,,,,,,,,,,,,,,,,,,,,,,,,,592.1955210209999,None,592.1955210209999,None,592.1955210209999,None,m,1,2.3453584569979284,593.731308339,None,593.731308339,None,593.731308339,None,596.1285601480013,None,596.1285601480013,None,596.1285601480013,None,596.1285601480013,None,,,,,,,,,,,,,,,,,,,,,,,,,,,,,,,,,,,,,,,,,,,,001,73,2020_Feb_04_1634,spring_faces,3.1.5,60.071234391551755,
condition files/Stage1_2.xlsx,,T4,B4,m,"['c', 'm']","['Clue', 'Monopoly']","[-0.15, 0.5]","[0.15, 0.5]",1,1,,,,,,,,,0,5,5,5,0,7,7,7,,,,,,,,,,,,,,,,,,,,,,,,,,,,,,,,,,,,,,,,,,,,,,,,,,,,,,,598.096043755002,None,598.096043755002,None,598.096043755002,None,m,1,2.0790451419998135,599.6456017269993,None,599.6456017269993,None,599.6456017269993,None,601.7787763720007,None,601.7787763720007,None,601.7787763720007,None,601.7787763720007,None,,,,,,,,,,,,,,,,,,,,,,,,,,,,,,,,,,,,,,,,,,,,001,73,2020_Feb_04_1634,spring_faces,3.1.5,60.071234391551755,
condition files/Stage1_1.xlsx,,T2,B2,m,"['c', 'm']","['Clue', 'Monopoly']","[-0.15, 0.5]","[0.15, 0.5]",1,1,,,,,,,,,0,6,6,6,0,0,0,3,,,,,,,,,,,,,,,,,,,,,,,,,,,,,,,,,,,,,,,,,,,,,,,,,,,,,,,603.762140163999,None,603.762140163999,None,603.762140163999,None,m,1,3.0525996730029874,605.2960953539987,None,605.2960953539987,None,605.2960953539987,None,608.4125986930012,None,608.4125986930012,None,608.4125986930012,None,608.4125986930012,None,,,,,,,,,,,,,,,,,,,,,,,,,,,,,,,,,,,,,,,,,,,,001,73,2020_Feb_04_1634,spring_faces,3.1.5,60.071234391551755,
condition files/Stage1_1.xlsx,,B4,T4,m,"['c', 'm']","['Clue', 'Monopoly']","[-0.15, 0.5]","[0.15, 0.5]",1,1,,,,,,,,,0,6,6,6,0,1,1,7,,,,,,,,,,,,,,,,,,,,,,,,,,,,,,,,,,,,,,,,,,,,,,,,,,,,,,,610.379024842001,None,610.379024842001,None,610.379024842001,None,m,1,1.5077711529993394,611.9289250139991,None,611.9289250139991,None,611.9289250139991,None,613.4955231130007,None,613.4955231130007,None,613.4955231130007,None,613.4955231130007,None,,,,,,,,,,,,,,,,,,,,,,,,,,,,,,,,,,,,,,,,,,,,001,73,2020_Feb_04_1634,spring_faces,3.1.5,60.071234391551755,
condition files/Stage1_1.xlsx,,T3,B4,c,"['c', 'm']","['Clue', 'Monopoly']","[-0.15, 0.5]","[0.15, 0.5]",1,1,,,,,,,,,0,6,6,6,0,2,2,5,,,,,,,,,,,,,,,,,,,,,,,,,,,,,,,,,,,,,,,,,,,,,,,,,,,,,,,615.4619780489993,None,615.4619780489993,None,615.4619780489993,None,c,1,0.7922187219992338,617.0125122419995,None,617.0125122419995,None,617.0125122419995,None,617.8784727909988,None,617.8784727909988,None,617.8784727909988,None,617.8784727909988,None,,,,,,,,,,,,,,,,,,,,,,,,,,,,,,,,,,,,,,,,,,,,001,73,2020_Feb_04_1634,spring_faces,3.1.5,60.071234391551755,
condition files/Stage1_1.xlsx,,B2,T1,m,"['c', 'm']","['Clue', 'Monopoly']","[-0.15, 0.5]","[0.15, 0.5]",1,1,,,,,,,,,0,6,6,6,0,3,3,2,,,,,,,,,,,,,,,,,,,,,,,,,,,,,,,,,,,,,,,,,,,,,,,,,,,,,,,619.8284080129997,None,619.8284080129997,None,619.8284080129997,None,c,0,1.5463345739990473,621.3625097900003,None,621.3625097900003,None,621.3625097900003,None,622.9788363279986,None,622.9788363279986,None,622.9788363279986,None,622.9788363279986,None,,,,,,,,,,,,,,,,,,,,,,,,,,,,,,,,,,,,,,,,,,,,001,73,2020_Feb_04_1634,spring_faces,3.1.5,60.071234391551755,
condition files/Stage1_1.xlsx,,T4,B3,m,"['c', 'm']","['Clue', 'Monopoly']","[-0.15, 0.5]","[0.15, 0.5]",1,1,,,,,,,,,0,6,6,6,0,4,4,6,,,,,,,,,,,,,,,,,,,,,,,,,,,,,,,,,,,,,,,,,,,,,,,,,,,,,,,624.9282594600008,None,624.9282594600008,None,624.9282594600008,None,m,1,2.2855054200008453,626.4791677540015,None,626.4791677540015,None,626.4791677540015,None,628.8288670900001,None,628.8288670900001,None,628.8288670900001,None,628.8288670900001,None,,,,,,,,,,,,,,,,,,,,,,,,,,,,,,,,,,,,,,,,,,,,001,73,2020_Feb_04_1634,spring_faces,3.1.5,60.071234391551755,
condition files/Stage1_1.xlsx,,B3,T3,c,"['c', 'm']","['Clue', 'Monopoly']","[-0.15, 0.5]","[0.15, 0.5]",1,1,,,,,,,,,0,6,6,6,0,5,5,4,,,,,,,,,,,,,,,,,,,,,,,,,,,,,,,,,,,,,,,,,,,,,,,,,,,,,,,630.7951855979991,None,630.7951855979991,None,630.7951855979991,None,c,1,1.6995706609995977,632.3290297950007,None,632.3290297950007,None,632.3290297950007,None,634.0957094360019,None,634.0957094360019,None,634.0957094360019,None,634.0957094360019,None,,,,,,,,,,,,,,,,,,,,,,,,,,,,,,,,,,,,,,,,,,,,001,73,2020_Feb_04_1634,spring_faces,3.1.5,60.071234391551755,
condition files/Stage1_1.xlsx,,B1,T2,c,"['c', 'm']","['Clue', 'Monopoly']","[-0.15, 0.5]","[0.15, 0.5]",1,1,,,,,,,,,0,6,6,6,0,6,6,1,,,,,,,,,,,,,,,,,,,,,,,,,,,,,,,,,,,,,,,,,,,,,,,,,,,,,,,636.044978337999,None,636.044978337999,None,636.044978337999,None,m,0,1.0094812349998392,637.5792214190005,None,637.5792214190005,None,637.5792214190005,None,638.645298366002,None,638.645298366002,None,638.645298366002,None,638.645298366002,None,,,,,,,,,,,,,,,,,,,,,,,,,,,,,,,,,,,,,,,,,,,,001,73,2020_Feb_04_1634,spring_faces,3.1.5,60.071234391551755,
condition files/Stage1_1.xlsx,,T1,B1,c,"['c', 'm']","['Clue', 'Monopoly']","[-0.15, 0.5]","[0.15, 0.5]",1,1,,,,,,,,,0,6,6,6,0,7,7,0,,,,,,,,,,,,,,,,,,,,,,,,,,,,,,,,,,,,,,,,,,,,,,,,,,,,,,,640.6118619529989,None,640.6118619529989,None,640.6118619529989,None,m,0,0.7787469049981155,642.1458772570004,None,642.1458772570004,None,642.1458772570004,None,642.978186676999,None,642.978186676999,None,642.978186676999,None,642.978186676999,None,,,,,,,,,,,,,,,,,,,,,,,,,,,,,,,,,,,,,,,,,,,,001,73,2020_Feb_04_1634,spring_faces,3.1.5,60.071234391551755,
condition files/Stage1_2.xlsx,,T3,B3,c,"['c', 'm']","['Clue', 'Monopoly']","[-0.15, 0.5]","[0.15, 0.5]",1,1,,,,,,,,,0,7,7,7,0,0,0,4,,,,,,,,,,,,,,,,,,,,,,,,,,,,,,,,,,,,,,,,,,,,,,,,,,,,,,,644.962140104999,None,644.962140104999,None,644.962140104999,None,c,1,0.8924117780006782,646.5123072159986,None,646.5123072159986,None,646.5123072159986,None,647.4619730689992,None,647.4619730689992,None,647.4619730689992,None,647.4619730689992,None,,,,,,,,,,,,,,,,,,,,,,,,,,,,,,,,,,,,,,,,,,,,001,73,2020_Feb_04_1634,spring_faces,3.1.5,60.071234391551755,
condition files/Stage1_2.xlsx,,B2,T2,m,"['c', 'm']","['Clue', 'Monopoly']","[-0.15, 0.5]","[0.15, 0.5]",1,1,,,,,,,,,0,7,7,7,0,1,1,3,,,,,,,,,,,,,,,,,,,,,,,,,,,,,,,,,,,,,,,,,,,,,,,,,,,,,,,649.4279666490002,None,649.4279666490002,None,649.4279666490002,None,m,1,0.8258154600007401,650.9628853809991,None,650.9628853809991,None,650.9628853809991,None,651.8480994679994,None,651.8480994679994,None,651.8480994679994,None,651.8480994679994,None,,,,,,,,,,,,,,,,,,,,,,,,,,,,,,,,,,,,,,,,,,,,001,73,2020_Feb_04_1634,spring_faces,3.1.5,60.071234391551755,
condition files/Stage1_2.xlsx,,B1,T1,c,"['c', 'm']","['Clue', 'Monopoly']","[-0.15, 0.5]","[0.15, 0.5]",1,1,,,,,,,,,0,7,7,7,0,2,2,0,,,,,,,,,,,,,,,,,,,,,,,,,,,,,,,,,,,,,,,,,,,,,,,,,,,,,,,653.8113296730007,None,653.8113296730007,None,653.8113296730007,None,c,1,1.04854651200003,655.3480724129986,None,655.3480724129986,None,655.3480724129986,None,656.4629129589994,None,656.4629129589994,None,656.4629129589994,None,656.4629129589994,None,,,,,,,,,,,,,,,,,,,,,,,,,,,,,,,,,,,,,,,,,,,,001,73,2020_Feb_04_1634,spring_faces,3.1.5,60.071234391551755,
condition files/Stage1_2.xlsx,,T4,B4,m,"['c', 'm']","['Clue', 'Monopoly']","[-0.15, 0.5]","[0.15, 0.5]",1,1,,,,,,,,,0,7,7,7,0,3,3,7,,,,,,,,,,,,,,,,,,,,,,,,,,,,,,,,,,,,,,,,,,,,,,,,,,,,,,,658.4282761149989,None,658.4282761149989,None,658.4282761149989,None,m,1,1.3773246980017575,659.9792451380017,None,659.9792451380017,None,659.9792451380017,None,661.4149303340018,None,661.4149303340018,None,661.4149303340018,None,661.4149303340018,None,,,,,,,,,,,,,,,,,,,,,,,,,,,,,,,,,,,,,,,,,,,,001,73,2020_Feb_04_1634,spring_faces,3.1.5,60.071234391551755,
condition files/Stage1_2.xlsx,,B3,T4,m,"['c', 'm']","['Clue', 'Monopoly']","[-0.15, 0.5]","[0.15, 0.5]",1,1,,,,,,,,,0,7,7,7,0,4,4,6,,,,,,,,,,,,,,,,,,,,,,,,,,,,,,,,,,,,,,,,,,,,,,,,,,,,,,,663.3782107490006,None,663.3782107490006,None,663.3782107490006,None,m,1,0.9069643230031943,664.9137528680003,None,664.9137528680003,None,664.9137528680003,None,665.878688388002,None,665.878688388002,None,665.878688388002,None,665.878688388002,None,,,,,,,,,,,,,,,,,,,,,,,,,,,,,,,,,,,,,,,,,,,,001,73,2020_Feb_04_1634,spring_faces,3.1.5,60.071234391551755,
condition files/Stage1_2.xlsx,,T2,B1,c,"['c', 'm']","['Clue', 'Monopoly']","[-0.15, 0.5]","[0.15, 0.5]",1,1,,,,,,,,,0,7,7,7,0,5,5,1,,,,,,,,,,,,,,,,,,,,,,,,,,,,,,,,,,,,,,,,,,,,,,,,,,,,,,,667.8451834110019,None,667.8451834110019,None,667.8451834110019,None,c,1,1.0322994110028958,669.3803062129991,None,669.3803062129991,None,669.3803062129991,None,670.4798795640017,None,670.4798795640017,None,670.4798795640017,None,670.4798795640017,None,,,,,,,,,,,,,,,,,,,,,,,,,,,,,,,,,,,,,,,,,,,,001,73,2020_Feb_04_1634,spring_faces,3.1.5,60.071234391551755,
condition files/Stage1_2.xlsx,,T1,B2,m,"['c', 'm']","['Clue', 'Monopoly']","[-0.15, 0.5]","[0.15, 0.5]",1,1,,,,,,,,,0,7,7,7,0,6,6,2,,,,,,,,,,,,,,,,,,,,,,,,,,,,,,,,,,,,,,,,,,,,,,,,,,,,,,,672.4448470489988,None,672.4448470489988,None,672.4448470489988,None,m,1,0.8813464720005868,673.9793443970011,None,673.9793443970011,None,673.9793443970011,None,674.914807592002,None,674.914807592002,None,674.914807592002,None,674.914807592002,None,,,,,,,,,,,,,,,,,,,,,,,,,,,,,,,,,,,,,,,,,,,,001,73,2020_Feb_04_1634,spring_faces,3.1.5,60.071234391551755,
condition files/Stage1_2.xlsx,,B4,T3,c,"['c', 'm']","['Clue', 'Monopoly']","[-0.15, 0.5]","[0.15, 0.5]",1,1,,,,,,,,,0,7,7,7,0,7,7,5,,,,,,,,,,,,,,,,,,,,,,,,,,,,,,,,,,,,,,,,,,,,,,,,,,,,,,,676.878691938,None,676.878691938,None,676.878691938,None,c,1,0.8781822989985812,678.4144689720015,None,678.4144689720015,None,678.4144689720015,None,679.3457381879998,None,679.3457381879998,None,679.3457381879998,None,679.3457381879998,None,,,,,,,,,,,,,,,,,,,,,,,,,,,,,,,,,,,,,,,,,,,,001,73,2020_Feb_04_1634,spring_faces,3.1.5,60.071234391551755,
condition files/Stage1_1.xlsx,,B4,T4,m,"['c', 'm']","['Clue', 'Monopoly']","[-0.15, 0.5]","[0.15, 0.5]",1,1,,,,,,,,,0,8,8,8,0,0,0,7,,,,,,,,,,,,,,,,,,,,,,,,,,,,,,,,,,,,,,,,,,,,,,,,,,,,,,,681.3287701270019,None,681.3287701270019,None,681.3287701270019,None,m,1,1.0527637640007015,682.8639297810005,None,682.8639297810005,None,682.8639297810005,None,683.9954330459987,None,683.9954330459987,None,683.9954330459987,None,683.9954330459987,None,,,,,,,,,,,,,,,,,,,,,,,,,,,,,,,,,,,,,,,,,,,,001,73,2020_Feb_04_1634,spring_faces,3.1.5,60.071234391551755,
condition files/Stage1_1.xlsx,,T4,B3,m,"['c', 'm']","['Clue', 'Monopoly']","[-0.15, 0.5]","[0.15, 0.5]",1,1,,,,,,,,,0,8,8,8,0,1,1,6,,,,,,,,,,,,,,,,,,,,,,,,,,,,,,,,,,,,,,,,,,,,,,,,,,,,,,,685.9453247579986,None,685.9453247579986,None,685.9453247579986,None,m,1,0.8203493250002794,687.480337437999,None,687.480337437999,None,687.480337437999,None,688.3619126020021,None,688.3619126020021,None,688.3619126020021,None,688.3619126020021,None,,,,,,,,,,,,,,,,,,,,,,,,,,,,,,,,,,,,,,,,,,,,001,73,2020_Feb_04_1634,spring_faces,3.1.5,60.071234391551755,
condition files/Stage1_1.xlsx,,T2,B2,m,"['c', 'm']","['Clue', 'Monopoly']","[-0.15, 0.5]","[0.15, 0.5]",1,1,,,,,,,,,0,8,8,8,0,2,2,3,,,,,,,,,,,,,,,,,,,,,,,,,,,,,,,,,,,,,,,,,,,,,,,,,,,,,,,690.3282386030005,None,690.3282386030005,None,690.3282386030005,None,m,1,1.0777507579987287,691.8788724299993,None,691.8788724299993,None,691.8788724299993,None,693.0119935660005,None,693.0119935660005,None,693.0119935660005,None,693.0119935660005,None,,,,,,,,,,,,,,,,,,,,,,,,,,,,,,,,,,,,,,,,,,,,001,73,2020_Feb_04_1634,spring_faces,3.1.5,60.071234391551755,
condition files/Stage1_1.xlsx,,B2,T1,m,"['c', 'm']","['Clue', 'Monopoly']","[-0.15, 0.5]","[0.15, 0.5]",1,1,,,,,,,,,0,8,8,8,0,3,3,2,,,,,,,,,,,,,,,,,,,,,,,,,,,,,,,,,,,,,,,,,,,,,,,,,,,,,,,694.9780509480006,None,694.9780509480006,None,694.9780509480006,None,m,1,1.1006650560011622,696.5119335130003,None,696.5119335130003,None,696.5119335130003,None,697.6811893960003,None,697.6811893960003,None,697.6811893960003,None,697.6811893960003,None,,,,,,,,,,,,,,,,,,,,,,,,,,,,,,,,,,,,,,,,,,,,001,73,2020_Feb_04_1634,spring_faces,3.1.5,60.071234391551755,
condition files/Stage1_1.xlsx,,B3,T3,c,"['c', 'm']","['Clue', 'Monopoly']","[-0.15, 0.5]","[0.15, 0.5]",1,1,,,,,,,,,0,8,8,8,0,4,4,4,,,,,,,,,,,,,,,,,,,,,,,,,,,,,,,,,,,,,,,,,,,,,,,,,,,,,,,699.6455810830012,None,699.6455810830012,None,699.6455810830012,None,c,1,0.6262949240008311,701.178451961001,None,701.178451961001,None,701.178451961001,None,701.8619607850014,None,701.8619607850014,None,701.8619607850014,None,701.8619607850014,None,,,,,,,,,,,,,,,,,,,,,,,,,,,,,,,,,,,,,,,,,,,,001,73,2020_Feb_04_1634,spring_faces,3.1.5,60.071234391551755,
condition files/Stage1_1.xlsx,,T1,B1,c,"['c', 'm']","['Clue', 'Monopoly']","[-0.15, 0.5]","[0.15, 0.5]",1,1,,,,,,,,,0,8,8,8,0,5,5,0,,,,,,,,,,,,,,,,,,,,,,,,,,,,,,,,,,,,,,,,,,,,,,,,,,,,,,,703.8280219350017,None,703.8280219350017,None,703.8280219350017,None,m,0,1.0017436880007153,705.3629428080021,None,705.3629428080021,None,705.3629428080021,None,706.4292060139996,None,706.4292060139996,None,706.4292060139996,None,706.4292060139996,None,,,,,,,,,,,,,,,,,,,,,,,,,,,,,,,,,,,,,,,,,,,,001,73,2020_Feb_04_1634,spring_faces,3.1.5,60.071234391551755,
condition files/Stage1_1.xlsx,,T3,B4,c,"['c', 'm']","['Clue', 'Monopoly']","[-0.15, 0.5]","[0.15, 0.5]",1,1,,,,,,,,,0,8,8,8,0,6,6,5,,,,,,,,,,,,,,,,,,,,,,,,,,,,,,,,,,,,,,,,,,,,,,,,,,,,,,,708.3955891030018,None,708.3955891030018,None,708.3955891030018,None,c,1,0.5950936730005196,709.9455747290012,None,709.9455747290012,None,709.9455747290012,None,710.5955051630008,None,710.5955051630008,None,710.5955051630008,None,710.5955051630008,None,,,,,,,,,,,,,,,,,,,,,,,,,,,,,,,,,,,,,,,,,,,,001,73,2020_Feb_04_1634,spring_faces,3.1.5,60.071234391551755,
condition files/Stage1_1.xlsx,,B1,T2,c,"['c', 'm']","['Clue', 'Monopoly']","[-0.15, 0.5]","[0.15, 0.5]",1,1,,,,,,,,,0,8,8,8,0,7,7,1,,,,,,,,,,,,,,,,,,,,,,,,,,,,,,,,,,,,,,,,,,,,,,,,,,,,,,,712.5616266830002,None,712.5616266830002,None,712.5616266830002,None,c,1,0.7492077830029302,714.1114659400009,None,714.1114659400009,None,714.1114659400009,None,714.9123765699987,None,714.9123765699987,None,714.9123765699987,None,714.9123765699987,None,,,,,,,,,,,,,,,,,,,,,,,,,,,,,,,,,,,,,,,,,,,,001,73,2020_Feb_04_1634,spring_faces,3.1.5,60.071234391551755,
condition files/Stage1_2.xlsx,,B1,T1,c,"['c', 'm']","['Clue', 'Monopoly']","[-0.15, 0.5]","[0.15, 0.5]",1,1,,,,,,,,,0,9,9,9,0,0,0,0,,,,,,,,,,,,,,,,,,,,,,,,,,,,,,,,,,,,,,,,,,,,,,,,,,,,,,,716.8952985870019,None,716.8952985870019,None,716.8952985870019,None,c,1,1.2140765339972859,718.4306130020013,None,718.4306130020013,None,718.4306130020013,None,719.6955111380012,None,719.6955111380012,None,719.6955111380012,None,719.6955111380012,None,,,,,,,,,,,,,,,,,,,,,,,,,,,,,,,,,,,,,,,,,,,,001,73,2020_Feb_04_1634,spring_faces,3.1.5,60.071234391551755,
condition files/Stage1_2.xlsx,,B2,T2,m,"['c', 'm']","['Clue', 'Monopoly']","[-0.15, 0.5]","[0.15, 0.5]",1,1,,,,,,,,,0,9,9,9,0,1,1,3,,,,,,,,,,,,,,,,,,,,,,,,,,,,,,,,,,,,,,,,,,,,,,,,,,,,,,,721.6613050919987,None,721.6613050919987,None,721.6613050919987,None,m,1,0.7845351149990165,723.1961201580016,None,723.1961201580016,None,723.1961201580016,None,724.0456786409995,None,724.0456786409995,None,724.0456786409995,None,724.0456786409995,None,,,,,,,,,,,,,,,,,,,,,,,,,,,,,,,,,,,,,,,,,,,,001,73,2020_Feb_04_1634,spring_faces,3.1.5,60.071234391551755,
condition files/Stage1_2.xlsx,,T3,B3,c,"['c', 'm']","['Clue', 'Monopoly']","[-0.15, 0.5]","[0.15, 0.5]",1,1,,,,,,,,,0,9,9,9,0,2,2,4,,,,,,,,,,,,,,,,,,,,,,,,,,,,,,,,,,,,,,,,,,,,,,,,,,,,,,,726.01192352,None,726.01192352,None,726.01192352,None,c,1,0.7217580649994488,727.5469643860015,None,727.5469643860015,None,727.5469643860015,None,728.3293761710011,None,728.3293761710011,None,728.3293761710011,None,728.3293761710011,None,,,,,,,,,,,,,,,,,,,,,,,,,,,,,,,,,,,,,,,,,,,,001,73,2020_Feb_04_1634,spring_faces,3.1.5,60.071234391551755,
condition files/Stage1_2.xlsx,,T4,B4,m,"['c', 'm']","['Clue', 'Monopoly']","[-0.15, 0.5]","[0.15, 0.5]",1,1,,,,,,,,,0,9,9,9,0,3,3,7,,,,,,,,,,,,,,,,,,,,,,,,,,,,,,,,,,,,,,,,,,,,,,,,,,,,,,,730.2953138859993,None,730.2953138859993,None,730.2953138859993,None,m,1,0.9351655690006737,731.845485283,None,731.845485283,None,731.845485283,None,732.8621038870006,None,732.8621038870006,None,732.8621038870006,None,732.8621038870006,None,,,,,,,,,,,,,,,,,,,,,,,,,,,,,,,,,,,,,,,,,,,,001,73,2020_Feb_04_1634,spring_faces,3.1.5,60.071234391551755,
condition files/Stage1_2.xlsx,,T1,B2,m,"['c', 'm']","['Clue', 'Monopoly']","[-0.15, 0.5]","[0.15, 0.5]",1,1,,,,,,,,,0,9,9,9,0,4,4,2,,,,,,,,,,,,,,,,,,,,,,,,,,,,,,,,,,,,,,,,,,,,,,,,,,,,,,,734.8114198860021,None,734.8114198860021,None,734.8114198860021,None,m,1,0.7071068320001359,736.3615927239989,None,736.3615927239989,None,736.3615927239989,None,737.1291355020003,None,737.1291355020003,None,737.1291355020003,None,737.1291355020003,None,,,,,,,,,,,,,,,,,,,,,,,,,,,,,,,,,,,,,,,,,,,,001,73,2020_Feb_04_1634,spring_faces,3.1.5,60.071234391551755,
condition files/Stage1_2.xlsx,,B4,T3,c,"['c', 'm']","['Clue', 'Monopoly']","[-0.15, 0.5]","[0.15, 0.5]",1,1,,,,,,,,,0,9,9,9,0,5,5,5,,,,,,,,,,,,,,,,,,,,,,,,,,,,,,,,,,,,,,,,,,,,,,,,,,,,,,,739.0954050559994,None,739.0954050559994,None,739.0954050559994,None,c,1,0.7255621789990983,740.6310830670009,None,740.6310830670009,None,740.6310830670009,None,741.4137031150021,None,741.4137031150021,None,741.4137031150021,None,741.4137031150021,None,,,,,,,,,,,,,,,,,,,,,,,,,,,,,,,,,,,,,,,,,,,,001,73,2020_Feb_04_1634,spring_faces,3.1.5,60.071234391551755,
condition files/Stage1_2.xlsx,,T2,B1,c,"['c', 'm']","['Clue', 'Monopoly']","[-0.15, 0.5]","[0.15, 0.5]",1,1,,,,,,,,,0,9,9,9,0,6,6,1,,,,,,,,,,,,,,,,,,,,,,,,,,,,,,,,,,,,,,,,,,,,,,,,,,,,,,,743.3785957889995,None,743.3785957889995,None,743.3785957889995,None,m,0,1.8681294980015082,744.9124965519986,None,744.9124965519986,None,744.9124965519986,None,746.8449001760018,None,746.8449001760018,None,746.8449001760018,None,746.8449001760018,None,,,,,,,,,,,,,,,,,,,,,,,,,,,,,,,,,,,,,,,,,,,,001,73,2020_Feb_04_1634,spring_faces,3.1.5,60.071234391551755,
condition files/Stage1_2.xlsx,,B3,T4,m,"['c', 'm']","['Clue', 'Monopoly']","[-0.15, 0.5]","[0.15, 0.5]",1,1,,,,,,,,,0,9,9,9,0,7,7,6,,,,,,,,,,,,,,,,,,,,,,,,,,,,,,,,,,,,,,,,,,,,,,,,,,,,,,,748.8113885480016,None,748.8113885480016,None,748.8113885480016,None,c,0,0.33925372299927403,750.3454015239986,None,750.3454015239986,None,750.3454015239986,None,750.7473978179987,None,750.7473978179987,None,750.7473978179987,None,750.7473978179987,None,,,,,,,,,,,,,,,,,,,,,,,,,,,,,,,,,,,,,,,,,,,,001,73,2020_Feb_04_1634,spring_faces,3.1.5,60.071234391551755,
condition files/Stage1_1.xlsx,,T3,B4,c,"['c', 'm']","['Clue', 'Monopoly']","[-0.15, 0.5]","[0.15, 0.5]",1,1,,,,,,,,,0,10,10,10,0,0,0,5,,,,,,,,,,,,,,,,,,,,,,,,,,,,,,,,,,,,,,,,,,,,,,,,,,,,,,,752.728556258,None,752.728556258,None,752.728556258,None,c,1,0.7559873559985135,754.2646528660007,None,754.2646528660007,None,754.2646528660007,None,755.0812032799986,None,755.0812032799986,None,755.0812032799986,None,755.0812032799986,None,,,,,,,,,,,,,,,,,,,,,,,,,,,,,,,,,,,,,,,,,,,,001,73,2020_Feb_04_1634,spring_faces,3.1.5,60.071234391551755,
condition files/Stage1_1.xlsx,,T4,B3,m,"['c', 'm']","['Clue', 'Monopoly']","[-0.15, 0.5]","[0.15, 0.5]",1,1,,,,,,,,,0,10,10,10,0,1,1,6,,,,,,,,,,,,,,,,,,,,,,,,,,,,,,,,,,,,,,,,,,,,,,,,,,,,,,,757.0448134690014,None,757.0448134690014,None,757.0448134690014,None,m,1,0.6656957539998984,758.5949847619995,None,758.5949847619995,None,758.5949847619995,None,759.3134549960014,None,759.3134549960014,None,759.3134549960014,None,759.3134549960014,None,,,,,,,,,,,,,,,,,,,,,,,,,,,,,,,,,,,,,,,,,,,,001,73,2020_Feb_04_1634,spring_faces,3.1.5,60.071234391551755,
condition files/Stage1_1.xlsx,,B2,T1,m,"['c', 'm']","['Clue', 'Monopoly']","[-0.15, 0.5]","[0.15, 0.5]",1,1,,,,,,,,,0,10,10,10,0,2,2,2,,,,,,,,,,,,,,,,,,,,,,,,,,,,,,,,,,,,,,,,,,,,,,,,,,,,,,,761.2786035019999,None,761.2786035019999,None,761.2786035019999,None,m,1,1.1354147700003523,762.8132572710019,None,762.8132572710019,None,762.8132572710019,None,764.0123562980007,None,764.0123562980007,None,764.0123562980007,None,764.0123562980007,None,,,,,,,,,,,,,,,,,,,,,,,,,,,,,,,,,,,,,,,,,,,,001,73,2020_Feb_04_1634,spring_faces,3.1.5,60.071234391551755,
condition files/Stage1_1.xlsx,,B4,T4,m,"['c', 'm']","['Clue', 'Monopoly']","[-0.15, 0.5]","[0.15, 0.5]",1,1,,,,,,,,,0,10,10,10,0,3,3,7,,,,,,,,,,,,,,,,,,,,,,,,,,,,,,,,,,,,,,,,,,,,,,,,,,,,,,,765.9788323040011,None,765.9788323040011,None,765.9788323040011,None,m,1,0.7243935490005242,767.5283180570004,None,767.5283180570004,None,767.5283180570004,None,768.311727919001,None,768.311727919001,None,768.311727919001,None,768.311727919001,None,,,,,,,,,,,,,,,,,,,,,,,,,,,,,,,,,,,,,,,,,,,,001,73,2020_Feb_04_1634,spring_faces,3.1.5,60.071234391551755,
condition files/Stage1_1.xlsx,,B1,T2,c,"['c', 'm']","['Clue', 'Monopoly']","[-0.15, 0.5]","[0.15, 0.5]",1,1,,,,,,,,,0,10,10,10,0,4,4,1,,,,,,,,,,,,,,,,,,,,,,,,,,,,,,,,,,,,,,,,,,,,,,,,,,,,,,,770.2781623769988,None,770.2781623769988,None,770.2781623769988,None,c,1,1.9279064220027067,771.8126839629986,None,771.8126839629986,None,771.8126839629986,None,773.7973794860009,None,773.7973794860009,None,773.7973794860009,None,773.7973794860009,None,,,,,,,,,,,,,,,,,,,,,,,,,,,,,,,,,,,,,,,,,,,,001,73,2020_Feb_04_1634,spring_faces,3.1.5,60.071234391551755,
condition files/Stage1_1.xlsx,,T1,B1,c,"['c', 'm']","['Clue', 'Monopoly']","[-0.15, 0.5]","[0.15, 0.5]",1,1,,,,,,,,,0,10,10,10,0,5,5,0,,,,,,,,,,,,,,,,,,,,,,,,,,,,,,,,,,,,,,,,,,,,,,,,,,,,,,,775.761478198001,None,775.761478198001,None,775.761478198001,None,c,1,1.2604690129992377,777.2961283959994,None,777.2961283959994,None,777.2961283959994,None,778.612269270001,None,778.612269270001,None,778.612269270001,None,778.612269270001,None,,,,,,,,,,,,,,,,,,,,,,,,,,,,,,,,,,,,,,,,,,,,001,73,2020_Feb_04_1634,spring_faces,3.1.5,60.071234391551755,
condition files/Stage1_1.xlsx,,T2,B2,m,"['c', 'm']","['Clue', 'Monopoly']","[-0.15, 0.5]","[0.15, 0.5]",1,1,,,,,,,,,0,10,10,10,0,6,6,3,,,,,,,,,,,,,,,,,,,,,,,,,,,,,,,,,,,,,,,,,,,,,,,,,,,,,,,780.578569456,None,780.578569456,None,780.578569456,None,c,0,2.283555416001036,782.1290591149991,None,782.1290591149991,None,782.1290591149991,None,784.4955351690005,None,784.4955351690005,None,784.4955351690005,None,784.4955351690005,None,,,,,,,,,,,,,,,,,,,,,,,,,,,,,,,,,,,,,,,,,,,,001,73,2020_Feb_04_1634,spring_faces,3.1.5,60.071234391551755,
condition files/Stage1_1.xlsx,,B3,T3,c,"['c', 'm']","['Clue', 'Monopoly']","[-0.15, 0.5]","[0.15, 0.5]",1,1,,,,,,,,,0,10,10,10,0,7,7,4,,,,,,,,,,,,,,,,,,,,,,,,,,,,,,,,,,,,,,,,,,,,,,,,,,,,,,,786.4451814080021,None,786.4451814080021,None,786.4451814080021,None,c,1,0.6405294249998406,787.980198358,None,787.980198358,None,787.980198358,None,788.6784425990008,None,788.6784425990008,None,788.6784425990008,None,788.6784425990008,None,,,,,,,,,,,,,,,,,,,,,,,,,,,,,,,,,,,,,,,,,,,,001,73,2020_Feb_04_1634,spring_faces,3.1.5,60.071234391551755,
condition files/Stage1_2.xlsx,,B3,T4,m,"['c', 'm']","['Clue', 'Monopoly']","[-0.15, 0.5]","[0.15, 0.5]",1,1,,,,,,,,,0,11,11,11,0,0,0,6,,,,,,,,,,,,,,,,,,,,,,,,,,,,,,,,,,,,,,,,,,,,,,,,,,,,,,,790.6619220370012,None,790.6619220370012,None,790.6619220370012,None,c,0,2.0565646489994833,792.2121456620007,None,792.2121456620007,None,792.2121456620007,None,794.3450006880012,None,794.3450006880012,None,794.3450006880012,None,794.3450006880012,None,,,,,,,,,,,,,,,,,,,,,,,,,,,,,,,,,,,,,,,,,,,,001,73,2020_Feb_04_1634,spring_faces,3.1.5,60.071234391551755,
condition files/Stage1_2.xlsx,,T1,B2,m,"['c', 'm']","['Clue', 'Monopoly']","[-0.15, 0.5]","[0.15, 0.5]",1,1,,,,,,,,,0,11,11,11,0,1,1,2,,,,,,,,,,,,,,,,,,,,,,,,,,,,,,,,,,,,,,,,,,,,,,,,,,,,,,,796.2949030210002,None,796.2949030210002,None,796.2949030210002,None,m,1,1.4483597399994323,797.8283020790004,None,797.8283020790004,None,797.8283020790004,None,799.3285330760009,None,799.3285330760009,None,799.3285330760009,None,799.3285330760009,None,,,,,,,,,,,,,,,,,,,,,,,,,,,,,,,,,,,,,,,,,,,,001,73,2020_Feb_04_1634,spring_faces,3.1.5,60.071234391551755,
condition files/Stage1_2.xlsx,,B4,T3,c,"['c', 'm']","['Clue', 'Monopoly']","[-0.15, 0.5]","[0.15, 0.5]",1,1,,,,,,,,,0,11,11,11,0,2,2,5,,,,,,,,,,,,,,,,,,,,,,,,,,,,,,,,,,,,,,,,,,,,,,,,,,,,,,,801.2946072080013,None,801.2946072080013,None,801.2946072080013,None,c,1,0.6241360519998125,802.828592111,None,802.828592111,None,802.828592111,None,803.5137468399989,None,803.5137468399989,None,803.5137468399989,None,803.5137468399989,None,,,,,,,,,,,,,,,,,,,,,,,,,,,,,,,,,,,,,,,,,,,,001,73,2020_Feb_04_1634,spring_faces,3.1.5,60.071234391551755,
condition files/Stage1_2.xlsx,,B2,T2,m,"['c', 'm']","['Clue', 'Monopoly']","[-0.15, 0.5]","[0.15, 0.5]",1,1,,,,,,,,,0,11,11,11,0,3,3,3,,,,,,,,,,,,,,,,,,,,,,,,,,,,,,,,,,,,,,,,,,,,,,,,,,,,,,,805.4785591520013,None,805.4785591520013,None,805.4785591520013,None,m,1,1.2238144940019993,807.0288922639993,None,807.0288922639993,None,807.0288922639993,None,808.328707511002,None,808.328707511002,None,808.328707511002,None,808.328707511002,None,,,,,,,,,,,,,,,,,,,,,,,,,,,,,,,,,,,,,,,,,,,,001,73,2020_Feb_04_1634,spring_faces,3.1.5,60.071234391551755,
condition files/Stage1_2.xlsx,,B1,T1,c,"['c', 'm']","['Clue', 'Monopoly']","[-0.15, 0.5]","[0.15, 0.5]",1,1,,,,,,,,,0,11,11,11,0,4,4,0,,,,,,,,,,,,,,,,,,,,,,,,,,,,,,,,,,,,,,,,,,,,,,,,,,,,,,,810.2779583230003,None,810.2779583230003,None,810.2779583230003,None,c,1,1.1117373100023542,811.828850877002,None,811.828850877002,None,811.828850877002,None,812.9971200949985,None,812.9971200949985,None,812.9971200949985,None,812.9971200949985,None,,,,,,,,,,,,,,,,,,,,,,,,,,,,,,,,,,,,,,,,,,,,001,73,2020_Feb_04_1634,spring_faces,3.1.5,60.071234391551755,
condition files/Stage1_2.xlsx,,T4,B4,m,"['c', 'm']","['Clue', 'Monopoly']","[-0.15, 0.5]","[0.15, 0.5]",1,1,,,,,,,,,0,11,11,11,0,5,5,7,,,,,,,,,,,,,,,,,,,,,,,,,,,,,,,,,,,,,,,,,,,,,,,,,,,,,,,814.9623788729987,None,814.9623788729987,None,814.9623788729987,None,m,1,0.9876330929982942,816.4970469049986,None,816.4970469049986,None,816.4970469049986,None,817.5621424710007,None,817.5621424710007,None,817.5621424710007,None,817.5621424710007,None,,,,,,,,,,,,,,,,,,,,,,,,,,,,,,,,,,,,,,,,,,,,001,73,2020_Feb_04_1634,spring_faces,3.1.5,60.071234391551755,
condition files/Stage1_2.xlsx,,T2,B1,c,"['c', 'm']","['Clue', 'Monopoly']","[-0.15, 0.5]","[0.15, 0.5]",1,1,,,,,,,,,0,11,11,11,0,6,6,1,,,,,,,,,,,,,,,,,,,,,,,,,,,,,,,,,,,,,,,,,,,,,,,,,,,,,,,819.5120667379997,None,819.5120667379997,None,819.5120667379997,None,m,0,2.854782376998628,821.0619026439999,None,821.0619026439999,None,821.0619026439999,None,823.9955428489993,None,823.9955428489993,None,823.9955428489993,None,823.9955428489993,None,,,,,,,,,,,,,,,,,,,,,,,,,,,,,,,,,,,,,,,,,,,,001,73,2020_Feb_04_1634,spring_faces,3.1.5,60.071234391551755,
condition files/Stage1_2.xlsx,,T3,B3,c,"['c', 'm']","['Clue', 'Monopoly']","[-0.15, 0.5]","[0.15, 0.5]",1,1,,,,,,,,,0,11,11,11,0,7,7,4,,,,,,,,,,,,,,,,,,,,,,,,,,,,,,,,,,,,,,,,,,,,,,,,,,,,,,,825.9448387840021,None,825.9448387840021,None,825.9448387840021,None,c,1,0.7725983899981657,827.4801272840014,None,827.4801272840014,None,827.4801272840014,None,828.3122108589996,None,828.3122108589996,None,828.3122108589996,None,828.3122108589996,None,,,,,,,,,,,,,,,,,,,,,,,,,,,,,,,,,,,,,,,,,,,,001,73,2020_Feb_04_1634,spring_faces,3.1.5,60.071234391551755,
,,,,,,,,,,,,,,,,,,,,,,,,,,,,,,,,,,,,,,,,,,,,,,,,,,,,,,,,,,,,,,,,,,,,,,,,,,,,,,,,,,,,,,,,,,,,,,,,,,,,,,,,,,,,,,,,830.2949780700001,None,space,9.533195097999851,835.295486944,None,,,,,,,,,,,,,,,,,,,,,,,,,,,,,,001,73,2020_Feb_04_1634,spring_faces,3.1.5,60.071234391551755,
condition files/Stage2_1.xlsx,,T1,B1,s,"['s', 'r']","['Stratego', 'Risk']","[-0.15, 0.5]","[0.15, 0.5]",1,1,,,,,,,,,,,,,,,,,0,0,0,0,0,0,0,2,,,,,,,,,,,,,,,,,,,,,,,,,,,,,,,,,,,,,,,,,,,,,,,844.8786836489999,None,844.8786836489999,None,844.8786836489999,None,r,0,2.143795266001689,846.3968121340004,None,846.3968121340004,None,846.3968121340004,None,848.5982682370013,None,848.5982682370013,None,848.5982682370013,None,848.5982682370013,None,,,,,,,,,,,,,,,835.295486944,None,,,,,,,,,,,,,,,,,,,,,,,,,,,,001,73,2020_Feb_04_1634,spring_faces,3.1.5,60.071234391551755,
condition files/Stage2_1.xlsx,,T3,B3,s,"['s', 'r']","['Stratego', 'Risk']","[-0.15, 0.5]","[0.15, 0.5]",1,1,,,,,,,,,,,,,,,,,0,0,0,0,0,1,1,4,,,,,,,,,,,,,,,,,,,,,,,,,,,,,,,,,,,,,,,,,,,,,,,850.5623947640015,None,850.5623947640015,None,850.5623947640015,None,s,1,0.8750365639971278,852.0976951330013,None,852.0976951330013,None,852.0976951330013,None,853.0288166360006,None,853.0288166360006,None,853.0288166360006,None,853.0288166360006,None,,,,,,,,,,,,,,,,,,,,,,,,,,,,,,,,,,,,,,,,,,,,001,73,2020_Feb_04_1634,spring_faces,3.1.5,60.071234391551755,
condition files/Stage2_1.xlsx,,T5,B5,s,"['s', 'r']","['Stratego', 'Risk']","[-0.15, 0.5]","[0.15, 0.5]",1,1,,,,,,,,,,,,,,,,,0,0,0,0,0,2,2,0,,,,,,,,,,,,,,,,,,,,,,,,,,,,,,,,,,,,,,,,,,,,,,,854.9946875160022,None,854.9946875160022,None,854.9946875160022,None,r,0,1.4513988590006193,856.545184988001,None,856.545184988001,None,856.545184988001,None,858.0623172140004,None,858.0623172140004,None,858.0623172140004,None,858.0623172140004,None,,,,,,,,,,,,,,,,,,,,,,,,,,,,,,,,,,,,,,,,,,,,001,73,2020_Feb_04_1634,spring_faces,3.1.5,60.071234391551755,
condition files/Stage2_1.xlsx,,B4,T4,r,"['s', 'r']","['Stratego', 'Risk']","[-0.15, 0.5]","[0.15, 0.5]",1,1,,,,,,,,,,,,,,,,,0,0,0,0,0,3,3,5,,,,,,,,,,,,,,,,,,,,,,,,,,,,,,,,,,,,,,,,,,,,,,,860.0282644649997,None,860.0282644649997,None,860.0282644649997,None,r,1,0.7059496189976926,861.5787283200007,None,861.5787283200007,None,861.5787283200007,None,862.3467811959999,None,862.3467811959999,None,862.3467811959999,None,862.3467811959999,None,,,,,,,,,,,,,,,,,,,,,,,,,,,,,,,,,,,,,,,,,,,,001,73,2020_Feb_04_1634,spring_faces,3.1.5,60.071234391551755,
condition files/Stage2_1.xlsx,,B2,T2,r,"['s', 'r']","['Stratego', 'Risk']","[-0.15, 0.5]","[0.15, 0.5]",1,1,,,,,,,,,,,,,,,,,0,0,0,0,0,4,4,3,,,,,,,,,,,,,,,,,,,,,,,,,,,,,,,,,,,,,,,,,,,,,,,864.3119332269998,None,864.3119332269998,None,864.3119332269998,None,s,0,1.0145355809981993,865.862121301001,None,865.862121301001,None,865.862121301001,None,866.9288220470007,None,866.9288220470007,None,866.9288220470007,None,866.9288220470007,None,,,,,,,,,,,,,,,,,,,,,,,,,,,,,,,,,,,,,,,,,,,,001,73,2020_Feb_04_1634,spring_faces,3.1.5,60.071234391551755,
condition files/Stage2_1.xlsx,,B6,T6,r,"['s', 'r']","['Stratego', 'Risk']","[-0.15, 0.5]","[0.15, 0.5]",1,1,,,,,,,,,,,,,,,,,0,0,0,0,0,5,5,1,,,,,,,,,,,,,,,,,,,,,,,,,,,,,,,,,,,,,,,,,,,,,,,868.8952490390002,None,868.8952490390002,None,868.8952490390002,None,s,0,1.5995706469984725,870.4291085299992,None,870.4291085299992,None,870.4291085299992,None,872.0789233690011,None,872.0789233690011,None,872.0789233690011,None,872.0789233690011,None,,,,,,,,,,,,,,,,,,,,,,,,,,,,,,,,,,,,,,,,,,,,001,73,2020_Feb_04_1634,spring_faces,3.1.5,60.071234391551755,
condition files/Stage2_2.xlsx,,T2,B2,r,"['s', 'r']","['Stratego', 'Risk']","[-0.15, 0.5]","[0.15, 0.5]",1,1,,,,,,,,,,,,,,,,,0,1,1,1,0,0,0,3,,,,,,,,,,,,,,,,,,,,,,,,,,,,,,,,,,,,,,,,,,,,,,,874.0619920390018,None,874.0619920390018,None,874.0619920390018,None,s,0,1.8409608690017194,875.6117436060013,None,875.6117436060013,None,875.6117436060013,None,877.5116493540008,None,877.5116493540008,None,877.5116493540008,None,877.5116493540008,None,,,,,,,,,,,,,,,,,,,,,,,,,,,,,,,,,,,,,,,,,,,,001,73,2020_Feb_04_1634,spring_faces,3.1.5,60.071234391551755,
condition files/Stage2_2.xlsx,,B5,T5,s,"['s', 'r']","['Stratego', 'Risk']","[-0.15, 0.5]","[0.15, 0.5]",1,1,,,,,,,,,,,,,,,,,0,1,1,1,0,1,1,0,,,,,,,,,,,,,,,,,,,,,,,,,,,,,,,,,,,,,,,,,,,,,,,879.4785161610016,None,879.4785161610016,None,879.4785161610016,None,s,1,1.8971285599982366,881.0115678260008,None,881.0115678260008,None,881.0115678260008,None,882.9639900830007,None,882.9639900830007,None,882.9639900830007,None,882.9639900830007,None,,,,,,,,,,,,,,,,,,,,,,,,,,,,,,,,,,,,,,,,,,,,001,73,2020_Feb_04_1634,spring_faces,3.1.5,60.071234391551755,
condition files/Stage2_2.xlsx,,B1,T1,s,"['s', 'r']","['Stratego', 'Risk']","[-0.15, 0.5]","[0.15, 0.5]",1,1,,,,,,,,,,,,,,,,,0,1,1,1,0,2,2,2,,,,,,,,,,,,,,,,,,,,,,,,,,,,,,,,,,,,,,,,,,,,,,,884.9283819580014,None,884.9283819580014,None,884.9283819580014,None,s,1,1.3106436930029304,886.4620694000005,None,886.4620694000005,None,886.4620694000005,None,887.8289292080008,None,887.8289292080008,None,887.8289292080008,None,887.8289292080008,None,,,,,,,,,,,,,,,,,,,,,,,,,,,,,,,,,,,,,,,,,,,,001,73,2020_Feb_04_1634,spring_faces,3.1.5,60.071234391551755,
condition files/Stage2_2.xlsx,,T6,B6,r,"['s', 'r']","['Stratego', 'Risk']","[-0.15, 0.5]","[0.15, 0.5]",1,1,,,,,,,,,,,,,,,,,0,1,1,1,0,3,3,1,,,,,,,,,,,,,,,,,,,,,,,,,,,,,,,,,,,,,,,,,,,,,,,889.7946670679994,None,889.7946670679994,None,889.7946670679994,None,r,1,1.4999616889981553,891.3286780050003,None,891.3286780050003,None,891.3286780050003,None,892.9122574649991,None,892.9122574649991,None,892.9122574649991,None,892.9122574649991,None,,,,,,,,,,,,,,,,,,,,,,,,,,,,,,,,,,,,,,,,,,,,001,73,2020_Feb_04_1634,spring_faces,3.1.5,60.071234391551755,
condition files/Stage2_2.xlsx,,T4,B4,r,"['s', 'r']","['Stratego', 'Risk']","[-0.15, 0.5]","[0.15, 0.5]",1,1,,,,,,,,,,,,,,,,,0,1,1,1,0,4,4,5,,,,,,,,,,,,,,,,,,,,,,,,,,,,,,,,,,,,,,,,,,,,,,,894.862063503002,None,894.862063503002,None,894.862063503002,None,s,0,1.3277774960006354,896.3968416489988,None,896.3968416489988,None,896.3968416489988,None,897.7784192670006,None,897.7784192670006,None,897.7784192670006,None,897.7784192670006,None,,,,,,,,,,,,,,,,,,,,,,,,,,,,,,,,,,,,,,,,,,,,001,73,2020_Feb_04_1634,spring_faces,3.1.5,60.071234391551755,
condition files/Stage2_2.xlsx,,B3,T3,s,"['s', 'r']","['Stratego', 'Risk']","[-0.15, 0.5]","[0.15, 0.5]",1,1,,,,,,,,,,,,,,,,,0,1,1,1,0,5,5,4,,,,,,,,,,,,,,,,,,,,,,,,,,,,,,,,,,,,,,,,,,,,,,,899.7452241989995,None,899.7452241989995,None,899.7452241989995,None,s,1,1.4535192379989894,901.2791724689996,None,901.2791724689996,None,901.2791724689996,None,902.7974333339989,None,902.7974333339989,None,902.7974333339989,None,902.7974333339989,None,,,,,,,,,,,,,,,,,,,,,,,,,,,,,,,,,,,,,,,,,,,,001,73,2020_Feb_04_1634,spring_faces,3.1.5,60.071234391551755,
condition files/Stage2_1.xlsx,,T1,B1,s,"['s', 'r']","['Stratego', 'Risk']","[-0.15, 0.5]","[0.15, 0.5]",1,1,,,,,,,,,,,,,,,,,0,2,2,2,0,0,0,2,,,,,,,,,,,,,,,,,,,,,,,,,,,,,,,,,,,,,,,,,,,,,,,904.7781108419986,None,904.7781108419986,None,904.7781108419986,None,r,0,1.8927763200008485,906.3279621670008,None,906.3279621670008,None,906.3279621670008,None,908.2782278279992,None,908.2782278279992,None,908.2782278279992,None,908.2782278279992,None,,,,,,,,,,,,,,,,,,,,,,,,,,,,,,,,,,,,,,,,,,,,001,73,2020_Feb_04_1634,spring_faces,3.1.5,60.071234391551755,
condition files/Stage2_1.xlsx,,T3,B3,s,"['s', 'r']","['Stratego', 'Risk']","[-0.15, 0.5]","[0.15, 0.5]",1,1,,,,,,,,,,,,,,,,,0,2,2,2,0,1,1,4,,,,,,,,,,,,,,,,,,,,,,,,,,,,,,,,,,,,,,,,,,,,,,,910.2453000940004,None,910.2453000940004,None,910.2453000940004,None,s,1,1.2581902970014198,911.7785378340013,None,911.7785378340013,None,911.7785378340013,None,913.0951572060003,None,913.0951572060003,None,913.0951572060003,None,913.0951572060003,None,,,,,,,,,,,,,,,,,,,,,,,,,,,,,,,,,,,,,,,,,,,,001,73,2020_Feb_04_1634,spring_faces,3.1.5,60.071234391551755,
condition files/Stage2_1.xlsx,,B2,T2,r,"['s', 'r']","['Stratego', 'Risk']","[-0.15, 0.5]","[0.15, 0.5]",1,1,,,,,,,,,,,,,,,,,0,2,2,2,0,2,2,3,,,,,,,,,,,,,,,,,,,,,,,,,,,,,,,,,,,,,,,,,,,,,,,915.0620893609994,None,915.0620893609994,None,915.0620893609994,None,s,0,0.5845141429999785,916.6120886140016,None,916.6120886140016,None,916.6120886140016,None,917.2638402420016,None,917.2638402420016,None,917.2638402420016,None,917.2638402420016,None,,,,,,,,,,,,,,,,,,,,,,,,,,,,,,,,,,,,,,,,,,,,001,73,2020_Feb_04_1634,spring_faces,3.1.5,60.071234391551755,
condition files/Stage2_1.xlsx,,B4,T4,r,"['s', 'r']","['Stratego', 'Risk']","[-0.15, 0.5]","[0.15, 0.5]",1,1,,,,,,,,,,,,,,,,,0,2,2,2,0,3,3,5,,,,,,,,,,,,,,,,,,,,,,,,,,,,,,,,,,,,,,,,,,,,,,,919.2286595379992,None,919.2286595379992,None,919.2286595379992,None,r,1,1.2828314250000403,920.761860183,None,920.761860183,None,920.761860183,None,922.095356525002,None,922.095356525002,None,922.095356525002,None,922.095356525002,None,,,,,,,,,,,,,,,,,,,,,,,,,,,,,,,,,,,,,,,,,,,,001,73,2020_Feb_04_1634,spring_faces,3.1.5,60.071234391551755,
condition files/Stage2_1.xlsx,,B6,T6,r,"['s', 'r']","['Stratego', 'Risk']","[-0.15, 0.5]","[0.15, 0.5]",1,1,,,,,,,,,,,,,,,,,0,2,2,2,0,4,4,1,,,,,,,,,,,,,,,,,,,,,,,,,,,,,,,,,,,,,,,,,,,,,,,924.0626103260001,None,924.0626103260001,None,924.0626103260001,None,s,0,0.9775673420008388,925.5951743650003,None,925.5951743650003,None,925.5951743650003,None,926.6288584149988,None,926.6288584149988,None,926.6288584149988,None,926.6288584149988,None,,,,,,,,,,,,,,,,,,,,,,,,,,,,,,,,,,,,,,,,,,,,001,73,2020_Feb_04_1634,spring_faces,3.1.5,60.071234391551755,
condition files/Stage2_1.xlsx,,T5,B5,s,"['s', 'r']","['Stratego', 'Risk']","[-0.15, 0.5]","[0.15, 0.5]",1,1,,,,,,,,,,,,,,,,,0,2,2,2,0,5,5,0,,,,,,,,,,,,,,,,,,,,,,,,,,,,,,,,,,,,,,,,,,,,,,,928.5951078979997,None,928.5951078979997,None,928.5951078979997,None,r,0,1.403754562001268,930.1289412939987,None,930.1289412939987,None,930.1289412939987,None,931.5954282189996,None,931.5954282189996,None,931.5954282189996,None,931.5954282189996,None,,,,,,,,,,,,,,,,,,,,,,,,,,,,,,,,,,,,,,,,,,,,001,73,2020_Feb_04_1634,spring_faces,3.1.5,60.071234391551755,
condition files/Stage2_2.xlsx,,T6,B6,r,"['s', 'r']","['Stratego', 'Risk']","[-0.15, 0.5]","[0.15, 0.5]",1,1,,,,,,,,,,,,,,,,,0,3,3,3,0,0,0,1,,,,,,,,,,,,,,,,,,,,,,,,,,,,,,,,,,,,,,,,,,,,,,,933.5789387859986,None,933.5789387859986,None,933.5789387859986,None,s,0,1.3785837489995174,935.1140768320001,None,935.1140768320001,None,935.1140768320001,None,936.5624667510019,None,936.5624667510019,None,936.5624667510019,None,936.5624667510019,None,,,,,,,,,,,,,,,,,,,,,,,,,,,,,,,,,,,,,,,,,,,,001,73,2020_Feb_04_1634,spring_faces,3.1.5,60.071234391551755,
condition files/Stage2_2.xlsx,,T2,B2,r,"['s', 'r']","['Stratego', 'Risk']","[-0.15, 0.5]","[0.15, 0.5]",1,1,,,,,,,,,,,,,,,,,0,3,3,3,0,1,1,3,,,,,,,,,,,,,,,,,,,,,,,,,,,,,,,,,,,,,,,,,,,,,,,938.5118586390017,None,938.5118586390017,None,938.5118586390017,None,s,0,1.646786910998344,940.0619180270005,None,940.0619180270005,None,940.0619180270005,None,941.7621352589995,None,941.7621352589995,None,941.7621352589995,None,941.7621352589995,None,,,,,,,,,,,,,,,,,,,,,,,,,,,,,,,,,,,,,,,,,,,,001,73,2020_Feb_04_1634,spring_faces,3.1.5,60.071234391551755,
condition files/Stage2_2.xlsx,,T4,B4,r,"['s', 'r']","['Stratego', 'Risk']","[-0.15, 0.5]","[0.15, 0.5]",1,1,,,,,,,,,,,,,,,,,0,3,3,3,0,2,2,5,,,,,,,,,,,,,,,,,,,,,,,,,,,,,,,,,,,,,,,,,,,,,,,943.7290950739989,None,943.7290950739989,None,943.7290950739989,None,s,0,0.9265863369982981,945.2620614980005,None,945.2620614980005,None,945.2620614980005,None,946.2453117570003,None,946.2453117570003,None,946.2453117570003,None,946.2453117570003,None,,,,,,,,,,,,,,,,,,,,,,,,,,,,,,,,,,,,,,,,,,,,001,73,2020_Feb_04_1634,spring_faces,3.1.5,60.071234391551755,
condition files/Stage2_2.xlsx,,B1,T1,s,"['s', 'r']","['Stratego', 'Risk']","[-0.15, 0.5]","[0.15, 0.5]",1,1,,,,,,,,,,,,,,,,,0,3,3,3,0,3,3,2,,,,,,,,,,,,,,,,,,,,,,,,,,,,,,,,,,,,,,,,,,,,,,,948.2121022850006,None,948.2121022850006,None,948.2121022850006,None,r,0,1.0196727969996573,949.7449834399995,None,949.7449834399995,None,949.7449834399995,None,950.8448332660009,None,950.8448332660009,None,950.8448332660009,None,950.8448332660009,None,,,,,,,,,,,,,,,,,,,,,,,,,,,,,,,,,,,,,,,,,,,,001,73,2020_Feb_04_1634,spring_faces,3.1.5,60.071234391551755,
condition files/Stage2_2.xlsx,,B3,T3,s,"['s', 'r']","['Stratego', 'Risk']","[-0.15, 0.5]","[0.15, 0.5]",1,1,,,,,,,,,,,,,,,,,0,3,3,3,0,4,4,4,,,,,,,,,,,,,,,,,,,,,,,,,,,,,,,,,,,,,,,,,,,,,,,952.7947061269988,None,952.7947061269988,None,952.7947061269988,None,s,1,0.7720418639983109,954.3286449350016,None,954.3286449350016,None,954.3286449350016,None,955.1619745429998,None,955.1619745429998,None,955.1619745429998,None,955.1619745429998,None,,,,,,,,,,,,,,,,,,,,,,,,,,,,,,,,,,,,,,,,,,,,001,73,2020_Feb_04_1634,spring_faces,3.1.5,60.071234391551755,
condition files/Stage2_2.xlsx,,B5,T5,s,"['s', 'r']","['Stratego', 'Risk']","[-0.15, 0.5]","[0.15, 0.5]",1,1,,,,,,,,,,,,,,,,,0,3,3,3,0,5,5,0,,,,,,,,,,,,,,,,,,,,,,,,,,,,,,,,,,,,,,,,,,,,,,,957.1286409189997,None,957.1286409189997,None,957.1286409189997,None,s,1,2.2937081050004053,958.6629448300009,None,958.6629448300009,None,958.6629448300009,None,961.0128382809999,None,961.0128382809999,None,961.0128382809999,None,961.0128382809999,None,,,,,,,,,,,,,,,,,,,,,,,,,,,,,,,,,,,,,,,,,,,,001,73,2020_Feb_04_1634,spring_faces,3.1.5,60.071234391551755,
condition files/Stage2_1.xlsx,,B2,T2,r,"['s', 'r']","['Stratego', 'Risk']","[-0.15, 0.5]","[0.15, 0.5]",1,1,,,,,,,,,,,,,,,,,0,4,4,4,0,0,0,3,,,,,,,,,,,,,,,,,,,,,,,,,,,,,,,,,,,,,,,,,,,,,,,962.9953146459993,None,962.9953146459993,None,962.9953146459993,None,r,1,0.9390323000006902,964.5456284739994,None,964.5456284739994,None,964.5456284739994,None,965.5620137680016,None,965.5620137680016,None,965.5620137680016,None,965.5620137680016,None,,,,,,,,,,,,,,,,,,,,,,,,,,,,,,,,,,,,,,,,,,,,001,73,2020_Feb_04_1634,spring_faces,3.1.5,60.071234391551755,
condition files/Stage2_1.xlsx,,T5,B5,s,"['s', 'r']","['Stratego', 'Risk']","[-0.15, 0.5]","[0.15, 0.5]",1,1,,,,,,,,,,,,,,,,,0,4,4,4,0,1,1,0,,,,,,,,,,,,,,,,,,,,,,,,,,,,,,,,,,,,,,,,,,,,,,,967.5114318279993,None,967.5114318279993,None,967.5114318279993,None,s,1,1.2865250230024685,969.0621556400001,None,969.0621556400001,None,969.0621556400001,None,970.4290357099999,None,970.4290357099999,None,970.4290357099999,None,970.4290357099999,None,,,,,,,,,,,,,,,,,,,,,,,,,,,,,,,,,,,,,,,,,,,,001,73,2020_Feb_04_1634,spring_faces,3.1.5,60.071234391551755,
condition files/Stage2_1.xlsx,,T3,B3,s,"['s', 'r']","['Stratego', 'Risk']","[-0.15, 0.5]","[0.15, 0.5]",1,1,,,,,,,,,,,,,,,,,0,4,4,4,0,2,2,4,,,,,,,,,,,,,,,,,,,,,,,,,,,,,,,,,,,,,,,,,,,,,,,972.3786776779998,None,972.3786776779998,None,972.3786776779998,None,s,1,1.0758550229984394,973.912853021,None,973.912853021,None,973.912853021,None,975.0457918009997,None,975.0457918009997,None,975.0457918009997,None,975.0457918009997,None,,,,,,,,,,,,,,,,,,,,,,,,,,,,,,,,,,,,,,,,,,,,001,73,2020_Feb_04_1634,spring_faces,3.1.5,60.071234391551755,
