condsFile,subStage,cue1,cue2,correct,responseKeys,responseNames,cue1Position,cue2Position,cue1Opacity,cue2Opacity,stageLoop0.thisRepN,stageLoop0.thisTrialN,stageLoop0.thisN,stageLoop0.thisIndex,blockLoop0.thisRepN,blockLoop0.thisTrialN,blockLoop0.thisN,blockLoop0.thisIndex,stage1Loop.thisRepN,stage1Loop.thisTrialN,stage1Loop.thisN,stage1Loop.thisIndex,blockLoop1.thisRepN,blockLoop1.thisTrialN,blockLoop1.thisN,blockLoop1.thisIndex,stage2Loop.thisRepN,stage2Loop.thisTrialN,stage2Loop.thisN,stage2Loop.thisIndex,blockLoop2.thisRepN,blockLoop2.thisTrialN,blockLoop2.thisN,blockLoop2.thisIndex,testLoop.thisRepN,testLoop.thisTrialN,testLoop.thisN,testLoop.thisIndex,blockLoopTest.thisRepN,blockLoopTest.thisTrialN,blockLoopTest.thisN,blockLoopTest.thisIndex,cuePics,id_instr_text.started,id_instr_text.stopped,space_to_continue_2.started,space_to_continue_2.stopped,end_instructions_resp_3.keys,end_instructions_resp_3.rt,end_instructions_resp_3.started,end_instructions_resp_3.stopped,id_input_instr.started,id_input_instr.stopped,id_input_rect.started,id_input_rect.stopped,id_input_resp.keys,id_input_resp.rt,id_input_resp.started,id_input_resp.stopped,sonaID,id_input_text.started,id_input_text.stopped,final_text.started,final_text.stopped,instructions.started,instructions.stopped,end_instructions_resp.keys,end_instructions_resp.rt,end_instructions_resp.started,end_instructions_resp.stopped,space_to_continue.started,space_to_continue.stopped,instructions_stage0.started,instructions_stage0.stopped,end_instructions_resp_stage0.keys,end_instructions_resp_stage0.rt,end_instructions_resp_stage0.started,end_instructions_resp_stage0.stopped,space_to_continue_stage0.started,space_to_continue_stage0.stopped,text.started,text.stopped,resp_text1.started,resp_text1.stopped,resp_text2.started,resp_text2.stopped,trial_resp.keys,trial_resp.corr,trial_resp.rt,trial_resp.started,trial_resp.stopped,cue1Image.started,cue1Image.stopped,cue2Image.started,cue2Image.stopped,cue1Image_fb.started,cue1Image_fb.stopped,cue2Image_fb.started,cue2Image_fb.stopped,fb_text_answer.started,fb_text_answer.stopped,feedback_image.started,feedback_image.stopped,instructions_stage1.started,instructions_stage1.stopped,end_instructions_resp_stage1.keys,end_instructions_resp_stage1.rt,end_instructions_resp_stage1.started,end_instructions_resp_stage1.stopped,space_to_continue_stage1.started,space_to_continue_stage1.stopped,instructions_2.started,instructions_2.stopped,end_instructions_resp_2.keys,end_instructions_resp_2.rt,end_instructions_resp_2.started,end_instructions_resp_2.stopped,press_space_to_continue_stage2.started,press_space_to_continue_stage2.stopped,instructions_testStage1.started,instructions_testStage1.stopped,end_instructions_resp_test1.keys,end_instructions_resp_test1.rt,end_instructions_resp_test1.started,end_instructions_resp_test1.stopped,press_space_to_continue_test1.started,press_space_to_continue_test1.stopped,cue1Image_testChoice.started,cue1Image_testChoice.stopped,cue2Image_testChoice.started,cue2Image_testChoice.stopped,test_resp.keys,test_resp.corr,test_resp.rt,test_resp.started,test_resp.stopped,cue1Image_testConf.started,cue1Image_testConf.stopped,cue2Image_testConf.started,cue2Image_testConf.stopped,conf_reminder.started,conf_reminder.stopped,conf_rating.response,conf_rating.rt,conf_rating.started,conf_rating.stopped,session,participant,date,expName,psychopyVersion,frameRate,
,,,,,,,,,,,,,,,,,,,,,,,,,,,,,,,,,,,,,,,,,,,"{'none': 'pictures/20M_AN_C.png', 'alpha': 'pictures/SHINEd_apple.png', 'beta': 'pictures/SHINEd_pepper.png', 'theta': 'pictures/SHINEd_pear.png', 'phi': 'pictures/SHINEd_melon.png', 'T1': 'pictures/36M_AN_C.png', 'T2': 'pictures/26M_AN_C.png', 'T3': 'pictures/31M_AN_C.png', 'T4': 'pictures/20M_AN_C.png', 'T5': 'pictures/34M_AN_C.png', 'T6': 'pictures/25M_AN_C.png', 'B1': 'pictures/33M_NE_C.png', 'B2': 'pictures/37M_NE_C.png', 'B3': 'pictures/22M_NE_C.png', 'B4': 'pictures/38M_NE_C.png', 'B5': 'pictures/23M_NE_C.png', 'B6': 'pictures/32M_NE_C.png'}",14.387105529999872,None,19.370204939999894,None,space,1.8108826479999607,19.370204939999894,None,,,,,,,,,,,,,,,,,,,,,,,,,,,,,,,,,,,,,,,,,,,,,,,,,,,,,,,,,,,,,,,,,,,,,,,,,,,,,,,,,,,,,,,,,,,,,,,,001,74,2020_Feb_06_0859,spring_faces,3.1.5,59.99085763326157,
,,,,,,,,,,,,,,,,,,,,,,,,,,,,,,,,,,,,,,,,,,,,,,,,,,,,21.620487794999917,None,21.620487794999917,None,"['g', 'backspace', '1', '1', '0', '5', 'm', 'a', 'v', 'i', 's']","[18.296589523999955, 19.64060762500003, 30.824676559999943, 31.832599517000062, 33.032608026999924, 33.64062122999985, 38.28061529199999, 39.86458735999986, 44.312612856999976, 45.208684447999985, 45.84861310499991]",21.620487794999917,None,,,,,,,,,,,,,,,,,,,,,,,,,,,,,,,,,,,,,,,,,,,,,,,,,,,,,,,,,,,,,,,,,,,,,,,,,,,,,,,,,,,,,,,,001,74,2020_Feb_06_0859,spring_faces,3.1.5,59.99085763326157,
,,,,,,,,,,,,,,,,,,,,,,,,,,,,,,,,,,,,,,,,,,,,,,,,,,,,,,,,,,,,1105mavis,21.620487794999917,None,21.620487794999917,None,72.53678558399997,None,space,3.7083383419999336,77.5368587339999,None,,,,,,,,,,,,,,,,,,,,,,,,,,,,,,,,,,,,,,,,,,,,,,,,,,,,,,,,,,,,,,,,,,,,,,,,,,,,,001,74,2020_Feb_06_0859,spring_faces,3.1.5,59.99085763326157,
,,,,,,,,,,,,,,,,,,,,,,,,,,,,,,,,,,,,,,,,,,,,,,,,,,,,,,,,,,,,,,,,,,,,,,,77.5368587339999,None,81.287160868,None,space,6.574670077000064,86.27052542199999,None,,,,,,,,,,,,,,,,,,,,,,,,,,,,,,,,,,,,,,,,,,,,,,,,,,,,,,,,,,,,,,,,,,,,,001,74,2020_Feb_06_0859,spring_faces,3.1.5,59.99085763326157,
condition files/Stage0a.xlsx,0a,beta,none,g,"['h', 'g']","['Chess', 'Go']","[0, 0.5]","[0, 0]",1,0,0,0,0,0,0,0,0,1,,,,,,,,,,,,,,,,,,,,,,,,,,,,,,,,,,,,,,,,,,,,,,,,,,,,,,,,,,,,,86.27052542199999,None,93.03627604999997,None,93.03627604999997,None,93.03627604999997,None,h,0,1.660753012999976,94.72038232599994,None,94.72038232599994,None,94.72038232599994,None,96.47051610499989,None,96.47051610499989,None,96.47051610499989,None,96.47051610499989,None,,,,,,,,,,,,,,,,,,,,,,,,,,,,,,,,,,,,,,,,,,,,001,74,2020_Feb_06_0859,spring_faces,3.1.5,59.99085763326157,
condition files/Stage0a.xlsx,0a,alpha,none,h,"['h', 'g']","['Chess', 'Go']","[0, 0.5]","[0, 0]",1,0,0,0,0,0,0,1,1,0,,,,,,,,,,,,,,,,,,,,,,,,,,,,,,,,,,,,,,,,,,,,,,,,,,,,,,,,,,,,,,,98.40293920699992,None,98.40293920699992,None,98.40293920699992,None,g,0,1.178825303999929,99.95431135299987,None,99.95431135299987,None,99.95431135299987,None,101.18666656999994,None,101.18666656999994,None,101.18666656999994,None,101.18666656999994,None,,,,,,,,,,,,,,,,,,,,,,,,,,,,,,,,,,,,,,,,,,,,001,74,2020_Feb_06_0859,spring_faces,3.1.5,59.99085763326157,
condition files/Stage0a.xlsx,0a,alpha,none,h,"['h', 'g']","['Chess', 'Go']","[0, 0.5]","[0, 0]",1,0,0,1,1,1,0,0,0,0,,,,,,,,,,,,,,,,,,,,,,,,,,,,,,,,,,,,,,,,,,,,,,,,,,,,,,,,,,,,,,,103.16994466099982,None,103.16994466099982,None,103.16994466099982,None,h,1,1.0697341000000051,104.70337216099983,None,104.70337216099983,None,104.70337216099983,None,105.8368993539998,None,105.8368993539998,None,105.8368993539998,None,105.8368993539998,None,,,,,,,,,,,,,,,,,,,,,,,,,,,,,,,,,,,,,,,,,,,,001,74,2020_Feb_06_0859,spring_faces,3.1.5,59.99085763326157,
condition files/Stage0a.xlsx,0a,beta,none,g,"['h', 'g']","['Chess', 'Go']","[0, 0.5]","[0, 0]",1,0,0,1,1,1,0,1,1,1,,,,,,,,,,,,,,,,,,,,,,,,,,,,,,,,,,,,,,,,,,,,,,,,,,,,,,,,,,,,,,,107.80349334899984,None,107.80349334899984,None,107.80349334899984,None,g,1,0.5956199039999319,109.33748963899984,None,109.33748963899984,None,109.33748963899984,None,109.9866577639998,None,109.9866577639998,None,109.9866577639998,None,109.9866577639998,None,,,,,,,,,,,,,,,,,,,,,,,,,,,,,,,,,,,,,,,,,,,,001,74,2020_Feb_06_0859,spring_faces,3.1.5,59.99085763326157,
condition files/Stage0a.xlsx,0a,alpha,none,h,"['h', 'g']","['Chess', 'Go']","[0, 0.5]","[0, 0]",1,0,0,2,2,2,0,0,0,0,,,,,,,,,,,,,,,,,,,,,,,,,,,,,,,,,,,,,,,,,,,,,,,,,,,,,,,,,,,,,,,111.97033694399988,None,111.97033694399988,None,111.97033694399988,None,h,1,1.0058726529998694,113.5032867179998,None,113.5032867179998,None,113.5032867179998,None,114.57056616999989,None,114.57056616999989,None,114.57056616999989,None,114.57056616999989,None,,,,,,,,,,,,,,,,,,,,,,,,,,,,,,,,,,,,,,,,,,,,001,74,2020_Feb_06_0859,spring_faces,3.1.5,59.99085763326157,
condition files/Stage0a.xlsx,0a,beta,none,g,"['h', 'g']","['Chess', 'Go']","[0, 0.5]","[0, 0]",1,0,0,2,2,2,0,1,1,1,,,,,,,,,,,,,,,,,,,,,,,,,,,,,,,,,,,,,,,,,,,,,,,,,,,,,,,,,,,,,,,116.53681682199999,None,116.53681682199999,None,116.53681682199999,None,g,1,0.5344205769999917,118.07062523399986,None,118.07062523399986,None,118.07062523399986,None,118.67050937099998,None,118.67050937099998,None,118.67050937099998,None,118.67050937099998,None,,,,,,,,,,,,,,,,,,,,,,,,,,,,,,,,,,,,,,,,,,,,001,74,2020_Feb_06_0859,spring_faces,3.1.5,59.99085763326157,
condition files/Stage0a.xlsx,0a,beta,none,g,"['h', 'g']","['Chess', 'Go']","[0, 0.5]","[0, 0]",1,0,0,3,3,3,0,0,0,1,,,,,,,,,,,,,,,,,,,,,,,,,,,,,,,,,,,,,,,,,,,,,,,,,,,,,,,,,,,,,,,120.65397511899982,None,120.65397511899982,None,120.65397511899982,None,g,1,1.0903099699999075,122.18686879899997,None,122.18686879899997,None,122.18686879899997,None,123.3371619359998,None,123.3371619359998,None,123.3371619359998,None,123.3371619359998,None,,,,,,,,,,,,,,,,,,,,,,,,,,,,,,,,,,,,,,,,,,,,001,74,2020_Feb_06_0859,spring_faces,3.1.5,59.99085763326157,
condition files/Stage0a.xlsx,0a,alpha,none,h,"['h', 'g']","['Chess', 'Go']","[0, 0.5]","[0, 0]",1,0,0,3,3,3,0,1,1,0,,,,,,,,,,,,,,,,,,,,,,,,,,,,,,,,,,,,,,,,,,,,,,,,,,,,,,,,,,,,,,,125.30347034900001,None,125.30347034900001,None,125.30347034900001,None,h,1,0.6799654129999908,126.83705616099996,None,126.83705616099996,None,126.83705616099996,None,127.57030193899982,None,127.57030193899982,None,127.57030193899982,None,127.57030193899982,None,,,,,,,,,,,,,,,,,,,,,,,,,,,,,,,,,,,,,,,,,,,,001,74,2020_Feb_06_0859,spring_faces,3.1.5,59.99085763326157,
condition files/Stage0a.xlsx,0a,beta,none,g,"['h', 'g']","['Chess', 'Go']","[0, 0.5]","[0, 0]",1,0,0,4,4,4,0,0,0,1,,,,,,,,,,,,,,,,,,,,,,,,,,,,,,,,,,,,,,,,,,,,,,,,,,,,,,,,,,,,,,,129.5538651889999,None,129.5538651889999,None,129.5538651889999,None,g,1,0.7498546980000356,131.0872059389999,None,131.0872059389999,None,131.0872059389999,None,131.90384920899987,None,131.90384920899987,None,131.90384920899987,None,131.90384920899987,None,,,,,,,,,,,,,,,,,,,,,,,,,,,,,,,,,,,,,,,,,,,,001,74,2020_Feb_06_0859,spring_faces,3.1.5,59.99085763326157,
condition files/Stage0a.xlsx,0a,alpha,none,h,"['h', 'g']","['Chess', 'Go']","[0, 0.5]","[0, 0]",1,0,0,4,4,4,0,1,1,0,,,,,,,,,,,,,,,,,,,,,,,,,,,,,,,,,,,,,,,,,,,,,,,,,,,,,,,,,,,,,,,133.8702591939998,None,133.8702591939998,None,133.8702591939998,None,h,1,1.9051309470000888,135.40398814899982,None,135.40398814899982,None,135.40398814899982,None,137.37012689499988,None,137.37012689499988,None,137.37012689499988,None,137.37012689499988,None,,,,,,,,,,,,,,,,,,,,,,,,,,,,,,,,,,,,,,,,,,,,001,74,2020_Feb_06_0859,spring_faces,3.1.5,59.99085763326157,
condition files/Stage0a.xlsx,0a,alpha,none,h,"['h', 'g']","['Chess', 'Go']","[0, 0.5]","[0, 0]",1,0,0,5,5,5,0,0,0,0,,,,,,,,,,,,,,,,,,,,,,,,,,,,,,,,,,,,,,,,,,,,,,,,,,,,,,,,,,,,,,,139.353495889,None,139.353495889,None,139.353495889,None,h,1,0.742981385000121,140.87010951999991,None,140.87010951999991,None,140.87010951999991,None,141.6702077719999,None,141.6702077719999,None,141.6702077719999,None,141.6702077719999,None,,,,,,,,,,,,,,,,,,,,,,,,,,,,,,,,,,,,,,,,,,,,001,74,2020_Feb_06_0859,spring_faces,3.1.5,59.99085763326157,
condition files/Stage0a.xlsx,0a,beta,none,g,"['h', 'g']","['Chess', 'Go']","[0, 0.5]","[0, 0]",1,0,0,5,5,5,0,1,1,1,,,,,,,,,,,,,,,,,,,,,,,,,,,,,,,,,,,,,,,,,,,,,,,,,,,,,,,,,,,,,,,143.63600859999997,None,143.63600859999997,None,143.63600859999997,None,g,1,0.8105889729999944,145.17052841099985,None,145.17052841099985,None,145.17052841099985,None,146.03693247,None,146.03693247,None,146.03693247,None,146.03693247,None,,,,,,,,,,,,,,,,,,,,,,,,,,,,,,,,,,,,,,,,,,,,001,74,2020_Feb_06_0859,spring_faces,3.1.5,59.99085763326157,
condition files/Stage0b_1.xlsx,0b,alpha,none,h,"['h', 'g']","['Chess', 'Go']","[-0.15, 0.5]","[0.15, 0.5]",1,0,0,6,6,6,0,0,0,0,,,,,,,,,,,,,,,,,,,,,,,,,,,,,,,,,,,,,,,,,,,,,,,,,,,,,,,,,,,,,,,148.0705295849998,None,148.0705295849998,None,148.0705295849998,None,h,1,1.290963364999925,149.55422370999986,None,149.55422370999986,None,149.55422370999986,None,150.90329894899992,None,150.90329894899992,None,150.90329894899992,None,150.90329894899992,None,,,,,,,,,,,,,,,,,,,,,,,,,,,,,,,,,,,,,,,,,,,,001,74,2020_Feb_06_0859,spring_faces,3.1.5,59.99085763326157,
condition files/Stage0b_1.xlsx,0b,none,beta,g,"['h', 'g']","['Chess', 'Go']","[-0.15, 0.5]","[0.15, 0.5]",0,1,0,6,6,6,0,1,1,1,,,,,,,,,,,,,,,,,,,,,,,,,,,,,,,,,,,,,,,,,,,,,,,,,,,,,,,,,,,,,,,152.87009920499986,None,152.87009920499986,None,152.87009920499986,None,g,1,0.8889711669999087,154.42015920899985,None,154.42015920899985,None,154.42015920899985,None,155.3868296579999,None,155.3868296579999,None,155.3868296579999,None,155.3868296579999,None,,,,,,,,,,,,,,,,,,,,,,,,,,,,,,,,,,,,,,,,,,,,001,74,2020_Feb_06_0859,spring_faces,3.1.5,59.99085763326157,
condition files/Stage0b_2.xlsx,0b,beta,none,g,"['h', 'g']","['Chess', 'Go']","[-0.15, 0.5]","[0.15, 0.5]",1,0,0,7,7,7,0,0,0,1,,,,,,,,,,,,,,,,,,,,,,,,,,,,,,,,,,,,,,,,,,,,,,,,,,,,,,,,,,,,,,,157.3703160309999,None,157.3703160309999,None,157.3703160309999,None,g,1,1.2191398499999195,158.88999789199988,None,158.88999789199988,None,158.88999789199988,None,160.16989270599993,None,160.16989270599993,None,160.16989270599993,None,160.16989270599993,None,,,,,,,,,,,,,,,,,,,,,,,,,,,,,,,,,,,,,,,,,,,,001,74,2020_Feb_06_0859,spring_faces,3.1.5,59.99085763326157,
condition files/Stage0b_2.xlsx,0b,none,alpha,h,"['h', 'g']","['Chess', 'Go']","[-0.15, 0.5]","[0.15, 0.5]",0,1,0,7,7,7,0,1,1,0,,,,,,,,,,,,,,,,,,,,,,,,,,,,,,,,,,,,,,,,,,,,,,,,,,,,,,,,,,,,,,,162.1367455159998,None,162.1367455159998,None,162.1367455159998,None,h,1,0.6135798810000779,163.6715404749998,None,163.6715404749998,None,163.6715404749998,None,164.3373438609999,None,164.3373438609999,None,164.3373438609999,None,164.3373438609999,None,,,,,,,,,,,,,,,,,,,,,,,,,,,,,,,,,,,,,,,,,,,,001,74,2020_Feb_06_0859,spring_faces,3.1.5,59.99085763326157,
condition files/Stage0b_1.xlsx,0b,none,beta,g,"['h', 'g']","['Chess', 'Go']","[-0.15, 0.5]","[0.15, 0.5]",0,1,0,8,8,8,0,0,0,1,,,,,,,,,,,,,,,,,,,,,,,,,,,,,,,,,,,,,,,,,,,,,,,,,,,,,,,,,,,,,,,166.31996886699994,None,166.31996886699994,None,166.31996886699994,None,g,1,0.9913427040000897,167.85383225499982,None,167.85383225499982,None,167.85383225499982,None,168.9040828149998,None,168.9040828149998,None,168.9040828149998,None,168.9040828149998,None,,,,,,,,,,,,,,,,,,,,,,,,,,,,,,,,,,,,,,,,,,,,001,74,2020_Feb_06_0859,spring_faces,3.1.5,59.99085763326157,
condition files/Stage0b_1.xlsx,0b,alpha,none,h,"['h', 'g']","['Chess', 'Go']","[-0.15, 0.5]","[0.15, 0.5]",1,0,0,8,8,8,0,1,1,0,,,,,,,,,,,,,,,,,,,,,,,,,,,,,,,,,,,,,,,,,,,,,,,,,,,,,,,,,,,,,,,170.87009543599993,None,170.87009543599993,None,170.87009543599993,None,h,1,0.7243907729998682,172.40872398099987,None,172.40872398099987,None,172.40872398099987,None,173.20377682599997,None,173.20377682599997,None,173.20377682599997,None,173.20377682599997,None,,,,,,,,,,,,,,,,,,,,,,,,,,,,,,,,,,,,,,,,,,,,001,74,2020_Feb_06_0859,spring_faces,3.1.5,59.99085763326157,
condition files/Stage0b_2.xlsx,0b,beta,none,g,"['h', 'g']","['Chess', 'Go']","[-0.15, 0.5]","[0.15, 0.5]",1,0,0,9,9,9,0,0,0,1,,,,,,,,,,,,,,,,,,,,,,,,,,,,,,,,,,,,,,,,,,,,,,,,,,,,,,,,,,,,,,,175.1704044239998,None,175.1704044239998,None,175.1704044239998,None,g,1,0.7333381399998871,176.70377538999992,None,176.70377538999992,None,176.70377538999992,None,177.486436443,None,177.486436443,None,177.486436443,None,177.486436443,None,,,,,,,,,,,,,,,,,,,,,,,,,,,,,,,,,,,,,,,,,,,,001,74,2020_Feb_06_0859,spring_faces,3.1.5,59.99085763326157,
condition files/Stage0b_2.xlsx,0b,none,alpha,h,"['h', 'g']","['Chess', 'Go']","[-0.15, 0.5]","[0.15, 0.5]",0,1,0,9,9,9,0,1,1,0,,,,,,,,,,,,,,,,,,,,,,,,,,,,,,,,,,,,,,,,,,,,,,,,,,,,,,,,,,,,,,,179.4528800149999,None,179.4528800149999,None,179.4528800149999,None,h,1,0.7053354749998562,180.98780348399987,None,180.98780348399987,None,180.98780348399987,None,181.75588764999998,None,181.75588764999998,None,181.75588764999998,None,181.75588764999998,None,,,,,,,,,,,,,,,,,,,,,,,,,,,,,,,,,,,,,,,,,,,,001,74,2020_Feb_06_0859,spring_faces,3.1.5,59.99085763326157,
condition files/Stage0b_1.xlsx,0b,none,beta,g,"['h', 'g']","['Chess', 'Go']","[-0.15, 0.5]","[0.15, 0.5]",0,1,0,10,10,10,0,0,0,1,,,,,,,,,,,,,,,,,,,,,,,,,,,,,,,,,,,,,,,,,,,,,,,,,,,,,,,,,,,,,,,183.73763908,None,183.73763908,None,183.73763908,None,h,0,0.6152088149999599,185.26993094099998,None,185.26993094099998,None,185.26993094099998,None,185.9375000089999,None,185.9375000089999,None,185.9375000089999,None,185.9375000089999,None,,,,,,,,,,,,,,,,,,,,,,,,,,,,,,,,,,,,,,,,,,,,001,74,2020_Feb_06_0859,spring_faces,3.1.5,59.99085763326157,
condition files/Stage0b_1.xlsx,0b,alpha,none,h,"['h', 'g']","['Chess', 'Go']","[-0.15, 0.5]","[0.15, 0.5]",1,0,0,10,10,10,0,1,1,0,,,,,,,,,,,,,,,,,,,,,,,,,,,,,,,,,,,,,,,,,,,,,,,,,,,,,,,,,,,,,,,187.90326880999987,None,187.90326880999987,None,187.90326880999987,None,h,1,1.2753674360001241,189.44175840899993,None,189.44175840899993,None,189.44175840899993,None,190.78735102999985,None,190.78735102999985,None,190.78735102999985,None,190.78735102999985,None,,,,,,,,,,,,,,,,,,,,,,,,,,,,,,,,,,,,,,,,,,,,001,74,2020_Feb_06_0859,spring_faces,3.1.5,59.99085763326157,
condition files/Stage0b_2.xlsx,0b,beta,none,g,"['h', 'g']","['Chess', 'Go']","[-0.15, 0.5]","[0.15, 0.5]",1,0,0,11,11,11,0,0,0,1,,,,,,,,,,,,,,,,,,,,,,,,,,,,,,,,,,,,,,,,,,,,,,,,,,,,,,,,,,,,,,,192.75380642899995,None,192.75380642899995,None,192.75380642899995,None,g,1,2.3655429880000156,194.28752103299985,None,194.28752103299985,None,194.28752103299985,None,196.70347988999993,None,196.70347988999993,None,196.70347988999993,None,196.70347988999993,None,,,,,,,,,,,,,,,,,,,,,,,,,,,,,,,,,,,,,,,,,,,,001,74,2020_Feb_06_0859,spring_faces,3.1.5,59.99085763326157,
condition files/Stage0b_2.xlsx,0b,none,alpha,h,"['h', 'g']","['Chess', 'Go']","[-0.15, 0.5]","[0.15, 0.5]",0,1,0,11,11,11,0,1,1,0,,,,,,,,,,,,,,,,,,,,,,,,,,,,,,,,,,,,,,,,,,,,,,,,,,,,,,,,,,,,,,,198.66920903799996,None,198.66920903799996,None,198.66920903799996,None,h,1,0.5266161540000667,200.206515482,None,200.206515482,None,200.206515482,None,200.80313312299995,None,200.80313312299995,None,200.80313312299995,None,200.80313312299995,None,,,,,,,,,,,,,,,,,,,,,,,,,,,,,,,,,,,,,,,,,,,,001,74,2020_Feb_06_0859,spring_faces,3.1.5,59.99085763326157,
condition files/Stage0c_1.xlsx,0c,beta,theta,g,"['h', 'g']","['Chess', 'Go']","[-0.15, 0.5]","[0.15, 0.5]",1,1,0,12,12,12,0,0,0,2,,,,,,,,,,,,,,,,,,,,,,,,,,,,,,,,,,,,,,,,,,,,,,,,,,,,,,,,,,,,,,,202.7871043,None,202.7871043,None,202.7871043,None,g,1,3.6115992109998842,204.3055312869999,None,204.3055312869999,None,204.3055312869999,None,207.97001026299995,None,207.97001026299995,None,207.97001026299995,None,207.97001026299995,None,,,,,,,,,,,,,,,,,,,,,,,,,,,,,,,,,,,,,,,,,,,,001,74,2020_Feb_06_0859,spring_faces,3.1.5,59.99085763326157,
condition files/Stage0c_1.xlsx,0c,theta,alpha,h,"['h', 'g']","['Chess', 'Go']","[-0.15, 0.5]","[0.15, 0.5]",1,1,0,12,12,12,0,1,1,0,,,,,,,,,,,,,,,,,,,,,,,,,,,,,,,,,,,,,,,,,,,,,,,,,,,,,,,,,,,,,,,209.93652943199982,None,209.93652943199982,None,209.93652943199982,None,h,1,0.9750195169999643,211.47015819399985,None,211.47015819399985,None,211.47015819399985,None,212.50388226699988,None,212.50388226699988,None,212.50388226699988,None,212.50388226699988,None,,,,,,,,,,,,,,,,,,,,,,,,,,,,,,,,,,,,,,,,,,,,001,74,2020_Feb_06_0859,spring_faces,3.1.5,59.99085763326157,
condition files/Stage0c_1.xlsx,0c,phi,beta,g,"['h', 'g']","['Chess', 'Go']","[-0.15, 0.5]","[0.15, 0.5]",1,1,0,12,12,12,0,2,2,3,,,,,,,,,,,,,,,,,,,,,,,,,,,,,,,,,,,,,,,,,,,,,,,,,,,,,,,,,,,,,,,214.47023705399988,None,214.47023705399988,None,214.47023705399988,None,g,1,1.557424734000051,216.02371591199994,None,216.02371591199994,None,216.02371591199994,None,217.63656546799984,None,217.63656546799984,None,217.63656546799984,None,217.63656546799984,None,,,,,,,,,,,,,,,,,,,,,,,,,,,,,,,,,,,,,,,,,,,,001,74,2020_Feb_06_0859,spring_faces,3.1.5,59.99085763326157,
condition files/Stage0c_1.xlsx,0c,alpha,phi,h,"['h', 'g']","['Chess', 'Go']","[-0.15, 0.5]","[0.15, 0.5]",1,1,0,12,12,12,0,3,3,1,,,,,,,,,,,,,,,,,,,,,,,,,,,,,,,,,,,,,,,,,,,,,,,,,,,,,,,,,,,,,,,219.60380170099984,None,219.60380170099984,None,219.60380170099984,None,h,1,1.3724285890000374,221.13668845899997,None,221.13668845899997,None,221.13668845899997,None,222.5701208879998,None,222.5701208879998,None,222.5701208879998,None,222.5701208879998,None,,,,,,,,,,,,,,,,,,,,,,,,,,,,,,,,,,,,,,,,,,,,001,74,2020_Feb_06_0859,spring_faces,3.1.5,59.99085763326157,
condition files/Stage0c_2.xlsx,0c,theta,beta,g,"['h', 'g']","['Chess', 'Go']","[-0.15, 0.5]","[0.15, 0.5]",1,1,0,13,13,13,0,0,0,2,,,,,,,,,,,,,,,,,,,,,,,,,,,,,,,,,,,,,,,,,,,,,,,,,,,,,,,,,,,,,,,224.57058646299993,None,224.57058646299993,None,224.57058646299993,None,g,1,1.2217642569999043,226.08736013399994,None,226.08736013399994,None,226.08736013399994,None,227.37029339599985,None,227.37029339599985,None,227.37029339599985,None,227.37029339599985,None,,,,,,,,,,,,,,,,,,,,,,,,,,,,,,,,,,,,,,,,,,,,001,74,2020_Feb_06_0859,spring_faces,3.1.5,59.99085763326157,
condition files/Stage0c_2.xlsx,0c,beta,phi,g,"['h', 'g']","['Chess', 'Go']","[-0.15, 0.5]","[0.15, 0.5]",1,1,0,13,13,13,0,1,1,3,,,,,,,,,,,,,,,,,,,,,,,,,,,,,,,,,,,,,,,,,,,,,,,,,,,,,,,,,,,,,,,229.336552021,None,229.336552021,None,229.336552021,None,g,1,1.5909684529999595,230.8702043459998,None,230.8702043459998,None,230.8702043459998,None,232.503986124,None,232.503986124,None,232.503986124,None,232.503986124,None,,,,,,,,,,,,,,,,,,,,,,,,,,,,,,,,,,,,,,,,,,,,001,74,2020_Feb_06_0859,spring_faces,3.1.5,59.99085763326157,
condition files/Stage0c_2.xlsx,0c,phi,alpha,h,"['h', 'g']","['Chess', 'Go']","[-0.15, 0.5]","[0.15, 0.5]",1,1,0,13,13,13,0,2,2,1,,,,,,,,,,,,,,,,,,,,,,,,,,,,,,,,,,,,,,,,,,,,,,,,,,,,,,,,,,,,,,,234.48681542199984,None,234.48681542199984,None,234.48681542199984,None,h,1,0.8244602919999124,236.0207174589998,None,236.0207174589998,None,236.0207174589998,None,236.90367867299983,None,236.90367867299983,None,236.90367867299983,None,236.90367867299983,None,,,,,,,,,,,,,,,,,,,,,,,,,,,,,,,,,,,,,,,,,,,,001,74,2020_Feb_06_0859,spring_faces,3.1.5,59.99085763326157,
condition files/Stage0c_2.xlsx,0c,alpha,theta,h,"['h', 'g']","['Chess', 'Go']","[-0.15, 0.5]","[0.15, 0.5]",1,1,0,13,13,13,0,3,3,0,,,,,,,,,,,,,,,,,,,,,,,,,,,,,,,,,,,,,,,,,,,,,,,,,,,,,,,,,,,,,,,238.8698700729999,None,238.8698700729999,None,238.8698700729999,None,h,1,1.4011894149998625,240.40389543899983,None,240.40389543899983,None,240.40389543899983,None,241.85324552099996,None,241.85324552099996,None,241.85324552099996,None,241.85324552099996,None,,,,,,,,,,,,,,,,,,,,,,,,,,,,,,,,,,,,,,,,,,,,001,74,2020_Feb_06_0859,spring_faces,3.1.5,59.99085763326157,
condition files/Stage0c_1.xlsx,0c,theta,alpha,h,"['h', 'g']","['Chess', 'Go']","[-0.15, 0.5]","[0.15, 0.5]",1,1,0,14,14,14,0,0,0,0,,,,,,,,,,,,,,,,,,,,,,,,,,,,,,,,,,,,,,,,,,,,,,,,,,,,,,,,,,,,,,,243.85345866099988,None,243.85345866099988,None,243.85345866099988,None,h,1,1.1699702079999952,245.38716175499985,None,245.38716175499985,None,245.38716175499985,None,246.60529579699983,None,246.60529579699983,None,246.60529579699983,None,246.60529579699983,None,,,,,,,,,,,,,,,,,,,,,,,,,,,,,,,,,,,,,,,,,,,,001,74,2020_Feb_06_0859,spring_faces,3.1.5,59.99085763326157,
condition files/Stage0c_1.xlsx,0c,beta,theta,g,"['h', 'g']","['Chess', 'Go']","[-0.15, 0.5]","[0.15, 0.5]",1,1,0,14,14,14,0,1,1,2,,,,,,,,,,,,,,,,,,,,,,,,,,,,,,,,,,,,,,,,,,,,,,,,,,,,,,,,,,,,,,,248.586841715,None,248.586841715,None,248.586841715,None,g,1,2.388679977000038,250.12044396199985,None,250.12044396199985,None,250.12044396199985,None,252.570480138,None,252.570480138,None,252.570480138,None,252.570480138,None,,,,,,,,,,,,,,,,,,,,,,,,,,,,,,,,,,,,,,,,,,,,001,74,2020_Feb_06_0859,spring_faces,3.1.5,59.99085763326157,
condition files/Stage0c_1.xlsx,0c,alpha,phi,h,"['h', 'g']","['Chess', 'Go']","[-0.15, 0.5]","[0.15, 0.5]",1,1,0,14,14,14,0,2,2,1,,,,,,,,,,,,,,,,,,,,,,,,,,,,,,,,,,,,,,,,,,,,,,,,,,,,,,,,,,,,,,,254.5362262709998,None,254.5362262709998,None,254.5362262709998,None,h,1,0.9346663059998264,256.07041619999995,None,256.07041619999995,None,256.07041619999995,None,257.07063514499987,None,257.07063514499987,None,257.07063514499987,None,257.07063514499987,None,,,,,,,,,,,,,,,,,,,,,,,,,,,,,,,,,,,,,,,,,,,,001,74,2020_Feb_06_0859,spring_faces,3.1.5,59.99085763326157,
condition files/Stage0c_1.xlsx,0c,phi,beta,g,"['h', 'g']","['Chess', 'Go']","[-0.15, 0.5]","[0.15, 0.5]",1,1,0,14,14,14,0,3,3,3,,,,,,,,,,,,,,,,,,,,,,,,,,,,,,,,,,,,,,,,,,,,,,,,,,,,,,,,,,,,,,,259.0387292219998,None,259.0387292219998,None,259.0387292219998,None,g,1,1.1866023850000147,260.57052123899985,None,260.57052123899985,None,260.57052123899985,None,261.82000061199983,None,261.82000061199983,None,261.82000061199983,None,261.82000061199983,None,,,,,,,,,,,,,,,,,,,,,,,,,,,,,,,,,,,,,,,,,,,,001,74,2020_Feb_06_0859,spring_faces,3.1.5,59.99085763326157,
condition files/Stage0c_2.xlsx,0c,theta,beta,g,"['h', 'g']","['Chess', 'Go']","[-0.15, 0.5]","[0.15, 0.5]",1,1,0,15,15,15,0,0,0,2,,,,,,,,,,,,,,,,,,,,,,,,,,,,,,,,,,,,,,,,,,,,,,,,,,,,,,,,,,,,,,,263.8037206209999,None,263.8037206209999,None,263.8037206209999,None,g,1,1.5886331930000779,265.3204951639998,None,265.3204951639998,None,265.3204951639998,None,266.95361857399985,None,266.95361857399985,None,266.95361857399985,None,266.95361857399985,None,,,,,,,,,,,,,,,,,,,,,,,,,,,,,,,,,,,,,,,,,,,,001,74,2020_Feb_06_0859,spring_faces,3.1.5,59.99085763326157,
condition files/Stage0c_2.xlsx,0c,beta,phi,g,"['h', 'g']","['Chess', 'Go']","[-0.15, 0.5]","[0.15, 0.5]",1,1,0,15,15,15,0,1,1,3,,,,,,,,,,,,,,,,,,,,,,,,,,,,,,,,,,,,,,,,,,,,,,,,,,,,,,,,,,,,,,,268.93702921499994,None,268.93702921499994,None,268.93702921499994,None,g,1,1.1272824990001027,270.4698973919999,None,270.4698973919999,None,270.4698973919999,None,271.65387394799995,None,271.65387394799995,None,271.65387394799995,None,271.65387394799995,None,,,,,,,,,,,,,,,,,,,,,,,,,,,,,,,,,,,,,,,,,,,,001,74,2020_Feb_06_0859,spring_faces,3.1.5,59.99085763326157,
condition files/Stage0c_2.xlsx,0c,phi,alpha,h,"['h', 'g']","['Chess', 'Go']","[-0.15, 0.5]","[0.15, 0.5]",1,1,0,15,15,15,0,2,2,1,,,,,,,,,,,,,,,,,,,,,,,,,,,,,,,,,,,,,,,,,,,,,,,,,,,,,,,,,,,,,,,273.62016148,None,273.62016148,None,273.62016148,None,h,1,1.4676868319997993,275.1533957029999,None,275.1533957029999,None,275.1533957029999,None,276.6734824189998,None,276.6734824189998,None,276.6734824189998,None,276.6734824189998,None,,,,,,,,,,,,,,,,,,,,,,,,,,,,,,,,,,,,,,,,,,,,001,74,2020_Feb_06_0859,spring_faces,3.1.5,59.99085763326157,
condition files/Stage0c_2.xlsx,0c,alpha,theta,h,"['h', 'g']","['Chess', 'Go']","[-0.15, 0.5]","[0.15, 0.5]",1,1,0,15,15,15,0,3,3,0,,,,,,,,,,,,,,,,,,,,,,,,,,,,,,,,,,,,,,,,,,,,,,,,,,,,,,,,,,,,,,,278.65349619099993,None,278.65349619099993,None,278.65349619099993,None,h,1,2.482573370999944,280.18649048399993,None,280.18649048399993,None,280.18649048399993,None,282.70452646399985,None,282.70452646399985,None,282.70452646399985,None,282.70452646399985,None,,,,,,,,,,,,,,,,,,,,,,,,,,,,,,,,,,,,,,,,,,,,001,74,2020_Feb_06_0859,spring_faces,3.1.5,59.99085763326157,
condition files/Stage0c_1.xlsx,0c,phi,beta,g,"['h', 'g']","['Chess', 'Go']","[-0.15, 0.5]","[0.15, 0.5]",1,1,0,16,16,16,0,0,0,3,,,,,,,,,,,,,,,,,,,,,,,,,,,,,,,,,,,,,,,,,,,,,,,,,,,,,,,,,,,,,,,284.70405047099985,None,284.70405047099985,None,284.70405047099985,None,g,1,1.1518798029999289,286.237238294,None,286.237238294,None,286.237238294,None,287.453787616,None,287.453787616,None,287.453787616,None,287.453787616,None,,,,,,,,,,,,,,,,,,,,,,,,,,,,,,,,,,,,,,,,,,,,001,74,2020_Feb_06_0859,spring_faces,3.1.5,59.99085763326157,
condition files/Stage0c_1.xlsx,0c,alpha,phi,h,"['h', 'g']","['Chess', 'Go']","[-0.15, 0.5]","[0.15, 0.5]",1,1,0,16,16,16,0,1,1,1,,,,,,,,,,,,,,,,,,,,,,,,,,,,,,,,,,,,,,,,,,,,,,,,,,,,,,,,,,,,,,,289.4204210789999,None,289.4204210789999,None,289.4204210789999,None,h,1,1.1558969299999262,290.9532246269998,None,290.9532246269998,None,290.9532246269998,None,292.1700179349998,None,292.1700179349998,None,292.1700179349998,None,292.1700179349998,None,,,,,,,,,,,,,,,,,,,,,,,,,,,,,,,,,,,,,,,,,,,,001,74,2020_Feb_06_0859,spring_faces,3.1.5,59.99085763326157,
condition files/Stage0c_1.xlsx,0c,theta,alpha,h,"['h', 'g']","['Chess', 'Go']","[-0.15, 0.5]","[0.15, 0.5]",1,1,0,16,16,16,0,2,2,0,,,,,,,,,,,,,,,,,,,,,,,,,,,,,,,,,,,,,,,,,,,,,,,,,,,,,,,,,,,,,,,294.1363796249998,None,294.1363796249998,None,294.1363796249998,None,h,1,1.3666986030000317,295.6704204399998,None,295.6704204399998,None,295.6704204399998,None,297.0739593349999,None,297.0739593349999,None,297.0739593349999,None,297.0739593349999,None,,,,,,,,,,,,,,,,,,,,,,,,,,,,,,,,,,,,,,,,,,,,001,74,2020_Feb_06_0859,spring_faces,3.1.5,59.99085763326157,
condition files/Stage0c_1.xlsx,0c,beta,theta,g,"['h', 'g']","['Chess', 'Go']","[-0.15, 0.5]","[0.15, 0.5]",1,1,0,16,16,16,0,3,3,2,,,,,,,,,,,,,,,,,,,,,,,,,,,,,,,,,,,,,,,,,,,,,,,,,,,,,,,,,,,,,,,299.05337539899983,None,299.05337539899983,None,299.05337539899983,None,g,1,1.058414237000079,300.58675765199996,None,300.58675765199996,None,300.58675765199996,None,301.70370239,None,301.70370239,None,301.70370239,None,301.70370239,None,,,,,,,,,,,,,,,,,,,,,,,,,,,,,,,,,,,,,,,,,,,,001,74,2020_Feb_06_0859,spring_faces,3.1.5,59.99085763326157,
condition files/Stage0c_2.xlsx,0c,theta,beta,g,"['h', 'g']","['Chess', 'Go']","[-0.15, 0.5]","[0.15, 0.5]",1,1,0,17,17,17,0,0,0,2,,,,,,,,,,,,,,,,,,,,,,,,,,,,,,,,,,,,,,,,,,,,,,,,,,,,,,,,,,,,,,,303.6870826969998,None,303.6870826969998,None,303.6870826969998,None,h,0,0.776715632000105,305.2204796059998,None,305.2204796059998,None,305.2204796059998,None,306.0382158059999,None,306.0382158059999,None,306.0382158059999,None,306.0382158059999,None,,,,,,,,,,,,,,,,,,,,,,,,,,,,,,,,,,,,,,,,,,,,001,74,2020_Feb_06_0859,spring_faces,3.1.5,59.99085763326157,
condition files/Stage0c_2.xlsx,0c,beta,phi,g,"['h', 'g']","['Chess', 'Go']","[-0.15, 0.5]","[0.15, 0.5]",1,1,0,17,17,17,0,1,1,3,,,,,,,,,,,,,,,,,,,,,,,,,,,,,,,,,,,,,,,,,,,,,,,,,,,,,,,,,,,,,,,308.0202124589998,None,308.0202124589998,None,308.0202124589998,None,g,1,0.9717879780000658,309.5533465799999,None,309.5533465799999,None,309.5533465799999,None,310.5719932789998,None,310.5719932789998,None,310.5719932789998,None,310.5719932789998,None,,,,,,,,,,,,,,,,,,,,,,,,,,,,,,,,,,,,,,,,,,,,001,74,2020_Feb_06_0859,spring_faces,3.1.5,59.99085763326157,
condition files/Stage0c_2.xlsx,0c,phi,alpha,h,"['h', 'g']","['Chess', 'Go']","[-0.15, 0.5]","[0.15, 0.5]",1,1,0,17,17,17,0,2,2,1,,,,,,,,,,,,,,,,,,,,,,,,,,,,,,,,,,,,,,,,,,,,,,,,,,,,,,,,,,,,,,,312.55286663599986,None,312.55286663599986,None,312.55286663599986,None,h,1,0.6778380490000018,314.0872534119999,None,314.0872534119999,None,314.0872534119999,None,314.8207394049998,None,314.8207394049998,None,314.8207394049998,None,314.8207394049998,None,,,,,,,,,,,,,,,,,,,,,,,,,,,,,,,,,,,,,,,,,,,,001,74,2020_Feb_06_0859,spring_faces,3.1.5,59.99085763326157,
condition files/Stage0c_2.xlsx,0c,alpha,theta,h,"['h', 'g']","['Chess', 'Go']","[-0.15, 0.5]","[0.15, 0.5]",1,1,0,17,17,17,0,3,3,0,,,,,,,,,,,,,,,,,,,,,,,,,,,,,,,,,,,,,,,,,,,,,,,,,,,,,,,,,,,,,,,316.786527108,None,316.786527108,None,316.786527108,None,h,1,0.9728263879999304,318.3203075619999,None,318.3203075619999,None,318.3203075619999,None,319.33840162599995,None,319.33840162599995,None,319.33840162599995,None,319.33840162599995,None,,,,,,,,,,,,,,,,,,,,,,,,,,,,,,,,,,,,,,,,,,,,001,74,2020_Feb_06_0859,spring_faces,3.1.5,59.99085763326157,
,,,,,,,,,,,,,,,,,,,,,,,,,,,,,,,,,,,,,,,,,,,,,,,,,,,,,,,,,,,,,,,,,,,,,,,,,,,,,,,,,,,,,,,,,,,,,,,,,,,,,,,,321.3373234249998,None,space,5.180145902000049,326.3369976719998,None,,,,,,,,,,,,,,,,,,,,,,,,,,,,,,,,,,,,,,001,74,2020_Feb_06_0859,spring_faces,3.1.5,59.99085763326157,
condition files/Stage1_1.xlsx,,T4,B3,m,"['c', 'm']","['Clue', 'Monopoly']","[-0.15, 0.5]","[0.15, 0.5]",1,1,,,,,,,,,0,0,0,0,0,0,0,6,,,,,,,,,,,,,,,,,,,,,,,,,,,,,,,,,,,,,,,,,,,,,,,,,,,,,,,331.65375142799985,None,331.65375142799985,None,331.65375142799985,None,m,1,2.218001533000006,333.139151913,None,333.139151913,None,333.139151913,None,335.43789988599997,None,335.43789988599997,None,335.43789988599997,None,335.43789988599997,None,,,,,,,326.3369976719998,None,,,,,,,,,,,,,,,,,,,,,,,,,,,,,,,,,,,,001,74,2020_Feb_06_0859,spring_faces,3.1.5,59.99085763326157,
condition files/Stage1_1.xlsx,,B3,T3,c,"['c', 'm']","['Clue', 'Monopoly']","[-0.15, 0.5]","[0.15, 0.5]",1,1,,,,,,,,,0,0,0,0,0,1,1,4,,,,,,,,,,,,,,,,,,,,,,,,,,,,,,,,,,,,,,,,,,,,,,,,,,,,,,,337.3868261619998,None,337.3868261619998,None,337.3868261619998,None,c,1,1.8112463630000093,338.95386376099987,None,338.95386376099987,None,338.95386376099987,None,340.82018108399984,None,340.82018108399984,None,340.82018108399984,None,340.82018108399984,None,,,,,,,,,,,,,,,,,,,,,,,,,,,,,,,,,,,,,,,,,,,,001,74,2020_Feb_06_0859,spring_faces,3.1.5,59.99085763326157,
condition files/Stage1_1.xlsx,,T2,B2,m,"['c', 'm']","['Clue', 'Monopoly']","[-0.15, 0.5]","[0.15, 0.5]",1,1,,,,,,,,,0,0,0,0,0,2,2,3,,,,,,,,,,,,,,,,,,,,,,,,,,,,,,,,,,,,,,,,,,,,,,,,,,,,,,,342.7862826979999,None,342.7862826979999,None,342.7862826979999,None,c,0,2.9074101730000166,344.35378236199995,None,344.35378236199995,None,344.35378236199995,None,347.3367660529998,None,347.3367660529998,None,347.3367660529998,None,347.3367660529998,None,,,,,,,,,,,,,,,,,,,,,,,,,,,,,,,,,,,,,,,,,,,,001,74,2020_Feb_06_0859,spring_faces,3.1.5,59.99085763326157,
condition files/Stage1_1.xlsx,,T1,B1,c,"['c', 'm']","['Clue', 'Monopoly']","[-0.15, 0.5]","[0.15, 0.5]",1,1,,,,,,,,,0,0,0,0,0,3,3,0,,,,,,,,,,,,,,,,,,,,,,,,,,,,,,,,,,,,,,,,,,,,,,,,,,,,,,,349.2864277939998,None,349.2864277939998,None,349.2864277939998,None,m,0,1.191005505000021,350.870181216,None,350.870181216,None,350.870181216,None,352.121450203,None,352.121450203,None,352.121450203,None,352.121450203,None,,,,,,,,,,,,,,,,,,,,,,,,,,,,,,,,,,,,,,,,,,,,001,74,2020_Feb_06_0859,spring_faces,3.1.5,59.99085763326157,
condition files/Stage1_1.xlsx,,T3,B4,c,"['c', 'm']","['Clue', 'Monopoly']","[-0.15, 0.5]","[0.15, 0.5]",1,1,,,,,,,,,0,0,0,0,0,4,4,5,,,,,,,,,,,,,,,,,,,,,,,,,,,,,,,,,,,,,,,,,,,,,,,,,,,,,,,354.0868362829999,None,354.0868362829999,None,354.0868362829999,None,m,0,1.7041596449998906,355.63696008099987,None,355.63696008099987,None,355.63696008099987,None,357.4035954029998,None,357.4035954029998,None,357.4035954029998,None,357.4035954029998,None,,,,,,,,,,,,,,,,,,,,,,,,,,,,,,,,,,,,,,,,,,,,001,74,2020_Feb_06_0859,spring_faces,3.1.5,59.99085763326157,
condition files/Stage1_1.xlsx,,B1,T2,c,"['c', 'm']","['Clue', 'Monopoly']","[-0.15, 0.5]","[0.15, 0.5]",1,1,,,,,,,,,0,0,0,0,0,5,5,1,,,,,,,,,,,,,,,,,,,,,,,,,,,,,,,,,,,,,,,,,,,,,,,,,,,,,,,359.37010212199993,None,359.37010212199993,None,359.37010212199993,None,c,1,0.98129660099994,360.91981453899984,None,360.91981453899984,None,360.91981453899984,None,361.9537537199999,None,361.9537537199999,None,361.9537537199999,None,361.9537537199999,None,,,,,,,,,,,,,,,,,,,,,,,,,,,,,,,,,,,,,,,,,,,,001,74,2020_Feb_06_0859,spring_faces,3.1.5,59.99085763326157,
condition files/Stage1_1.xlsx,,B2,T1,m,"['c', 'm']","['Clue', 'Monopoly']","[-0.15, 0.5]","[0.15, 0.5]",1,1,,,,,,,,,0,0,0,0,0,6,6,2,,,,,,,,,,,,,,,,,,,,,,,,,,,,,,,,,,,,,,,,,,,,,,,,,,,,,,,363.9202654899998,None,363.9202654899998,None,363.9202654899998,None,c,0,1.0875889450001068,365.4535519829999,None,365.4535519829999,None,365.4535519829999,None,366.60617251199983,None,366.60617251199983,None,366.60617251199983,None,366.60617251199983,None,,,,,,,,,,,,,,,,,,,,,,,,,,,,,,,,,,,,,,,,,,,,001,74,2020_Feb_06_0859,spring_faces,3.1.5,59.99085763326157,
condition files/Stage1_1.xlsx,,B4,T4,m,"['c', 'm']","['Clue', 'Monopoly']","[-0.15, 0.5]","[0.15, 0.5]",1,1,,,,,,,,,0,0,0,0,0,7,7,7,,,,,,,,,,,,,,,,,,,,,,,,,,,,,,,,,,,,,,,,,,,,,,,,,,,,,,,368.57010140299985,None,368.57010140299985,None,368.57010140299985,None,c,0,1.3167571070000577,370.12029167699984,None,370.12029167699984,None,370.12029167699984,None,371.50389209699983,None,371.50389209699983,None,371.50389209699983,None,371.50389209699983,None,,,,,,,,,,,,,,,,,,,,,,,,,,,,,,,,,,,,,,,,,,,,001,74,2020_Feb_06_0859,spring_faces,3.1.5,59.99085763326157,
condition files/Stage1_2.xlsx,,T4,B4,m,"['c', 'm']","['Clue', 'Monopoly']","[-0.15, 0.5]","[0.15, 0.5]",1,1,,,,,,,,,0,1,1,1,0,0,0,7,,,,,,,,,,,,,,,,,,,,,,,,,,,,,,,,,,,,,,,,,,,,,,,,,,,,,,,373.537111096,None,373.537111096,None,373.537111096,None,m,1,0.8492613460000484,375.01986533399986,None,375.01986533399986,None,375.01986533399986,None,375.9204718909998,None,375.9204718909998,None,375.9204718909998,None,375.9204718909998,None,,,,,,,,,,,,,,,,,,,,,,,,,,,,,,,,,,,,,,,,,,,,001,74,2020_Feb_06_0859,spring_faces,3.1.5,59.99085763326157,
condition files/Stage1_2.xlsx,,B4,T3,c,"['c', 'm']","['Clue', 'Monopoly']","[-0.15, 0.5]","[0.15, 0.5]",1,1,,,,,,,,,0,1,1,1,0,1,1,5,,,,,,,,,,,,,,,,,,,,,,,,,,,,,,,,,,,,,,,,,,,,,,,,,,,,,,,377.88600655799996,None,377.88600655799996,None,377.88600655799996,None,c,1,1.232975726999939,379.42014488199993,None,379.42014488199993,None,379.42014488199993,None,380.70481684599986,None,380.70481684599986,None,380.70481684599986,None,380.70481684599986,None,,,,,,,,,,,,,,,,,,,,,,,,,,,,,,,,,,,,,,,,,,,,001,74,2020_Feb_06_0859,spring_faces,3.1.5,59.99085763326157,
condition files/Stage1_2.xlsx,,T1,B2,m,"['c', 'm']","['Clue', 'Monopoly']","[-0.15, 0.5]","[0.15, 0.5]",1,1,,,,,,,,,0,1,1,1,0,2,2,2,,,,,,,,,,,,,,,,,,,,,,,,,,,,,,,,,,,,,,,,,,,,,,,,,,,,,,,382.67018825399987,None,382.67018825399987,None,382.67018825399987,None,m,1,1.2963093070000014,384.2048155099999,None,384.2048155099999,None,384.2048155099999,None,385.55631303199993,None,385.55631303199993,None,385.55631303199993,None,385.55631303199993,None,,,,,,,,,,,,,,,,,,,,,,,,,,,,,,,,,,,,,,,,,,,,001,74,2020_Feb_06_0859,spring_faces,3.1.5,59.99085763326157,
condition files/Stage1_2.xlsx,,T3,B3,c,"['c', 'm']","['Clue', 'Monopoly']","[-0.15, 0.5]","[0.15, 0.5]",1,1,,,,,,,,,0,1,1,1,0,3,3,4,,,,,,,,,,,,,,,,,,,,,,,,,,,,,,,,,,,,,,,,,,,,,,,,,,,,,,,387.519706757,None,387.519706757,None,387.519706757,None,c,1,1.5518703660000028,389.0532521199998,None,389.0532521199998,None,389.0532521199998,None,390.6729723409999,None,390.6729723409999,None,390.6729723409999,None,390.6729723409999,None,,,,,,,,,,,,,,,,,,,,,,,,,,,,,,,,,,,,,,,,,,,,001,74,2020_Feb_06_0859,spring_faces,3.1.5,59.99085763326157,
condition files/Stage1_2.xlsx,,T2,B1,c,"['c', 'm']","['Clue', 'Monopoly']","[-0.15, 0.5]","[0.15, 0.5]",1,1,,,,,,,,,0,1,1,1,0,4,4,1,,,,,,,,,,,,,,,,,,,,,,,,,,,,,,,,,,,,,,,,,,,,,,,,,,,,,,,392.6368101569999,None,392.6368101569999,None,392.6368101569999,None,c,1,1.6190282160000606,394.170095037,None,394.170095037,None,394.170095037,None,395.8538283139999,None,395.8538283139999,None,395.8538283139999,None,395.8538283139999,None,,,,,,,,,,,,,,,,,,,,,,,,,,,,,,,,,,,,,,,,,,,,001,74,2020_Feb_06_0859,spring_faces,3.1.5,59.99085763326157,
condition files/Stage1_2.xlsx,,B2,T2,m,"['c', 'm']","['Clue', 'Monopoly']","[-0.15, 0.5]","[0.15, 0.5]",1,1,,,,,,,,,0,1,1,1,0,5,5,3,,,,,,,,,,,,,,,,,,,,,,,,,,,,,,,,,,,,,,,,,,,,,,,,,,,,,,,397.8202789249999,None,397.8202789249999,None,397.8202789249999,None,m,1,1.5879366249998839,399.35319698499984,None,399.35319698499984,None,399.35319698499984,None,401.02001429999996,None,401.02001429999996,None,401.02001429999996,None,401.02001429999996,None,,,,,,,,,,,,,,,,,,,,,,,,,,,,,,,,,,,,,,,,,,,,001,74,2020_Feb_06_0859,spring_faces,3.1.5,59.99085763326157,
condition files/Stage1_2.xlsx,,B3,T4,m,"['c', 'm']","['Clue', 'Monopoly']","[-0.15, 0.5]","[0.15, 0.5]",1,1,,,,,,,,,0,1,1,1,0,6,6,6,,,,,,,,,,,,,,,,,,,,,,,,,,,,,,,,,,,,,,,,,,,,,,,,,,,,,,,402.970197355,None,402.970197355,None,402.970197355,None,c,0,2.085956008000039,404.50318074999996,None,404.50318074999996,None,404.50318074999996,None,406.65382403399985,None,406.65382403399985,None,406.65382403399985,None,406.65382403399985,None,,,,,,,,,,,,,,,,,,,,,,,,,,,,,,,,,,,,,,,,,,,,001,74,2020_Feb_06_0859,spring_faces,3.1.5,59.99085763326157,
condition files/Stage1_2.xlsx,,B1,T1,c,"['c', 'm']","['Clue', 'Monopoly']","[-0.15, 0.5]","[0.15, 0.5]",1,1,,,,,,,,,0,1,1,1,0,7,7,0,,,,,,,,,,,,,,,,,,,,,,,,,,,,,,,,,,,,,,,,,,,,,,,,,,,,,,,408.6195214549998,None,408.6195214549998,None,408.6195214549998,None,m,0,1.4590967280000768,410.1539782749999,None,410.1539782749999,None,410.1539782749999,None,411.67229585799987,None,411.67229585799987,None,411.67229585799987,None,411.67229585799987,None,,,,,,,,,,,,,,,,,,,,,,,,,,,,,,,,,,,,,,,,,,,,001,74,2020_Feb_06_0859,spring_faces,3.1.5,59.99085763326157,
condition files/Stage1_1.xlsx,,B2,T1,m,"['c', 'm']","['Clue', 'Monopoly']","[-0.15, 0.5]","[0.15, 0.5]",1,1,,,,,,,,,0,2,2,2,0,0,0,2,,,,,,,,,,,,,,,,,,,,,,,,,,,,,,,,,,,,,,,,,,,,,,,,,,,,,,,413.65373740099994,None,413.65373740099994,None,413.65373740099994,None,c,0,0.8739247150001574,415.18727737999984,None,415.18727737999984,None,415.18727737999984,None,416.12043384799995,None,416.12043384799995,None,416.12043384799995,None,416.12043384799995,None,,,,,,,,,,,,,,,,,,,,,,,,,,,,,,,,,,,,,,,,,,,,001,74,2020_Feb_06_0859,spring_faces,3.1.5,59.99085763326157,
condition files/Stage1_1.xlsx,,B4,T4,m,"['c', 'm']","['Clue', 'Monopoly']","[-0.15, 0.5]","[0.15, 0.5]",1,1,,,,,,,,,0,2,2,2,0,1,1,7,,,,,,,,,,,,,,,,,,,,,,,,,,,,,,,,,,,,,,,,,,,,,,,,,,,,,,,418.0872492469998,None,418.0872492469998,None,418.0872492469998,None,m,1,0.7914963350001472,419.621636847,None,419.621636847,None,419.621636847,None,420.4696941809998,None,420.4696941809998,None,420.4696941809998,None,420.4696941809998,None,,,,,,,,,,,,,,,,,,,,,,,,,,,,,,,,,,,,,,,,,,,,001,74,2020_Feb_06_0859,spring_faces,3.1.5,59.99085763326157,
condition files/Stage1_1.xlsx,,T1,B1,c,"['c', 'm']","['Clue', 'Monopoly']","[-0.15, 0.5]","[0.15, 0.5]",1,1,,,,,,,,,0,2,2,2,0,2,2,0,,,,,,,,,,,,,,,,,,,,,,,,,,,,,,,,,,,,,,,,,,,,,,,,,,,,,,,422.436392911,None,422.436392911,None,422.436392911,None,m,0,1.5946690490000037,423.97041494899986,None,423.97041494899986,None,423.97041494899986,None,425.6198041329999,None,425.6198041329999,None,425.6198041329999,None,425.6198041329999,None,,,,,,,,,,,,,,,,,,,,,,,,,,,,,,,,,,,,,,,,,,,,001,74,2020_Feb_06_0859,spring_faces,3.1.5,59.99085763326157,
condition files/Stage1_1.xlsx,,B1,T2,c,"['c', 'm']","['Clue', 'Monopoly']","[-0.15, 0.5]","[0.15, 0.5]",1,1,,,,,,,,,0,2,2,2,0,3,3,1,,,,,,,,,,,,,,,,,,,,,,,,,,,,,,,,,,,,,,,,,,,,,,,,,,,,,,,427.586781881,None,427.586781881,None,427.586781881,None,m,0,1.1005319540001892,429.1205394599999,None,429.1205394599999,None,429.1205394599999,None,430.28716702099996,None,430.28716702099996,None,430.28716702099996,None,430.28716702099996,None,,,,,,,,,,,,,,,,,,,,,,,,,,,,,,,,,,,,,,,,,,,,001,74,2020_Feb_06_0859,spring_faces,3.1.5,59.99085763326157,
condition files/Stage1_1.xlsx,,B3,T3,c,"['c', 'm']","['Clue', 'Monopoly']","[-0.15, 0.5]","[0.15, 0.5]",1,1,,,,,,,,,0,2,2,2,0,4,4,4,,,,,,,,,,,,,,,,,,,,,,,,,,,,,,,,,,,,,,,,,,,,,,,,,,,,,,,432.25347015399984,None,432.25347015399984,None,432.25347015399984,None,m,0,1.3127417630000764,433.78836779999983,None,433.78836779999983,None,433.78836779999983,None,435.1537892499998,None,435.1537892499998,None,435.1537892499998,None,435.1537892499998,None,,,,,,,,,,,,,,,,,,,,,,,,,,,,,,,,,,,,,,,,,,,,001,74,2020_Feb_06_0859,spring_faces,3.1.5,59.99085763326157,
condition files/Stage1_1.xlsx,,T3,B4,c,"['c', 'm']","['Clue', 'Monopoly']","[-0.15, 0.5]","[0.15, 0.5]",1,1,,,,,,,,,0,2,2,2,0,5,5,5,,,,,,,,,,,,,,,,,,,,,,,,,,,,,,,,,,,,,,,,,,,,,,,,,,,,,,,437.12025606399993,None,437.12025606399993,None,437.12025606399993,None,c,1,2.270476590000044,438.6706439149998,None,438.6706439149998,None,438.6706439149998,None,441.00404364999986,None,441.00404364999986,None,441.00404364999986,None,441.00404364999986,None,,,,,,,,,,,,,,,,,,,,,,,,,,,,,,,,,,,,,,,,,,,,001,74,2020_Feb_06_0859,spring_faces,3.1.5,59.99085763326157,
condition files/Stage1_1.xlsx,,T2,B2,m,"['c', 'm']","['Clue', 'Monopoly']","[-0.15, 0.5]","[0.15, 0.5]",1,1,,,,,,,,,0,2,2,2,0,6,6,3,,,,,,,,,,,,,,,,,,,,,,,,,,,,,,,,,,,,,,,,,,,,,,,,,,,,,,,442.9702593559998,None,442.9702593559998,None,442.9702593559998,None,c,0,2.005405034999967,444.50368372599996,None,444.50368372599996,None,444.50368372599996,None,446.5728148449998,None,446.5728148449998,None,446.5728148449998,None,446.5728148449998,None,,,,,,,,,,,,,,,,,,,,,,,,,,,,,,,,,,,,,,,,,,,,001,74,2020_Feb_06_0859,spring_faces,3.1.5,59.99085763326157,
condition files/Stage1_1.xlsx,,T4,B3,m,"['c', 'm']","['Clue', 'Monopoly']","[-0.15, 0.5]","[0.15, 0.5]",1,1,,,,,,,,,0,2,2,2,0,7,7,6,,,,,,,,,,,,,,,,,,,,,,,,,,,,,,,,,,,,,,,,,,,,,,,,,,,,,,,448.53661520699984,None,448.53661520699984,None,448.53661520699984,None,m,1,0.7738330320000841,450.0873511159998,None,450.0873511159998,None,450.0873511159998,None,450.9203856429999,None,450.9203856429999,None,450.9203856429999,None,450.9203856429999,None,,,,,,,,,,,,,,,,,,,,,,,,,,,,,,,,,,,,,,,,,,,,001,74,2020_Feb_06_0859,spring_faces,3.1.5,59.99085763326157,
condition files/Stage1_2.xlsx,,B2,T2,m,"['c', 'm']","['Clue', 'Monopoly']","[-0.15, 0.5]","[0.15, 0.5]",1,1,,,,,,,,,0,3,3,3,0,0,0,3,,,,,,,,,,,,,,,,,,,,,,,,,,,,,,,,,,,,,,,,,,,,,,,,,,,,,,,452.90369875199985,None,452.90369875199985,None,452.90369875199985,None,m,1,1.2710496409999905,454.438124108,None,454.438124108,None,454.438124108,None,455.7704013289999,None,455.7704013289999,None,455.7704013289999,None,455.7704013289999,None,,,,,,,,,,,,,,,,,,,,,,,,,,,,,,,,,,,,,,,,,,,,001,74,2020_Feb_06_0859,spring_faces,3.1.5,59.99085763326157,
condition files/Stage1_2.xlsx,,T1,B2,m,"['c', 'm']","['Clue', 'Monopoly']","[-0.15, 0.5]","[0.15, 0.5]",1,1,,,,,,,,,0,3,3,3,0,1,1,2,,,,,,,,,,,,,,,,,,,,,,,,,,,,,,,,,,,,,,,,,,,,,,,,,,,,,,,457.73683021099987,None,457.73683021099987,None,457.73683021099987,None,m,1,2.0236497520002104,459.269527425,None,459.269527425,None,459.269527425,None,461.35311967999996,None,461.35311967999996,None,461.35311967999996,None,461.35311967999996,None,,,,,,,,,,,,,,,,,,,,,,,,,,,,,,,,,,,,,,,,,,,,001,74,2020_Feb_06_0859,spring_faces,3.1.5,59.99085763326157,
condition files/Stage1_2.xlsx,,B3,T4,m,"['c', 'm']","['Clue', 'Monopoly']","[-0.15, 0.5]","[0.15, 0.5]",1,1,,,,,,,,,0,3,3,3,0,2,2,6,,,,,,,,,,,,,,,,,,,,,,,,,,,,,,,,,,,,,,,,,,,,,,,,,,,,,,,463.320262751,None,463.320262751,None,463.320262751,None,m,1,1.687838205000162,464.853285359,None,464.853285359,None,464.853285359,None,466.6039264609999,None,466.6039264609999,None,466.6039264609999,None,466.6039264609999,None,,,,,,,,,,,,,,,,,,,,,,,,,,,,,,,,,,,,,,,,,,,,001,74,2020_Feb_06_0859,spring_faces,3.1.5,59.99085763326157,
condition files/Stage1_2.xlsx,,T2,B1,c,"['c', 'm']","['Clue', 'Monopoly']","[-0.15, 0.5]","[0.15, 0.5]",1,1,,,,,,,,,0,3,3,3,0,3,3,1,,,,,,,,,,,,,,,,,,,,,,,,,,,,,,,,,,,,,,,,,,,,,,,,,,,,,,,468.5703880599999,None,468.5703880599999,None,468.5703880599999,None,m,0,1.8938812960000178,470.10332509399996,None,470.10332509399996,None,470.10332509399996,None,472.0545516479999,None,472.0545516479999,None,472.0545516479999,None,472.0545516479999,None,,,,,,,,,,,,,,,,,,,,,,,,,,,,,,,,,,,,,,,,,,,,001,74,2020_Feb_06_0859,spring_faces,3.1.5,59.99085763326157,
condition files/Stage1_2.xlsx,,B4,T3,c,"['c', 'm']","['Clue', 'Monopoly']","[-0.15, 0.5]","[0.15, 0.5]",1,1,,,,,,,,,0,3,3,3,0,4,4,5,,,,,,,,,,,,,,,,,,,,,,,,,,,,,,,,,,,,,,,,,,,,,,,,,,,,,,,474.02007786299987,None,474.02007786299987,None,474.02007786299987,None,c,1,1.3222431909998704,475.5549660949998,None,475.5549660949998,None,475.5549660949998,None,476.9370816579999,None,476.9370816579999,None,476.9370816579999,None,476.9370816579999,None,,,,,,,,,,,,,,,,,,,,,,,,,,,,,,,,,,,,,,,,,,,,001,74,2020_Feb_06_0859,spring_faces,3.1.5,59.99085763326157,
condition files/Stage1_2.xlsx,,T4,B4,m,"['c', 'm']","['Clue', 'Monopoly']","[-0.15, 0.5]","[0.15, 0.5]",1,1,,,,,,,,,0,3,3,3,0,5,5,7,,,,,,,,,,,,,,,,,,,,,,,,,,,,,,,,,,,,,,,,,,,,,,,,,,,,,,,478.90352864299985,None,478.90352864299985,None,478.90352864299985,None,m,1,1.6079555430001164,480.4372360719999,None,480.4372360719999,None,480.4372360719999,None,482.10438773199985,None,482.10438773199985,None,482.10438773199985,None,482.10438773199985,None,,,,,,,,,,,,,,,,,,,,,,,,,,,,,,,,,,,,,,,,,,,,001,74,2020_Feb_06_0859,spring_faces,3.1.5,59.99085763326157,
condition files/Stage1_2.xlsx,,B1,T1,c,"['c', 'm']","['Clue', 'Monopoly']","[-0.15, 0.5]","[0.15, 0.5]",1,1,,,,,,,,,0,3,3,3,0,6,6,0,,,,,,,,,,,,,,,,,,,,,,,,,,,,,,,,,,,,,,,,,,,,,,,,,,,,,,,484.0697678299998,None,484.0697678299998,None,484.0697678299998,None,c,1,2.505806732999872,485.60332342499987,None,485.60332342499987,None,485.60332342499987,None,488.16968543999997,None,488.16968543999997,None,488.16968543999997,None,488.16968543999997,None,,,,,,,,,,,,,,,,,,,,,,,,,,,,,,,,,,,,,,,,,,,,001,74,2020_Feb_06_0859,spring_faces,3.1.5,59.99085763326157,
condition files/Stage1_2.xlsx,,T3,B3,c,"['c', 'm']","['Clue', 'Monopoly']","[-0.15, 0.5]","[0.15, 0.5]",1,1,,,,,,,,,0,3,3,3,0,7,7,4,,,,,,,,,,,,,,,,,,,,,,,,,,,,,,,,,,,,,,,,,,,,,,,,,,,,,,,490.1367662769999,None,490.1367662769999,None,490.1367662769999,None,m,0,1.814925938999977,491.6702036119998,None,491.6702036119998,None,491.6702036119998,None,493.53731650099985,None,493.53731650099985,None,493.53731650099985,None,493.53731650099985,None,,,,,,,,,,,,,,,,,,,,,,,,,,,,,,,,,,,,,,,,,,,,001,74,2020_Feb_06_0859,spring_faces,3.1.5,59.99085763326157,
condition files/Stage1_1.xlsx,,T2,B2,m,"['c', 'm']","['Clue', 'Monopoly']","[-0.15, 0.5]","[0.15, 0.5]",1,1,,,,,,,,,0,4,4,4,0,0,0,3,,,,,,,,,,,,,,,,,,,,,,,,,,,,,,,,,,,,,,,,,,,,,,,,,,,,,,,495.520749261,None,495.520749261,None,495.520749261,None,c,0,1.5186019549998946,497.0704574739998,None,497.0704574739998,None,497.0704574739998,None,498.6704978519999,None,498.6704978519999,None,498.6704978519999,None,498.6704978519999,None,,,,,,,,,,,,,,,,,,,,,,,,,,,,,,,,,,,,,,,,,,,,001,74,2020_Feb_06_0859,spring_faces,3.1.5,59.99085763326157,
condition files/Stage1_1.xlsx,,B3,T3,c,"['c', 'm']","['Clue', 'Monopoly']","[-0.15, 0.5]","[0.15, 0.5]",1,1,,,,,,,,,0,4,4,4,0,1,1,4,,,,,,,,,,,,,,,,,,,,,,,,,,,,,,,,,,,,,,,,,,,,,,,,,,,,,,,500.6203168359998,None,500.6203168359998,None,500.6203168359998,None,m,0,2.195371023000007,502.15376890899984,None,502.15376890899984,None,502.15376890899984,None,504.403296297,None,504.403296297,None,504.403296297,None,504.403296297,None,,,,,,,,,,,,,,,,,,,,,,,,,,,,,,,,,,,,,,,,,,,,001,74,2020_Feb_06_0859,spring_faces,3.1.5,59.99085763326157,
condition files/Stage1_1.xlsx,,T4,B3,m,"['c', 'm']","['Clue', 'Monopoly']","[-0.15, 0.5]","[0.15, 0.5]",1,1,,,,,,,,,0,4,4,4,0,2,2,6,,,,,,,,,,,,,,,,,,,,,,,,,,,,,,,,,,,,,,,,,,,,,,,,,,,,,,,506.3701881569998,None,506.3701881569998,None,506.3701881569998,None,m,1,1.5339179830000376,507.90321694399995,None,507.90321694399995,None,507.90321694399995,None,509.48929087399983,None,509.48929087399983,None,509.48929087399983,None,509.48929087399983,None,,,,,,,,,,,,,,,,,,,,,,,,,,,,,,,,,,,,,,,,,,,,001,74,2020_Feb_06_0859,spring_faces,3.1.5,59.99085763326157,
condition files/Stage1_1.xlsx,,B4,T4,m,"['c', 'm']","['Clue', 'Monopoly']","[-0.15, 0.5]","[0.15, 0.5]",1,1,,,,,,,,,0,4,4,4,0,3,3,7,,,,,,,,,,,,,,,,,,,,,,,,,,,,,,,,,,,,,,,,,,,,,,,,,,,,,,,511.45360175899987,None,511.45360175899987,None,511.45360175899987,None,m,1,1.6807985929999631,512.9883289079999,None,512.9883289079999,None,512.9883289079999,None,514.720028039,None,514.720028039,None,514.720028039,None,514.720028039,None,,,,,,,,,,,,,,,,,,,,,,,,,,,,,,,,,,,,,,,,,,,,001,74,2020_Feb_06_0859,spring_faces,3.1.5,59.99085763326157,
condition files/Stage1_1.xlsx,,T3,B4,c,"['c', 'm']","['Clue', 'Monopoly']","[-0.15, 0.5]","[0.15, 0.5]",1,1,,,,,,,,,0,4,4,4,0,4,4,5,,,,,,,,,,,,,,,,,,,,,,,,,,,,,,,,,,,,,,,,,,,,,,,,,,,,,,,516.686392438,None,516.686392438,None,516.686392438,None,c,1,1.0089774470000066,518.2202338279999,None,518.2202338279999,None,518.2202338279999,None,519.2871023799999,None,519.2871023799999,None,519.2871023799999,None,519.2871023799999,None,,,,,,,,,,,,,,,,,,,,,,,,,,,,,,,,,,,,,,,,,,,,001,74,2020_Feb_06_0859,spring_faces,3.1.5,59.99085763326157,
condition files/Stage1_1.xlsx,,B2,T1,m,"['c', 'm']","['Clue', 'Monopoly']","[-0.15, 0.5]","[0.15, 0.5]",1,1,,,,,,,,,0,4,4,4,0,5,5,2,,,,,,,,,,,,,,,,,,,,,,,,,,,,,,,,,,,,,,,,,,,,,,,,,,,,,,,521.2534983429998,None,521.2534983429998,None,521.2534983429998,None,c,0,2.2486920779999764,522.788430115,None,522.788430115,None,522.788430115,None,525.089026011,None,525.089026011,None,525.089026011,None,525.089026011,None,,,,,,,,,,,,,,,,,,,,,,,,,,,,,,,,,,,,,,,,,,,,001,74,2020_Feb_06_0859,spring_faces,3.1.5,59.99085763326157,
condition files/Stage1_1.xlsx,,B1,T2,c,"['c', 'm']","['Clue', 'Monopoly']","[-0.15, 0.5]","[0.15, 0.5]",1,1,,,,,,,,,0,4,4,4,0,6,6,1,,,,,,,,,,,,,,,,,,,,,,,,,,,,,,,,,,,,,,,,,,,,,,,,,,,,,,,527.05359645,None,527.05359645,None,527.05359645,None,c,1,1.7463420489998498,528.5867851219998,None,528.5867851219998,None,528.5867851219998,None,530.3868233799999,None,530.3868233799999,None,530.3868233799999,None,530.3868233799999,None,,,,,,,,,,,,,,,,,,,,,,,,,,,,,,,,,,,,,,,,,,,,001,74,2020_Feb_06_0859,spring_faces,3.1.5,59.99085763326157,
condition files/Stage1_1.xlsx,,T1,B1,c,"['c', 'm']","['Clue', 'Monopoly']","[-0.15, 0.5]","[0.15, 0.5]",1,1,,,,,,,,,0,4,4,4,0,7,7,0,,,,,,,,,,,,,,,,,,,,,,,,,,,,,,,,,,,,,,,,,,,,,,,,,,,,,,,532.3534957299998,None,532.3534957299998,None,532.3534957299998,None,m,0,3.2303762149999784,533.8866629969998,None,533.8866629969998,None,533.8866629969998,None,537.1705526589999,None,537.1705526589999,None,537.1705526589999,None,537.1705526589999,None,,,,,,,,,,,,,,,,,,,,,,,,,,,,,,,,,,,,,,,,,,,,001,74,2020_Feb_06_0859,spring_faces,3.1.5,59.99085763326157,
condition files/Stage1_2.xlsx,,B4,T3,c,"['c', 'm']","['Clue', 'Monopoly']","[-0.15, 0.5]","[0.15, 0.5]",1,1,,,,,,,,,0,5,5,5,0,0,0,5,,,,,,,,,,,,,,,,,,,,,,,,,,,,,,,,,,,,,,,,,,,,,,,,,,,,,,,539.153082863,None,539.153082863,None,539.153082863,None,c,1,1.726841553999975,540.6862457329999,None,540.6862457329999,None,540.6862457329999,None,542.470553123,None,542.470553123,None,542.470553123,None,542.470553123,None,,,,,,,,,,,,,,,,,,,,,,,,,,,,,,,,,,,,,,,,,,,,001,74,2020_Feb_06_0859,spring_faces,3.1.5,59.99085763326157,
condition files/Stage1_2.xlsx,,T4,B4,m,"['c', 'm']","['Clue', 'Monopoly']","[-0.15, 0.5]","[0.15, 0.5]",1,1,,,,,,,,,0,5,5,5,0,1,1,7,,,,,,,,,,,,,,,,,,,,,,,,,,,,,,,,,,,,,,,,,,,,,,,,,,,,,,,544.4362500139998,None,544.4362500139998,None,544.4362500139998,None,m,1,0.8909933039999487,545.9700667469999,None,545.9700667469999,None,545.9700667469999,None,546.9371345759998,None,546.9371345759998,None,546.9371345759998,None,546.9371345759998,None,,,,,,,,,,,,,,,,,,,,,,,,,,,,,,,,,,,,,,,,,,,,001,74,2020_Feb_06_0859,spring_faces,3.1.5,59.99085763326157,
condition files/Stage1_2.xlsx,,B1,T1,c,"['c', 'm']","['Clue', 'Monopoly']","[-0.15, 0.5]","[0.15, 0.5]",1,1,,,,,,,,,0,5,5,5,0,2,2,0,,,,,,,,,,,,,,,,,,,,,,,,,,,,,,,,,,,,,,,,,,,,,,,,,,,,,,,548.8866985539998,None,548.8866985539998,None,548.8866985539998,None,c,1,1.912846529999797,550.4202745309999,None,550.4202745309999,None,550.4202745309999,None,552.3870392719998,None,552.3870392719998,None,552.3870392719998,None,552.3870392719998,None,,,,,,,,,,,,,,,,,,,,,,,,,,,,,,,,,,,,,,,,,,,,001,74,2020_Feb_06_0859,spring_faces,3.1.5,59.99085763326157,
condition files/Stage1_2.xlsx,,T2,B1,c,"['c', 'm']","['Clue', 'Monopoly']","[-0.15, 0.5]","[0.15, 0.5]",1,1,,,,,,,,,0,5,5,5,0,3,3,1,,,,,,,,,,,,,,,,,,,,,,,,,,,,,,,,,,,,,,,,,,,,,,,,,,,,,,,554.353093256,None,554.353093256,None,554.353093256,None,c,1,1.438588573000061,555.8865625189999,None,555.8865625189999,None,555.8865625189999,None,557.387137058,None,557.387137058,None,557.387137058,None,557.387137058,None,,,,,,,,,,,,,,,,,,,,,,,,,,,,,,,,,,,,,,,,,,,,001,74,2020_Feb_06_0859,spring_faces,3.1.5,59.99085763326157,
condition files/Stage1_2.xlsx,,B2,T2,m,"['c', 'm']","['Clue', 'Monopoly']","[-0.15, 0.5]","[0.15, 0.5]",1,1,,,,,,,,,0,5,5,5,0,4,4,3,,,,,,,,,,,,,,,,,,,,,,,,,,,,,,,,,,,,,,,,,,,,,,,,,,,,,,,559.353044921,None,559.353044921,None,559.353044921,None,m,1,1.18972871699998,560.8874696999999,None,560.8874696999999,None,560.8874696999999,None,562.139712706,None,562.139712706,None,562.139712706,None,562.139712706,None,,,,,,,,,,,,,,,,,,,,,,,,,,,,,,,,,,,,,,,,,,,,001,74,2020_Feb_06_0859,spring_faces,3.1.5,59.99085763326157,
condition files/Stage1_2.xlsx,,T1,B2,m,"['c', 'm']","['Clue', 'Monopoly']","[-0.15, 0.5]","[0.15, 0.5]",1,1,,,,,,,,,0,5,5,5,0,5,5,2,,,,,,,,,,,,,,,,,,,,,,,,,,,,,,,,,,,,,,,,,,,,,,,,,,,,,,,564.1030545919998,None,564.1030545919998,None,564.1030545919998,None,m,1,0.7762543610001558,565.636827696,None,565.636827696,None,565.636827696,None,566.4702096399999,None,566.4702096399999,None,566.4702096399999,None,566.4702096399999,None,,,,,,,,,,,,,,,,,,,,,,,,,,,,,,,,,,,,,,,,,,,,001,74,2020_Feb_06_0859,spring_faces,3.1.5,59.99085763326157,
condition files/Stage1_2.xlsx,,B3,T4,m,"['c', 'm']","['Clue', 'Monopoly']","[-0.15, 0.5]","[0.15, 0.5]",1,1,,,,,,,,,0,5,5,5,0,6,6,6,,,,,,,,,,,,,,,,,,,,,,,,,,,,,,,,,,,,,,,,,,,,,,,,,,,,,,,568.43673752,None,568.43673752,None,568.43673752,None,m,1,1.4027138429999013,569.970407628,None,569.970407628,None,569.970407628,None,571.4372902549999,None,571.4372902549999,None,571.4372902549999,None,571.4372902549999,None,,,,,,,,,,,,,,,,,,,,,,,,,,,,,,,,,,,,,,,,,,,,001,74,2020_Feb_06_0859,spring_faces,3.1.5,59.99085763326157,
condition files/Stage1_2.xlsx,,T3,B3,c,"['c', 'm']","['Clue', 'Monopoly']","[-0.15, 0.5]","[0.15, 0.5]",1,1,,,,,,,,,0,5,5,5,0,7,7,4,,,,,,,,,,,,,,,,,,,,,,,,,,,,,,,,,,,,,,,,,,,,,,,,,,,,,,,573.4031759689999,None,573.4031759689999,None,573.4031759689999,None,c,1,2.0522814519999883,574.9368373119999,None,574.9368373119999,None,574.9368373119999,None,577.0532586769998,None,577.0532586769998,None,577.0532586769998,None,577.0532586769998,None,,,,,,,,,,,,,,,,,,,,,,,,,,,,,,,,,,,,,,,,,,,,001,74,2020_Feb_06_0859,spring_faces,3.1.5,59.99085763326157,
condition files/Stage1_1.xlsx,,B1,T2,c,"['c', 'm']","['Clue', 'Monopoly']","[-0.15, 0.5]","[0.15, 0.5]",1,1,,,,,,,,,0,6,6,6,0,0,0,1,,,,,,,,,,,,,,,,,,,,,,,,,,,,,,,,,,,,,,,,,,,,,,,,,,,,,,,579.036816715,None,579.036816715,None,579.036816715,None,c,1,1.5868803870000647,580.5702723519998,None,580.5702723519998,None,580.5702723519998,None,582.2205041099999,None,582.2205041099999,None,582.2205041099999,None,582.2205041099999,None,,,,,,,,,,,,,,,,,,,,,,,,,,,,,,,,,,,,,,,,,,,,001,74,2020_Feb_06_0859,spring_faces,3.1.5,59.99085763326157,
condition files/Stage1_1.xlsx,,T4,B3,m,"['c', 'm']","['Clue', 'Monopoly']","[-0.15, 0.5]","[0.15, 0.5]",1,1,,,,,,,,,0,6,6,6,0,1,1,6,,,,,,,,,,,,,,,,,,,,,,,,,,,,,,,,,,,,,,,,,,,,,,,,,,,,,,,584.1868495499998,None,584.1868495499998,None,584.1868495499998,None,m,1,1.0928583539998726,585.7201970429999,None,585.7201970429999,None,585.7201970429999,None,586.8703752299998,None,586.8703752299998,None,586.8703752299998,None,586.8703752299998,None,,,,,,,,,,,,,,,,,,,,,,,,,,,,,,,,,,,,,,,,,,,,001,74,2020_Feb_06_0859,spring_faces,3.1.5,59.99085763326157,
condition files/Stage1_1.xlsx,,T1,B1,c,"['c', 'm']","['Clue', 'Monopoly']","[-0.15, 0.5]","[0.15, 0.5]",1,1,,,,,,,,,0,6,6,6,0,2,2,0,,,,,,,,,,,,,,,,,,,,,,,,,,,,,,,,,,,,,,,,,,,,,,,,,,,,,,,588.8369239169999,None,588.8369239169999,None,588.8369239169999,None,c,1,1.6430897339998864,590.3699914409999,None,590.3699914409999,None,590.3699914409999,None,592.0700167609998,None,592.0700167609998,None,592.0700167609998,None,592.0700167609998,None,,,,,,,,,,,,,,,,,,,,,,,,,,,,,,,,,,,,,,,,,,,,001,74,2020_Feb_06_0859,spring_faces,3.1.5,59.99085763326157,
condition files/Stage1_1.xlsx,,T3,B4,c,"['c', 'm']","['Clue', 'Monopoly']","[-0.15, 0.5]","[0.15, 0.5]",1,1,,,,,,,,,0,6,6,6,0,3,3,5,,,,,,,,,,,,,,,,,,,,,,,,,,,,,,,,,,,,,,,,,,,,,,,,,,,,,,,594.0369190249999,None,594.0369190249999,None,594.0369190249999,None,c,1,1.7070667850000518,595.5701289029998,None,595.5701289029998,None,595.5701289029998,None,597.3375527889998,None,597.3375527889998,None,597.3375527889998,None,597.3375527889998,None,,,,,,,,,,,,,,,,,,,,,,,,,,,,,,,,,,,,,,,,,,,,001,74,2020_Feb_06_0859,spring_faces,3.1.5,59.99085763326157,
condition files/Stage1_1.xlsx,,T2,B2,m,"['c', 'm']","['Clue', 'Monopoly']","[-0.15, 0.5]","[0.15, 0.5]",1,1,,,,,,,,,0,6,6,6,0,4,4,3,,,,,,,,,,,,,,,,,,,,,,,,,,,,,,,,,,,,,,,,,,,,,,,,,,,,,,,599.3034468429998,None,599.3034468429998,None,599.3034468429998,None,c,0,1.719077408999965,600.8380629899998,None,600.8380629899998,None,600.8380629899998,None,602.6372375799999,None,602.6372375799999,None,602.6372375799999,None,602.6372375799999,None,,,,,,,,,,,,,,,,,,,,,,,,,,,,,,,,,,,,,,,,,,,,001,74,2020_Feb_06_0859,spring_faces,3.1.5,59.99085763326157,
condition files/Stage1_1.xlsx,,B4,T4,m,"['c', 'm']","['Clue', 'Monopoly']","[-0.15, 0.5]","[0.15, 0.5]",1,1,,,,,,,,,0,6,6,6,0,5,5,7,,,,,,,,,,,,,,,,,,,,,,,,,,,,,,,,,,,,,,,,,,,,,,,,,,,,,,,604.586764531,None,604.586764531,None,604.586764531,None,m,1,0.99655079199988,606.1206651779999,None,606.1206651779999,None,606.1206651779999,None,607.170313269,None,607.170313269,None,607.170313269,None,607.170313269,None,,,,,,,,,,,,,,,,,,,,,,,,,,,,,,,,,,,,,,,,,,,,001,74,2020_Feb_06_0859,spring_faces,3.1.5,59.99085763326157,
condition files/Stage1_1.xlsx,,B3,T3,c,"['c', 'm']","['Clue', 'Monopoly']","[-0.15, 0.5]","[0.15, 0.5]",1,1,,,,,,,,,0,6,6,6,0,6,6,4,,,,,,,,,,,,,,,,,,,,,,,,,,,,,,,,,,,,,,,,,,,,,,,,,,,,,,,609.1369619029999,None,609.1369619029999,None,609.1369619029999,None,c,1,1.2607717650000723,610.6723646799999,None,610.6723646799999,None,610.6723646799999,None,611.9870776649998,None,611.9870776649998,None,611.9870776649998,None,611.9870776649998,None,,,,,,,,,,,,,,,,,,,,,,,,,,,,,,,,,,,,,,,,,,,,001,74,2020_Feb_06_0859,spring_faces,3.1.5,59.99085763326157,
condition files/Stage1_1.xlsx,,B2,T1,m,"['c', 'm']","['Clue', 'Monopoly']","[-0.15, 0.5]","[0.15, 0.5]",1,1,,,,,,,,,0,6,6,6,0,7,7,2,,,,,,,,,,,,,,,,,,,,,,,,,,,,,,,,,,,,,,,,,,,,,,,,,,,,,,,613.953215928,None,613.953215928,None,613.953215928,None,c,0,2.2539729509999233,615.487172847,None,615.487172847,None,615.487172847,None,617.8036667679999,None,617.8036667679999,None,617.8036667679999,None,617.8036667679999,None,,,,,,,,,,,,,,,,,,,,,,,,,,,,,,,,,,,,,,,,,,,,001,74,2020_Feb_06_0859,spring_faces,3.1.5,59.99085763326157,
condition files/Stage1_2.xlsx,,B1,T1,c,"['c', 'm']","['Clue', 'Monopoly']","[-0.15, 0.5]","[0.15, 0.5]",1,1,,,,,,,,,0,7,7,7,0,0,0,0,,,,,,,,,,,,,,,,,,,,,,,,,,,,,,,,,,,,,,,,,,,,,,,,,,,,,,,619.7866599189999,None,619.7866599189999,None,619.7866599189999,None,c,1,2.101091398000108,621.319993334,None,621.319993334,None,621.319993334,None,623.4895104089999,None,623.4895104089999,None,623.4895104089999,None,623.4895104089999,None,,,,,,,,,,,,,,,,,,,,,,,,,,,,,,,,,,,,,,,,,,,,001,74,2020_Feb_06_0859,spring_faces,3.1.5,59.99085763326157,
condition files/Stage1_2.xlsx,,B4,T3,c,"['c', 'm']","['Clue', 'Monopoly']","[-0.15, 0.5]","[0.15, 0.5]",1,1,,,,,,,,,0,7,7,7,0,1,1,5,,,,,,,,,,,,,,,,,,,,,,,,,,,,,,,,,,,,,,,,,,,,,,,,,,,,,,,625.4527349619998,None,625.4527349619998,None,625.4527349619998,None,c,1,1.026340682000182,626.9867411079999,None,626.9867411079999,None,626.9867411079999,None,628.0704514419999,None,628.0704514419999,None,628.0704514419999,None,628.0704514419999,None,,,,,,,,,,,,,,,,,,,,,,,,,,,,,,,,,,,,,,,,,,,,001,74,2020_Feb_06_0859,spring_faces,3.1.5,59.99085763326157,
condition files/Stage1_2.xlsx,,T2,B1,c,"['c', 'm']","['Clue', 'Monopoly']","[-0.15, 0.5]","[0.15, 0.5]",1,1,,,,,,,,,0,7,7,7,0,2,2,1,,,,,,,,,,,,,,,,,,,,,,,,,,,,,,,,,,,,,,,,,,,,,,,,,,,,,,,630.0368724409998,None,630.0368724409998,None,630.0368724409998,None,c,1,1.2405042469999898,631.5726082419999,None,631.5726082419999,None,631.5726082419999,None,632.8704986179998,None,632.8704986179998,None,632.8704986179998,None,632.8704986179998,None,,,,,,,,,,,,,,,,,,,,,,,,,,,,,,,,,,,,,,,,,,,,001,74,2020_Feb_06_0859,spring_faces,3.1.5,59.99085763326157,
condition files/Stage1_2.xlsx,,T3,B3,c,"['c', 'm']","['Clue', 'Monopoly']","[-0.15, 0.5]","[0.15, 0.5]",1,1,,,,,,,,,0,7,7,7,0,3,3,4,,,,,,,,,,,,,,,,,,,,,,,,,,,,,,,,,,,,,,,,,,,,,,,,,,,,,,,634.8365899219998,None,634.8365899219998,None,634.8365899219998,None,c,1,1.2746267379998244,636.370557515,None,636.370557515,None,636.370557515,None,637.7034896099999,None,637.7034896099999,None,637.7034896099999,None,637.7034896099999,None,,,,,,,,,,,,,,,,,,,,,,,,,,,,,,,,,,,,,,,,,,,,001,74,2020_Feb_06_0859,spring_faces,3.1.5,59.99085763326157,
condition files/Stage1_2.xlsx,,T1,B2,m,"['c', 'm']","['Clue', 'Monopoly']","[-0.15, 0.5]","[0.15, 0.5]",1,1,,,,,,,,,0,7,7,7,0,4,4,2,,,,,,,,,,,,,,,,,,,,,,,,,,,,,,,,,,,,,,,,,,,,,,,,,,,,,,,639.6706810759999,None,639.6706810759999,None,639.6706810759999,None,m,1,1.9138364370001,641.2032345169998,None,641.2032345169998,None,641.2032345169998,None,643.1710192619998,None,643.1710192619998,None,643.1710192619998,None,643.1710192619998,None,,,,,,,,,,,,,,,,,,,,,,,,,,,,,,,,,,,,,,,,,,,,001,74,2020_Feb_06_0859,spring_faces,3.1.5,59.99085763326157,
condition files/Stage1_2.xlsx,,B3,T4,m,"['c', 'm']","['Clue', 'Monopoly']","[-0.15, 0.5]","[0.15, 0.5]",1,1,,,,,,,,,0,7,7,7,0,5,5,6,,,,,,,,,,,,,,,,,,,,,,,,,,,,,,,,,,,,,,,,,,,,,,,,,,,,,,,645.137041771,None,645.137041771,None,645.137041771,None,m,1,1.151347122000061,646.6697461609999,None,646.6697461609999,None,646.6697461609999,None,647.8867054069999,None,647.8867054069999,None,647.8867054069999,None,647.8867054069999,None,,,,,,,,,,,,,,,,,,,,,,,,,,,,,,,,,,,,,,,,,,,,001,74,2020_Feb_06_0859,spring_faces,3.1.5,59.99085763326157,
condition files/Stage1_2.xlsx,,T4,B4,m,"['c', 'm']","['Clue', 'Monopoly']","[-0.15, 0.5]","[0.15, 0.5]",1,1,,,,,,,,,0,7,7,7,0,6,6,7,,,,,,,,,,,,,,,,,,,,,,,,,,,,,,,,,,,,,,,,,,,,,,,,,,,,,,,649.8534247779999,None,649.8534247779999,None,649.8534247779999,None,m,1,3.138387795999961,651.3867466769998,None,651.3867466769998,None,651.3867466769998,None,654.5870095729999,None,654.5870095729999,None,654.5870095729999,None,654.5870095729999,None,,,,,,,,,,,,,,,,,,,,,,,,,,,,,,,,,,,,,,,,,,,,001,74,2020_Feb_06_0859,spring_faces,3.1.5,59.99085763326157,
condition files/Stage1_2.xlsx,,B2,T2,m,"['c', 'm']","['Clue', 'Monopoly']","[-0.15, 0.5]","[0.15, 0.5]",1,1,,,,,,,,,0,7,7,7,0,7,7,3,,,,,,,,,,,,,,,,,,,,,,,,,,,,,,,,,,,,,,,,,,,,,,,,,,,,,,,656.5535128429999,None,656.5535128429999,None,656.5535128429999,None,c,0,3.2217064670001037,658.0873936149999,None,658.0873936149999,None,658.0873936149999,None,661.371030971,None,661.371030971,None,661.371030971,None,661.371030971,None,,,,,,,,,,,,,,,,,,,,,,,,,,,,,,,,,,,,,,,,,,,,001,74,2020_Feb_06_0859,spring_faces,3.1.5,59.99085763326157,
condition files/Stage1_1.xlsx,,B1,T2,c,"['c', 'm']","['Clue', 'Monopoly']","[-0.15, 0.5]","[0.15, 0.5]",1,1,,,,,,,,,0,8,8,8,0,0,0,1,,,,,,,,,,,,,,,,,,,,,,,,,,,,,,,,,,,,,,,,,,,,,,,,,,,,,,,663.353340935,None,663.353340935,None,663.353340935,None,c,1,1.4144242120000854,664.8867065239999,None,664.8867065239999,None,664.8867065239999,None,666.3526745669999,None,666.3526745669999,None,666.3526745669999,None,666.3526745669999,None,,,,,,,,,,,,,,,,,,,,,,,,,,,,,,,,,,,,,,,,,,,,001,74,2020_Feb_06_0859,spring_faces,3.1.5,59.99085763326157,
condition files/Stage1_1.xlsx,,T4,B3,m,"['c', 'm']","['Clue', 'Monopoly']","[-0.15, 0.5]","[0.15, 0.5]",1,1,,,,,,,,,0,8,8,8,0,1,1,6,,,,,,,,,,,,,,,,,,,,,,,,,,,,,,,,,,,,,,,,,,,,,,,,,,,,,,,668.320034611,None,668.320034611,None,668.320034611,None,m,1,1.3117950259997997,669.8532787449999,None,669.8532787449999,None,669.8532787449999,None,671.2198852739998,None,671.2198852739998,None,671.2198852739998,None,671.2198852739998,None,,,,,,,,,,,,,,,,,,,,,,,,,,,,,,,,,,,,,,,,,,,,001,74,2020_Feb_06_0859,spring_faces,3.1.5,59.99085763326157,
condition files/Stage1_1.xlsx,,B2,T1,m,"['c', 'm']","['Clue', 'Monopoly']","[-0.15, 0.5]","[0.15, 0.5]",1,1,,,,,,,,,0,8,8,8,0,2,2,2,,,,,,,,,,,,,,,,,,,,,,,,,,,,,,,,,,,,,,,,,,,,,,,,,,,,,,,673.1864722399998,None,673.1864722399998,None,673.1864722399998,None,m,1,1.9476618710000366,674.7214771399999,None,674.7214771399999,None,674.7214771399999,None,676.720142875,None,676.720142875,None,676.720142875,None,676.720142875,None,,,,,,,,,,,,,,,,,,,,,,,,,,,,,,,,,,,,,,,,,,,,001,74,2020_Feb_06_0859,spring_faces,3.1.5,59.99085763326157,
condition files/Stage1_1.xlsx,,B4,T4,m,"['c', 'm']","['Clue', 'Monopoly']","[-0.15, 0.5]","[0.15, 0.5]",1,1,,,,,,,,,0,8,8,8,0,3,3,7,,,,,,,,,,,,,,,,,,,,,,,,,,,,,,,,,,,,,,,,,,,,,,,,,,,,,,,678.6872715249999,None,678.6872715249999,None,678.6872715249999,None,c,0,1.3925836390001223,680.2205077239998,None,680.2205077239998,None,680.2205077239998,None,681.6706112999998,None,681.6706112999998,None,681.6706112999998,None,681.6706112999998,None,,,,,,,,,,,,,,,,,,,,,,,,,,,,,,,,,,,,,,,,,,,,001,74,2020_Feb_06_0859,spring_faces,3.1.5,59.99085763326157,
condition files/Stage1_1.xlsx,,T1,B1,c,"['c', 'm']","['Clue', 'Monopoly']","[-0.15, 0.5]","[0.15, 0.5]",1,1,,,,,,,,,0,8,8,8,0,4,4,0,,,,,,,,,,,,,,,,,,,,,,,,,,,,,,,,,,,,,,,,,,,,,,,,,,,,,,,683.6368469689999,None,683.6368469689999,None,683.6368469689999,None,c,1,1.195261260000052,685.1698304439999,None,685.1698304439999,None,685.1698304439999,None,686.420465255,None,686.420465255,None,686.420465255,None,686.420465255,None,,,,,,,,,,,,,,,,,,,,,,,,,,,,,,,,,,,,,,,,,,,,001,74,2020_Feb_06_0859,spring_faces,3.1.5,59.99085763326157,
condition files/Stage1_1.xlsx,,T3,B4,c,"['c', 'm']","['Clue', 'Monopoly']","[-0.15, 0.5]","[0.15, 0.5]",1,1,,,,,,,,,0,8,8,8,0,5,5,5,,,,,,,,,,,,,,,,,,,,,,,,,,,,,,,,,,,,,,,,,,,,,,,,,,,,,,,688.3868810949998,None,688.3868810949998,None,688.3868810949998,None,c,1,2.0281771770000887,689.9209272319999,None,689.9209272319999,None,689.9209272319999,None,692.0032382739998,None,692.0032382739998,None,692.0032382739998,None,692.0032382739998,None,,,,,,,,,,,,,,,,,,,,,,,,,,,,,,,,,,,,,,,,,,,,001,74,2020_Feb_06_0859,spring_faces,3.1.5,59.99085763326157,
condition files/Stage1_1.xlsx,,T2,B2,m,"['c', 'm']","['Clue', 'Monopoly']","[-0.15, 0.5]","[0.15, 0.5]",1,1,,,,,,,,,0,8,8,8,0,6,6,3,,,,,,,,,,,,,,,,,,,,,,,,,,,,,,,,,,,,,,,,,,,,,,,,,,,,,,,693.969872055,None,693.969872055,None,693.969872055,None,m,1,1.661713514999974,695.5033583029999,None,695.5033583029999,None,695.5033583029999,None,697.2365321589998,None,697.2365321589998,None,697.2365321589998,None,697.2365321589998,None,,,,,,,,,,,,,,,,,,,,,,,,,,,,,,,,,,,,,,,,,,,,001,74,2020_Feb_06_0859,spring_faces,3.1.5,59.99085763326157,
condition files/Stage1_1.xlsx,,B3,T3,c,"['c', 'm']","['Clue', 'Monopoly']","[-0.15, 0.5]","[0.15, 0.5]",1,1,,,,,,,,,0,8,8,8,0,7,7,4,,,,,,,,,,,,,,,,,,,,,,,,,,,,,,,,,,,,,,,,,,,,,,,,,,,,,,,699.186420216,None,699.186420216,None,699.186420216,None,c,1,2.2371381870000278,700.7200016099998,None,700.7200016099998,None,700.7200016099998,None,703.020321623,None,703.020321623,None,703.020321623,None,703.020321623,None,,,,,,,,,,,,,,,,,,,,,,,,,,,,,,,,,,,,,,,,,,,,001,74,2020_Feb_06_0859,spring_faces,3.1.5,59.99085763326157,
condition files/Stage1_2.xlsx,,T3,B3,c,"['c', 'm']","['Clue', 'Monopoly']","[-0.15, 0.5]","[0.15, 0.5]",1,1,,,,,,,,,0,9,9,9,0,0,0,4,,,,,,,,,,,,,,,,,,,,,,,,,,,,,,,,,,,,,,,,,,,,,,,,,,,,,,,705.0035420039999,None,705.0035420039999,None,705.0035420039999,None,c,1,2.48378825199984,706.553275817,None,706.553275817,None,706.553275817,None,709.1030472319999,None,709.1030472319999,None,709.1030472319999,None,709.1030472319999,None,,,,,,,,,,,,,,,,,,,,,,,,,,,,,,,,,,,,,,,,,,,,001,74,2020_Feb_06_0859,spring_faces,3.1.5,59.99085763326157,
condition files/Stage1_2.xlsx,,T1,B2,m,"['c', 'm']","['Clue', 'Monopoly']","[-0.15, 0.5]","[0.15, 0.5]",1,1,,,,,,,,,0,9,9,9,0,1,1,2,,,,,,,,,,,,,,,,,,,,,,,,,,,,,,,,,,,,,,,,,,,,,,,,,,,,,,,711.0701907299999,None,711.0701907299999,None,711.0701907299999,None,m,1,1.3935885240000516,712.6035895069999,None,712.6035895069999,None,712.6035895069999,None,714.0546676219999,None,714.0546676219999,None,714.0546676219999,None,714.0546676219999,None,,,,,,,,,,,,,,,,,,,,,,,,,,,,,,,,,,,,,,,,,,,,001,74,2020_Feb_06_0859,spring_faces,3.1.5,59.99085763326157,
condition files/Stage1_2.xlsx,,T2,B1,c,"['c', 'm']","['Clue', 'Monopoly']","[-0.15, 0.5]","[0.15, 0.5]",1,1,,,,,,,,,0,9,9,9,0,2,2,1,,,,,,,,,,,,,,,,,,,,,,,,,,,,,,,,,,,,,,,,,,,,,,,,,,,,,,,716.019514651,None,716.019514651,None,716.019514651,None,m,0,2.2832811169998877,717.5538539659999,None,717.5538539659999,None,717.5538539659999,None,719.887813241,None,719.887813241,None,719.887813241,None,719.887813241,None,,,,,,,,,,,,,,,,,,,,,,,,,,,,,,,,,,,,,,,,,,,,001,74,2020_Feb_06_0859,spring_faces,3.1.5,59.99085763326157,
condition files/Stage1_2.xlsx,,B2,T2,m,"['c', 'm']","['Clue', 'Monopoly']","[-0.15, 0.5]","[0.15, 0.5]",1,1,,,,,,,,,0,9,9,9,0,3,3,3,,,,,,,,,,,,,,,,,,,,,,,,,,,,,,,,,,,,,,,,,,,,,,,,,,,,,,,721.8532262199999,None,721.8532262199999,None,721.8532262199999,None,c,0,1.536799733999942,723.4043279559999,None,723.4043279559999,None,723.4043279559999,None,725.0050242519999,None,725.0050242519999,None,725.0050242519999,None,725.0050242519999,None,,,,,,,,,,,,,,,,,,,,,,,,,,,,,,,,,,,,,,,,,,,,001,74,2020_Feb_06_0859,spring_faces,3.1.5,59.99085763326157,
condition files/Stage1_2.xlsx,,B3,T4,m,"['c', 'm']","['Clue', 'Monopoly']","[-0.15, 0.5]","[0.15, 0.5]",1,1,,,,,,,,,0,9,9,9,0,4,4,6,,,,,,,,,,,,,,,,,,,,,,,,,,,,,,,,,,,,,,,,,,,,,,,,,,,,,,,726.9700389969998,None,726.9700389969998,None,726.9700389969998,None,m,1,0.7739264330000424,728.503283134,None,728.503283134,None,728.503283134,None,729.337167163,None,729.337167163,None,729.337167163,None,729.337167163,None,,,,,,,,,,,,,,,,,,,,,,,,,,,,,,,,,,,,,,,,,,,,001,74,2020_Feb_06_0859,spring_faces,3.1.5,59.99085763326157,
condition files/Stage1_2.xlsx,,B1,T1,c,"['c', 'm']","['Clue', 'Monopoly']","[-0.15, 0.5]","[0.15, 0.5]",1,1,,,,,,,,,0,9,9,9,0,5,5,0,,,,,,,,,,,,,,,,,,,,,,,,,,,,,,,,,,,,,,,,,,,,,,,,,,,,,,,731.3035924029998,None,731.3035924029998,None,731.3035924029998,None,m,0,1.208003553999788,732.8371826199998,None,732.8371826199998,None,732.8371826199998,None,734.1031204239998,None,734.1031204239998,None,734.1031204239998,None,734.1031204239998,None,,,,,,,,,,,,,,,,,,,,,,,,,,,,,,,,,,,,,,,,,,,,001,74,2020_Feb_06_0859,spring_faces,3.1.5,59.99085763326157,
condition files/Stage1_2.xlsx,,T4,B4,m,"['c', 'm']","['Clue', 'Monopoly']","[-0.15, 0.5]","[0.15, 0.5]",1,1,,,,,,,,,0,9,9,9,0,6,6,7,,,,,,,,,,,,,,,,,,,,,,,,,,,,,,,,,,,,,,,,,,,,,,,,,,,,,,,736.069683209,None,736.069683209,None,736.069683209,None,m,1,0.9535943040000348,737.603536785,None,737.603536785,None,737.603536785,None,738.622194069,None,738.622194069,None,738.622194069,None,738.622194069,None,,,,,,,,,,,,,,,,,,,,,,,,,,,,,,,,,,,,,,,,,,,,001,74,2020_Feb_06_0859,spring_faces,3.1.5,59.99085763326157,
condition files/Stage1_2.xlsx,,B4,T3,c,"['c', 'm']","['Clue', 'Monopoly']","[-0.15, 0.5]","[0.15, 0.5]",1,1,,,,,,,,,0,9,9,9,0,7,7,5,,,,,,,,,,,,,,,,,,,,,,,,,,,,,,,,,,,,,,,,,,,,,,,,,,,,,,,740.5870074999998,None,740.5870074999998,None,740.5870074999998,None,c,1,1.0136369409999588,742.1194985469999,None,742.1194985469999,None,742.1194985469999,None,743.1870733469998,None,743.1870733469998,None,743.1870733469998,None,743.1870733469998,None,,,,,,,,,,,,,,,,,,,,,,,,,,,,,,,,,,,,,,,,,,,,001,74,2020_Feb_06_0859,spring_faces,3.1.5,59.99085763326157,
condition files/Stage1_1.xlsx,,T1,B1,c,"['c', 'm']","['Clue', 'Monopoly']","[-0.15, 0.5]","[0.15, 0.5]",1,1,,,,,,,,,0,10,10,10,0,0,0,0,,,,,,,,,,,,,,,,,,,,,,,,,,,,,,,,,,,,,,,,,,,,,,,,,,,,,,,745.1699450799999,None,745.1699450799999,None,745.1699450799999,None,m,0,2.3982099700001527,746.7029289949999,None,746.7029289949999,None,746.7029289949999,None,749.1538113619999,None,749.1538113619999,None,749.1538113619999,None,749.1538113619999,None,,,,,,,,,,,,,,,,,,,,,,,,,,,,,,,,,,,,,,,,,,,,001,74,2020_Feb_06_0859,spring_faces,3.1.5,59.99085763326157,
condition files/Stage1_1.xlsx,,B3,T3,c,"['c', 'm']","['Clue', 'Monopoly']","[-0.15, 0.5]","[0.15, 0.5]",1,1,,,,,,,,,0,10,10,10,0,1,1,4,,,,,,,,,,,,,,,,,,,,,,,,,,,,,,,,,,,,,,,,,,,,,,,,,,,,,,,751.1200889639999,None,751.1200889639999,None,751.1200889639999,None,c,1,1.3749244279999857,752.6542937019999,None,752.6542937019999,None,752.6542937019999,None,754.0871227299999,None,754.0871227299999,None,754.0871227299999,None,754.0871227299999,None,,,,,,,,,,,,,,,,,,,,,,,,,,,,,,,,,,,,,,,,,,,,001,74,2020_Feb_06_0859,spring_faces,3.1.5,59.99085763326157,
condition files/Stage1_1.xlsx,,B2,T1,m,"['c', 'm']","['Clue', 'Monopoly']","[-0.15, 0.5]","[0.15, 0.5]",1,1,,,,,,,,,0,10,10,10,0,2,2,2,,,,,,,,,,,,,,,,,,,,,,,,,,,,,,,,,,,,,,,,,,,,,,,,,,,,,,,756.05389423,None,756.05389423,None,756.05389423,None,c,0,2.106554108999944,757.5866389819998,None,757.5866389819998,None,757.5866389819998,None,759.75563481,None,759.75563481,None,759.75563481,None,759.75563481,None,,,,,,,,,,,,,,,,,,,,,,,,,,,,,,,,,,,,,,,,,,,,001,74,2020_Feb_06_0859,spring_faces,3.1.5,59.99085763326157,
condition files/Stage1_1.xlsx,,T4,B3,m,"['c', 'm']","['Clue', 'Monopoly']","[-0.15, 0.5]","[0.15, 0.5]",1,1,,,,,,,,,0,10,10,10,0,3,3,6,,,,,,,,,,,,,,,,,,,,,,,,,,,,,,,,,,,,,,,,,,,,,,,,,,,,,,,761.7202262889998,None,761.7202262889998,None,761.7202262889998,None,m,1,0.8395849260000432,763.2536215749999,None,763.2536215749999,None,763.2536215749999,None,764.1537773389998,None,764.1537773389998,None,764.1537773389998,None,764.1537773389998,None,,,,,,,,,,,,,,,,,,,,,,,,,,,,,,,,,,,,,,,,,,,,001,74,2020_Feb_06_0859,spring_faces,3.1.5,59.99085763326157,
condition files/Stage1_1.xlsx,,T3,B4,c,"['c', 'm']","['Clue', 'Monopoly']","[-0.15, 0.5]","[0.15, 0.5]",1,1,,,,,,,,,0,10,10,10,0,4,4,5,,,,,,,,,,,,,,,,,,,,,,,,,,,,,,,,,,,,,,,,,,,,,,,,,,,,,,,766.1202865109999,None,766.1202865109999,None,766.1202865109999,None,c,1,1.7357609819998743,767.6533867569999,None,767.6533867569999,None,767.6533867569999,None,769.4533017939998,None,769.4533017939998,None,769.4533017939998,None,769.4533017939998,None,,,,,,,,,,,,,,,,,,,,,,,,,,,,,,,,,,,,,,,,,,,,001,74,2020_Feb_06_0859,spring_faces,3.1.5,59.99085763326157,
condition files/Stage1_1.xlsx,,B4,T4,m,"['c', 'm']","['Clue', 'Monopoly']","[-0.15, 0.5]","[0.15, 0.5]",1,1,,,,,,,,,0,10,10,10,0,5,5,7,,,,,,,,,,,,,,,,,,,,,,,,,,,,,,,,,,,,,,,,,,,,,,,,,,,,,,,771.4204811159998,None,771.4204811159998,None,771.4204811159998,None,m,1,1.2037980220000009,772.9533311799999,None,772.9533311799999,None,772.9533311799999,None,774.220478001,None,774.220478001,None,774.220478001,None,774.220478001,None,,,,,,,,,,,,,,,,,,,,,,,,,,,,,,,,,,,,,,,,,,,,001,74,2020_Feb_06_0859,spring_faces,3.1.5,59.99085763326157,
condition files/Stage1_1.xlsx,,B1,T2,c,"['c', 'm']","['Clue', 'Monopoly']","[-0.15, 0.5]","[0.15, 0.5]",1,1,,,,,,,,,0,10,10,10,0,6,6,1,,,,,,,,,,,,,,,,,,,,,,,,,,,,,,,,,,,,,,,,,,,,,,,,,,,,,,,776.1867722559998,None,776.1867722559998,None,776.1867722559998,None,c,1,2.6930141450000065,777.7200735079998,None,777.7200735079998,None,777.7200735079998,None,780.4702769449998,None,780.4702769449998,None,780.4702769449998,None,780.4702769449998,None,,,,,,,,,,,,,,,,,,,,,,,,,,,,,,,,,,,,,,,,,,,,001,74,2020_Feb_06_0859,spring_faces,3.1.5,59.99085763326157,
condition files/Stage1_1.xlsx,,T2,B2,m,"['c', 'm']","['Clue', 'Monopoly']","[-0.15, 0.5]","[0.15, 0.5]",1,1,,,,,,,,,0,10,10,10,0,7,7,3,,,,,,,,,,,,,,,,,,,,,,,,,,,,,,,,,,,,,,,,,,,,,,,,,,,,,,,782.4370940299998,None,782.4370940299998,None,782.4370940299998,None,m,1,1.897823697000149,783.987302605,None,783.987302605,None,783.987302605,None,785.938081089,None,785.938081089,None,785.938081089,None,785.938081089,None,,,,,,,,,,,,,,,,,,,,,,,,,,,,,,,,,,,,,,,,,,,,001,74,2020_Feb_06_0859,spring_faces,3.1.5,59.99085763326157,
condition files/Stage1_2.xlsx,,T3,B3,c,"['c', 'm']","['Clue', 'Monopoly']","[-0.15, 0.5]","[0.15, 0.5]",1,1,,,,,,,,,0,11,11,11,0,0,0,4,,,,,,,,,,,,,,,,,,,,,,,,,,,,,,,,,,,,,,,,,,,,,,,,,,,,,,,787.919998549,None,787.919998549,None,787.919998549,None,c,1,1.4402322199998707,789.4529796299998,None,789.4529796299998,None,789.4529796299998,None,790.9552814229999,None,790.9552814229999,None,790.9552814229999,None,790.9552814229999,None,,,,,,,,,,,,,,,,,,,,,,,,,,,,,,,,,,,,,,,,,,,,001,74,2020_Feb_06_0859,spring_faces,3.1.5,59.99085763326157,
condition files/Stage1_2.xlsx,,T1,B2,m,"['c', 'm']","['Clue', 'Monopoly']","[-0.15, 0.5]","[0.15, 0.5]",1,1,,,,,,,,,0,11,11,11,0,1,1,2,,,,,,,,,,,,,,,,,,,,,,,,,,,,,,,,,,,,,,,,,,,,,,,,,,,,,,,792.919822159,None,792.919822159,None,792.919822159,None,c,0,1.1440062169999692,794.4532000239999,None,794.4532000239999,None,794.4532000239999,None,795.6697388299999,None,795.6697388299999,None,795.6697388299999,None,795.6697388299999,None,,,,,,,,,,,,,,,,,,,,,,,,,,,,,,,,,,,,,,,,,,,,001,74,2020_Feb_06_0859,spring_faces,3.1.5,59.99085763326157,
condition files/Stage1_2.xlsx,,B4,T3,c,"['c', 'm']","['Clue', 'Monopoly']","[-0.15, 0.5]","[0.15, 0.5]",1,1,,,,,,,,,0,11,11,11,0,2,2,5,,,,,,,,,,,,,,,,,,,,,,,,,,,,,,,,,,,,,,,,,,,,,,,,,,,,,,,797.6202593229998,None,797.6202593229998,None,797.6202593229998,None,c,1,1.147373997999921,799.1537667069999,None,799.1537667069999,None,799.1537667069999,None,800.3540712889999,None,800.3540712889999,None,800.3540712889999,None,800.3540712889999,None,,,,,,,,,,,,,,,,,,,,,,,,,,,,,,,,,,,,,,,,,,,,001,74,2020_Feb_06_0859,spring_faces,3.1.5,59.99085763326157,
condition files/Stage1_2.xlsx,,B2,T2,m,"['c', 'm']","['Clue', 'Monopoly']","[-0.15, 0.5]","[0.15, 0.5]",1,1,,,,,,,,,0,11,11,11,0,3,3,3,,,,,,,,,,,,,,,,,,,,,,,,,,,,,,,,,,,,,,,,,,,,,,,,,,,,,,,802.3200356349998,None,802.3200356349998,None,802.3200356349998,None,c,0,2.7826254159999735,803.8705085319998,None,803.8705085319998,None,803.8705085319998,None,806.706124199,None,806.706124199,None,806.706124199,None,806.706124199,None,,,,,,,,,,,,,,,,,,,,,,,,,,,,,,,,,,,,,,,,,,,,001,74,2020_Feb_06_0859,spring_faces,3.1.5,59.99085763326157,
condition files/Stage1_2.xlsx,,B3,T4,m,"['c', 'm']","['Clue', 'Monopoly']","[-0.15, 0.5]","[0.15, 0.5]",1,1,,,,,,,,,0,11,11,11,0,4,4,6,,,,,,,,,,,,,,,,,,,,,,,,,,,,,,,,,,,,,,,,,,,,,,,,,,,,,,,808.669658523,None,808.669658523,None,808.669658523,None,m,1,1.0894346059999407,810.203729977,None,810.203729977,None,810.203729977,None,811.3533075409998,None,811.3533075409998,None,811.3533075409998,None,811.3533075409998,None,,,,,,,,,,,,,,,,,,,,,,,,,,,,,,,,,,,,,,,,,,,,001,74,2020_Feb_06_0859,spring_faces,3.1.5,59.99085763326157,
condition files/Stage1_2.xlsx,,T2,B1,c,"['c', 'm']","['Clue', 'Monopoly']","[-0.15, 0.5]","[0.15, 0.5]",1,1,,,,,,,,,0,11,11,11,0,5,5,1,,,,,,,,,,,,,,,,,,,,,,,,,,,,,,,,,,,,,,,,,,,,,,,,,,,,,,,813.3198913619999,None,813.3198913619999,None,813.3198913619999,None,m,0,2.3921491490000335,814.8530564139999,None,814.8530564139999,None,814.8530564139999,None,817.304636071,None,817.304636071,None,817.304636071,None,817.304636071,None,,,,,,,,,,,,,,,,,,,,,,,,,,,,,,,,,,,,,,,,,,,,001,74,2020_Feb_06_0859,spring_faces,3.1.5,59.99085763326157,
condition files/Stage1_2.xlsx,,B1,T1,c,"['c', 'm']","['Clue', 'Monopoly']","[-0.15, 0.5]","[0.15, 0.5]",1,1,,,,,,,,,0,11,11,11,0,6,6,0,,,,,,,,,,,,,,,,,,,,,,,,,,,,,,,,,,,,,,,,,,,,,,,,,,,,,,,819.269880912,None,819.269880912,None,819.269880912,None,c,1,2.1525420069999655,820.8046080959998,None,820.8046080959998,None,820.8046080959998,None,823.0203994479998,None,823.0203994479998,None,823.0203994479998,None,823.0203994479998,None,,,,,,,,,,,,,,,,,,,,,,,,,,,,,,,,,,,,,,,,,,,,001,74,2020_Feb_06_0859,spring_faces,3.1.5,59.99085763326157,
condition files/Stage1_2.xlsx,,T4,B4,m,"['c', 'm']","['Clue', 'Monopoly']","[-0.15, 0.5]","[0.15, 0.5]",1,1,,,,,,,,,0,11,11,11,0,7,7,7,,,,,,,,,,,,,,,,,,,,,,,,,,,,,,,,,,,,,,,,,,,,,,,,,,,,,,,824.98704189,None,824.98704189,None,824.98704189,None,m,1,1.1254749120000724,826.5197350809999,None,826.5197350809999,None,826.5197350809999,None,827.705585942,None,827.705585942,None,827.705585942,None,827.705585942,None,,,,,,,,,,,,,,,,,,,,,,,,,,,,,,,,,,,,,,,,,,,,001,74,2020_Feb_06_0859,spring_faces,3.1.5,59.99085763326157,
,,,,,,,,,,,,,,,,,,,,,,,,,,,,,,,,,,,,,,,,,,,,,,,,,,,,,,,,,,,,,,,,,,,,,,,,,,,,,,,,,,,,,,,,,,,,,,,,,,,,,,,,,,,,,,,,829.6866233989999,None,space,14.814353482999877,834.686787635,None,,,,,,,,,,,,,,,,,,,,,,,,,,,,,,001,74,2020_Feb_06_0859,spring_faces,3.1.5,59.99085763326157,
condition files/Stage2_1.xlsx,,B2,T2,r,"['s', 'r']","['Stratego', 'Risk']","[-0.15, 0.5]","[0.15, 0.5]",1,1,,,,,,,,,,,,,,,,,0,0,0,0,0,0,0,3,,,,,,,,,,,,,,,,,,,,,,,,,,,,,,,,,,,,,,,,,,,,,,,849.5701982609999,None,849.5701982609999,None,849.5701982609999,None,s,0,1.7742086399998698,851.0870019719998,None,851.0870019719998,None,851.0870019719998,None,852.9372967509998,None,852.9372967509998,None,852.9372967509998,None,852.9372967509998,None,,,,,,,,,,,,,,,834.686787635,None,,,,,,,,,,,,,,,,,,,,,,,,,,,,001,74,2020_Feb_06_0859,spring_faces,3.1.5,59.99085763326157,
condition files/Stage2_1.xlsx,,T1,B1,s,"['s', 'r']","['Stratego', 'Risk']","[-0.15, 0.5]","[0.15, 0.5]",1,1,,,,,,,,,,,,,,,,,0,0,0,0,0,1,1,2,,,,,,,,,,,,,,,,,,,,,,,,,,,,,,,,,,,,,,,,,,,,,,,854.8863712079999,None,854.8863712079999,None,854.8863712079999,None,r,0,1.0314354930001173,856.4217207479999,None,856.4217207479999,None,856.4217207479999,None,857.5035421559999,None,857.5035421559999,None,857.5035421559999,None,857.5035421559999,None,,,,,,,,,,,,,,,,,,,,,,,,,,,,,,,,,,,,,,,,,,,,001,74,2020_Feb_06_0859,spring_faces,3.1.5,59.99085763326157,
condition files/Stage2_1.xlsx,,T3,B3,s,"['s', 'r']","['Stratego', 'Risk']","[-0.15, 0.5]","[0.15, 0.5]",1,1,,,,,,,,,,,,,,,,,0,0,0,0,0,2,2,4,,,,,,,,,,,,,,,,,,,,,,,,,,,,,,,,,,,,,,,,,,,,,,,859.4701589069998,None,859.4701589069998,None,859.4701589069998,None,r,0,0.994045572999994,861.0031666719999,None,861.0031666719999,None,861.0031666719999,None,862.0536038649998,None,862.0536038649998,None,862.0536038649998,None,862.0536038649998,None,,,,,,,,,,,,,,,,,,,,,,,,,,,,,,,,,,,,,,,,,,,,001,74,2020_Feb_06_0859,spring_faces,3.1.5,59.99085763326157,
condition files/Stage2_1.xlsx,,B6,T6,r,"['s', 'r']","['Stratego', 'Risk']","[-0.15, 0.5]","[0.15, 0.5]",1,1,,,,,,,,,,,,,,,,,0,0,0,0,0,3,3,1,,,,,,,,,,,,,,,,,,,,,,,,,,,,,,,,,,,,,,,,,,,,,,,864.0195929019999,None,864.0195929019999,None,864.0195929019999,None,s,0,1.720320220000076,865.620818333,None,865.620818333,None,865.620818333,None,867.4050046539999,None,867.4050046539999,None,867.4050046539999,None,867.4050046539999,None,,,,,,,,,,,,,,,,,,,,,,,,,,,,,,,,,,,,,,,,,,,,001,74,2020_Feb_06_0859,spring_faces,3.1.5,59.99085763326157,
condition files/Stage2_1.xlsx,,B4,T4,r,"['s', 'r']","['Stratego', 'Risk']","[-0.15, 0.5]","[0.15, 0.5]",1,1,,,,,,,,,,,,,,,,,0,0,0,0,0,4,4,5,,,,,,,,,,,,,,,,,,,,,,,,,,,,,,,,,,,,,,,,,,,,,,,869.3703974099999,None,869.3703974099999,None,869.3703974099999,None,s,0,2.02232277600001,870.9028259469999,None,870.9028259469999,None,870.9028259469999,None,872.9871061659999,None,872.9871061659999,None,872.9871061659999,None,872.9871061659999,None,,,,,,,,,,,,,,,,,,,,,,,,,,,,,,,,,,,,,,,,,,,,001,74,2020_Feb_06_0859,spring_faces,3.1.5,59.99085763326157,
condition files/Stage2_1.xlsx,,T5,B5,s,"['s', 'r']","['Stratego', 'Risk']","[-0.15, 0.5]","[0.15, 0.5]",1,1,,,,,,,,,,,,,,,,,0,0,0,0,0,5,5,0,,,,,,,,,,,,,,,,,,,,,,,,,,,,,,,,,,,,,,,,,,,,,,,874.953479044,None,874.953479044,None,874.953479044,None,s,1,0.9479343389998576,876.537186562,None,876.537186562,None,876.537186562,None,877.5535269349998,None,877.5535269349998,None,877.5535269349998,None,877.5535269349998,None,,,,,,,,,,,,,,,,,,,,,,,,,,,,,,,,,,,,,,,,,,,,001,74,2020_Feb_06_0859,spring_faces,3.1.5,59.99085763326157,
condition files/Stage2_2.xlsx,,B5,T5,s,"['s', 'r']","['Stratego', 'Risk']","[-0.15, 0.5]","[0.15, 0.5]",1,1,,,,,,,,,,,,,,,,,0,1,1,1,0,0,0,0,,,,,,,,,,,,,,,,,,,,,,,,,,,,,,,,,,,,,,,,,,,,,,,879.5371666009999,None,879.5371666009999,None,879.5371666009999,None,r,0,0.9098026509998363,881.055313674,None,881.055313674,None,881.055313674,None,882.0206858109998,None,882.0206858109998,None,882.0206858109998,None,882.0206858109998,None,,,,,,,,,,,,,,,,,,,,,,,,,,,,,,,,,,,,,,,,,,,,001,74,2020_Feb_06_0859,spring_faces,3.1.5,59.99085763326157,
condition files/Stage2_2.xlsx,,B1,T1,s,"['s', 'r']","['Stratego', 'Risk']","[-0.15, 0.5]","[0.15, 0.5]",1,1,,,,,,,,,,,,,,,,,0,1,1,1,0,1,1,2,,,,,,,,,,,,,,,,,,,,,,,,,,,,,,,,,,,,,,,,,,,,,,,883.9868069769998,None,883.9868069769998,None,883.9868069769998,None,s,1,1.3573023750000175,885.5199088069999,None,885.5199088069999,None,885.5199088069999,None,886.937174899,None,886.937174899,None,886.937174899,None,886.937174899,None,,,,,,,,,,,,,,,,,,,,,,,,,,,,,,,,,,,,,,,,,,,,001,74,2020_Feb_06_0859,spring_faces,3.1.5,59.99085763326157,
condition files/Stage2_2.xlsx,,T4,B4,r,"['s', 'r']","['Stratego', 'Risk']","[-0.15, 0.5]","[0.15, 0.5]",1,1,,,,,,,,,,,,,,,,,0,1,1,1,0,2,2,5,,,,,,,,,,,,,,,,,,,,,,,,,,,,,,,,,,,,,,,,,,,,,,,888.9033135559998,None,888.9033135559998,None,888.9033135559998,None,r,1,1.3983612300000914,890.438712145,None,890.438712145,None,890.438712145,None,891.904080195,None,891.904080195,None,891.904080195,None,891.904080195,None,,,,,,,,,,,,,,,,,,,,,,,,,,,,,,,,,,,,,,,,,,,,001,74,2020_Feb_06_0859,spring_faces,3.1.5,59.99085763326157,
condition files/Stage2_2.xlsx,,B3,T3,s,"['s', 'r']","['Stratego', 'Risk']","[-0.15, 0.5]","[0.15, 0.5]",1,1,,,,,,,,,,,,,,,,,0,1,1,1,0,3,3,4,,,,,,,,,,,,,,,,,,,,,,,,,,,,,,,,,,,,,,,,,,,,,,,893.8704578789998,None,893.8704578789998,None,893.8704578789998,None,r,0,1.0412249329999668,895.4039730989998,None,895.4039730989998,None,895.4039730989998,None,896.503720832,None,896.503720832,None,896.503720832,None,896.503720832,None,,,,,,,,,,,,,,,,,,,,,,,,,,,,,,,,,,,,,,,,,,,,001,74,2020_Feb_06_0859,spring_faces,3.1.5,59.99085763326157,
condition files/Stage2_2.xlsx,,T2,B2,r,"['s', 'r']","['Stratego', 'Risk']","[-0.15, 0.5]","[0.15, 0.5]",1,1,,,,,,,,,,,,,,,,,0,1,1,1,0,4,4,3,,,,,,,,,,,,,,,,,,,,,,,,,,,,,,,,,,,,,,,,,,,,,,,898.470188069,None,898.470188069,None,898.470188069,None,r,1,1.3515718919998108,900.0055900589998,None,900.0055900589998,None,900.0055900589998,None,901.4203026069999,None,901.4203026069999,None,901.4203026069999,None,901.4203026069999,None,,,,,,,,,,,,,,,,,,,,,,,,,,,,,,,,,,,,,,,,,,,,001,74,2020_Feb_06_0859,spring_faces,3.1.5,59.99085763326157,
condition files/Stage2_2.xlsx,,T6,B6,r,"['s', 'r']","['Stratego', 'Risk']","[-0.15, 0.5]","[0.15, 0.5]",1,1,,,,,,,,,,,,,,,,,0,1,1,1,0,5,5,1,,,,,,,,,,,,,,,,,,,,,,,,,,,,,,,,,,,,,,,,,,,,,,,903.386665796,None,903.386665796,None,903.386665796,None,s,0,1.0113082220000251,904.9217926689998,None,904.9217926689998,None,904.9217926689998,None,905.9866052069999,None,905.9866052069999,None,905.9866052069999,None,905.9866052069999,None,,,,,,,,,,,,,,,,,,,,,,,,,,,,,,,,,,,,,,,,,,,,001,74,2020_Feb_06_0859,spring_faces,3.1.5,59.99085763326157,
condition files/Stage2_1.xlsx,,B2,T2,r,"['s', 'r']","['Stratego', 'Risk']","[-0.15, 0.5]","[0.15, 0.5]",1,1,,,,,,,,,,,,,,,,,0,2,2,2,0,0,0,3,,,,,,,,,,,,,,,,,,,,,,,,,,,,,,,,,,,,,,,,,,,,,,,907.9699394499999,None,907.9699394499999,None,907.9699394499999,None,r,1,0.8611342619999505,909.519970436,None,909.519970436,None,909.519970436,None,910.437134587,None,910.437134587,None,910.437134587,None,910.437134587,None,,,,,,,,,,,,,,,,,,,,,,,,,,,,,,,,,,,,,,,,,,,,001,74,2020_Feb_06_0859,spring_faces,3.1.5,59.99085763326157,
condition files/Stage2_1.xlsx,,B4,T4,r,"['s', 'r']","['Stratego', 'Risk']","[-0.15, 0.5]","[0.15, 0.5]",1,1,,,,,,,,,,,,,,,,,0,2,2,2,0,1,1,5,,,,,,,,,,,,,,,,,,,,,,,,,,,,,,,,,,,,,,,,,,,,,,,912.403095812,None,912.403095812,None,912.403095812,None,r,1,1.049888778000195,913.939252253,None,913.939252253,None,913.939252253,None,915.053696451,None,915.053696451,None,915.053696451,None,915.053696451,None,,,,,,,,,,,,,,,,,,,,,,,,,,,,,,,,,,,,,,,,,,,,001,74,2020_Feb_06_0859,spring_faces,3.1.5,59.99085763326157,
condition files/Stage2_1.xlsx,,T5,B5,s,"['s', 'r']","['Stratego', 'Risk']","[-0.15, 0.5]","[0.15, 0.5]",1,1,,,,,,,,,,,,,,,,,0,2,2,2,0,2,2,0,,,,,,,,,,,,,,,,,,,,,,,,,,,,,,,,,,,,,,,,,,,,,,,917.020207781,None,917.020207781,None,917.020207781,None,s,1,1.059760118999975,918.553331201,None,918.553331201,None,918.553331201,None,919.6871134209998,None,919.6871134209998,None,919.6871134209998,None,919.6871134209998,None,,,,,,,,,,,,,,,,,,,,,,,,,,,,,,,,,,,,,,,,,,,,001,74,2020_Feb_06_0859,spring_faces,3.1.5,59.99085763326157,
condition files/Stage2_1.xlsx,,B6,T6,r,"['s', 'r']","['Stratego', 'Risk']","[-0.15, 0.5]","[0.15, 0.5]",1,1,,,,,,,,,,,,,,,,,0,2,2,2,0,3,3,1,,,,,,,,,,,,,,,,,,,,,,,,,,,,,,,,,,,,,,,,,,,,,,,921.636623417,None,921.636623417,None,921.636623417,None,s,0,0.8587090680000529,923.1704996999999,None,923.1704996999999,None,923.1704996999999,None,924.0888524109998,None,924.0888524109998,None,924.0888524109998,None,924.0888524109998,None,,,,,,,,,,,,,,,,,,,,,,,,,,,,,,,,,,,,,,,,,,,,001,74,2020_Feb_06_0859,spring_faces,3.1.5,59.99085763326157,
condition files/Stage2_1.xlsx,,T3,B3,s,"['s', 'r']","['Stratego', 'Risk']","[-0.15, 0.5]","[0.15, 0.5]",1,1,,,,,,,,,,,,,,,,,0,2,2,2,0,4,4,4,,,,,,,,,,,,,,,,,,,,,,,,,,,,,,,,,,,,,,,,,,,,,,,926.0528963749998,None,926.0528963749998,None,926.0528963749998,None,s,1,0.986974336000003,927.586179678,None,927.586179678,None,927.586179678,None,928.6374456449998,None,928.6374456449998,None,928.6374456449998,None,928.6374456449998,None,,,,,,,,,,,,,,,,,,,,,,,,,,,,,,,,,,,,,,,,,,,,001,74,2020_Feb_06_0859,spring_faces,3.1.5,59.99085763326157,
condition files/Stage2_1.xlsx,,T1,B1,s,"['s', 'r']","['Stratego', 'Risk']","[-0.15, 0.5]","[0.15, 0.5]",1,1,,,,,,,,,,,,,,,,,0,2,2,2,0,5,5,2,,,,,,,,,,,,,,,,,,,,,,,,,,,,,,,,,,,,,,,,,,,,,,,930.6035181339998,None,930.6035181339998,None,930.6035181339998,None,s,1,1.7485097500000393,932.1366188039999,None,932.1366188039999,None,932.1366188039999,None,933.937503961,None,933.937503961,None,933.937503961,None,933.937503961,None,,,,,,,,,,,,,,,,,,,,,,,,,,,,,,,,,,,,,,,,,,,,001,74,2020_Feb_06_0859,spring_faces,3.1.5,59.99085763326157,
condition files/Stage2_2.xlsx,,T4,B4,r,"['s', 'r']","['Stratego', 'Risk']","[-0.15, 0.5]","[0.15, 0.5]",1,1,,,,,,,,,,,,,,,,,0,3,3,3,0,0,0,5,,,,,,,,,,,,,,,,,,,,,,,,,,,,,,,,,,,,,,,,,,,,,,,935.920283729,None,935.920283729,None,935.920283729,None,r,1,0.9599577240001054,937.4531493869999,None,937.4531493869999,None,937.4531493869999,None,938.4872092379999,None,938.4872092379999,None,938.4872092379999,None,938.4872092379999,None,,,,,,,,,,,,,,,,,,,,,,,,,,,,,,,,,,,,,,,,,,,,001,74,2020_Feb_06_0859,spring_faces,3.1.5,59.99085763326157,
condition files/Stage2_2.xlsx,,B5,T5,s,"['s', 'r']","['Stratego', 'Risk']","[-0.15, 0.5]","[0.15, 0.5]",1,1,,,,,,,,,,,,,,,,,0,3,3,3,0,1,1,0,,,,,,,,,,,,,,,,,,,,,,,,,,,,,,,,,,,,,,,,,,,,,,,940.4367071529998,None,940.4367071529998,None,940.4367071529998,None,s,1,1.7715586920000987,941.9695953879998,None,941.9695953879998,None,941.9695953879998,None,943.804545879,None,943.804545879,None,943.804545879,None,943.804545879,None,,,,,,,,,,,,,,,,,,,,,,,,,,,,,,,,,,,,,,,,,,,,001,74,2020_Feb_06_0859,spring_faces,3.1.5,59.99085763326157,
condition files/Stage2_2.xlsx,,T2,B2,r,"['s', 'r']","['Stratego', 'Risk']","[-0.15, 0.5]","[0.15, 0.5]",1,1,,,,,,,,,,,,,,,,,0,3,3,3,0,2,2,3,,,,,,,,,,,,,,,,,,,,,,,,,,,,,,,,,,,,,,,,,,,,,,,945.770019328,None,945.770019328,None,945.770019328,None,r,1,2.4201938259998315,947.304959803,None,947.304959803,None,947.304959803,None,949.7880005769998,None,949.7880005769998,None,949.7880005769998,None,949.7880005769998,None,,,,,,,,,,,,,,,,,,,,,,,,,,,,,,,,,,,,,,,,,,,,001,74,2020_Feb_06_0859,spring_faces,3.1.5,59.99085763326157,
condition files/Stage2_2.xlsx,,T6,B6,r,"['s', 'r']","['Stratego', 'Risk']","[-0.15, 0.5]","[0.15, 0.5]",1,1,,,,,,,,,,,,,,,,,0,3,3,3,0,3,3,1,,,,,,,,,,,,,,,,,,,,,,,,,,,,,,,,,,,,,,,,,,,,,,,951.753228459,None,951.753228459,None,951.753228459,None,s,0,1.733926782000026,953.2871665389998,None,953.2871665389998,None,953.2871665389998,None,955.0869417299998,None,955.0869417299998,None,955.0869417299998,None,955.0869417299998,None,,,,,,,,,,,,,,,,,,,,,,,,,,,,,,,,,,,,,,,,,,,,001,74,2020_Feb_06_0859,spring_faces,3.1.5,59.99085763326157,
condition files/Stage2_2.xlsx,,B3,T3,s,"['s', 'r']","['Stratego', 'Risk']","[-0.15, 0.5]","[0.15, 0.5]",1,1,,,,,,,,,,,,,,,,,0,3,3,3,0,4,4,4,,,,,,,,,,,,,,,,,,,,,,,,,,,,,,,,,,,,,,,,,,,,,,,957.053440142,None,957.053440142,None,957.053440142,None,r,0,1.79276225600006,958.588377844,None,958.588377844,None,958.588377844,None,960.4535399839999,None,960.4535399839999,None,960.4535399839999,None,960.4535399839999,None,,,,,,,,,,,,,,,,,,,,,,,,,,,,,,,,,,,,,,,,,,,,001,74,2020_Feb_06_0859,spring_faces,3.1.5,59.99085763326157,
condition files/Stage2_2.xlsx,,B1,T1,s,"['s', 'r']","['Stratego', 'Risk']","[-0.15, 0.5]","[0.15, 0.5]",1,1,,,,,,,,,,,,,,,,,0,3,3,3,0,5,5,2,,,,,,,,,,,,,,,,,,,,,,,,,,,,,,,,,,,,,,,,,,,,,,,962.4032222249998,None,962.4032222249998,None,962.4032222249998,None,s,1,0.9405675539999265,963.9366433399998,None,963.9366433399998,None,963.9366433399998,None,964.937183971,None,964.937183971,None,964.937183971,None,964.937183971,None,,,,,,,,,,,,,,,,,,,,,,,,,,,,,,,,,,,,,,,,,,,,001,74,2020_Feb_06_0859,spring_faces,3.1.5,59.99085763326157,
condition files/Stage2_1.xlsx,,B4,T4,r,"['s', 'r']","['Stratego', 'Risk']","[-0.15, 0.5]","[0.15, 0.5]",1,1,,,,,,,,,,,,,,,,,0,4,4,4,0,0,0,5,,,,,,,,,,,,,,,,,,,,,,,,,,,,,,,,,,,,,,,,,,,,,,,966.920114108,None,966.920114108,None,966.920114108,None,r,1,0.8545128000000659,968.4546523659999,None,968.4546523659999,None,968.4546523659999,None,969.3714600899998,None,969.3714600899998,None,969.3714600899998,None,969.3714600899998,None,,,,,,,,,,,,,,,,,,,,,,,,,,,,,,,,,,,,,,,,,,,,001,74,2020_Feb_06_0859,spring_faces,3.1.5,59.99085763326157,
condition files/Stage2_1.xlsx,,T1,B1,s,"['s', 'r']","['Stratego', 'Risk']","[-0.15, 0.5]","[0.15, 0.5]",1,1,,,,,,,,,,,,,,,,,0,4,4,4,0,1,1,2,,,,,,,,,,,,,,,,,,,,,,,,,,,,,,,,,,,,,,,,,,,,,,,971.3369079649999,None,971.3369079649999,None,971.3369079649999,None,s,1,1.430919867000057,972.8702057159999,None,972.8702057159999,None,972.8702057159999,None,974.3550737629998,None,974.3550737629998,None,974.3550737629998,None,974.3550737629998,None,,,,,,,,,,,,,,,,,,,,,,,,,,,,,,,,,,,,,,,,,,,,001,74,2020_Feb_06_0859,spring_faces,3.1.5,59.99085763326157,
condition files/Stage2_1.xlsx,,B2,T2,r,"['s', 'r']","['Stratego', 'Risk']","[-0.15, 0.5]","[0.15, 0.5]",1,1,,,,,,,,,,,,,,,,,0,4,4,4,0,2,2,3,,,,,,,,,,,,,,,,,,,,,,,,,,,,,,,,,,,,,,,,,,,,,,,976.3202284229999,None,976.3202284229999,None,976.3202284229999,None,s,0,1.7433380509999097,977.8538763699999,None,977.8538763699999,None,977.8538763699999,None,979.6702365629999,None,979.6702365629999,None,979.6702365629999,None,979.6702365629999,None,,,,,,,,,,,,,,,,,,,,,,,,,,,,,,,,,,,,,,,,,,,,001,74,2020_Feb_06_0859,spring_faces,3.1.5,59.99085763326157,
condition files/Stage2_1.xlsx,,T3,B3,s,"['s', 'r']","['Stratego', 'Risk']","[-0.15, 0.5]","[0.15, 0.5]",1,1,,,,,,,,,,,,,,,,,0,4,4,4,0,3,3,4,,,,,,,,,,,,,,,,,,,,,,,,,,,,,,,,,,,,,,,,,,,,,,,981.6194972579999,None,981.6194972579999,None,981.6194972579999,None,s,1,1.5620815470001617,983.1549947139999,None,983.1549947139999,None,983.1549947139999,None,984.7716387409998,None,984.7716387409998,None,984.7716387409998,None,984.7716387409998,None,,,,,,,,,,,,,,,,,,,,,,,,,,,,,,,,,,,,,,,,,,,,001,74,2020_Feb_06_0859,spring_faces,3.1.5,59.99085763326157,
condition files/Stage2_1.xlsx,,B6,T6,r,"['s', 'r']","['Stratego', 'Risk']","[-0.15, 0.5]","[0.15, 0.5]",1,1,,,,,,,,,,,,,,,,,0,4,4,4,0,4,4,1,,,,,,,,,,,,,,,,,,,,,,,,,,,,,,,,,,,,,,,,,,,,,,,986.7368143839999,None,986.7368143839999,None,986.7368143839999,None,s,0,3.2457605070001136,988.271416928,None,988.271416928,None,988.271416928,None,991.5869559179998,None,991.5869559179998,None,991.5869559179998,None,991.5869559179998,None,,,,,,,,,,,,,,,,,,,,,,,,,,,,,,,,,,,,,,,,,,,,001,74,2020_Feb_06_0859,spring_faces,3.1.5,59.99085763326157,
condition files/Stage2_1.xlsx,,T5,B5,s,"['s', 'r']","['Stratego', 'Risk']","[-0.15, 0.5]","[0.15, 0.5]",1,1,,,,,,,,,,,,,,,,,0,4,4,4,0,5,5,0,,,,,,,,,,,,,,,,,,,,,,,,,,,,,,,,,,,,,,,,,,,,,,,993.5368567389999,None,993.5368567389999,None,993.5368567389999,None,s,1,1.2460380990000886,995.0870970660001,None,995.0870970660001,None,995.0870970660001,None,996.4034425069997,None,996.4034425069997,None,996.4034425069997,None,996.4034425069997,None,,,,,,,,,,,,,,,,,,,,,,,,,,,,,,,,,,,,,,,,,,,,001,74,2020_Feb_06_0859,spring_faces,3.1.5,59.99085763326157,
