condsFile,subStage,cue1,cue2,correct,responseKeys,responseNames,cue1Position,cue2Position,cue1Opacity,cue2Opacity,stageLoop0.thisRepN,stageLoop0.thisTrialN,stageLoop0.thisN,stageLoop0.thisIndex,blockLoop0.thisRepN,blockLoop0.thisTrialN,blockLoop0.thisN,blockLoop0.thisIndex,stage1Loop.thisRepN,stage1Loop.thisTrialN,stage1Loop.thisN,stage1Loop.thisIndex,blockLoop1.thisRepN,blockLoop1.thisTrialN,blockLoop1.thisN,blockLoop1.thisIndex,stage2Loop.thisRepN,stage2Loop.thisTrialN,stage2Loop.thisN,stage2Loop.thisIndex,blockLoop2.thisRepN,blockLoop2.thisTrialN,blockLoop2.thisN,blockLoop2.thisIndex,testLoop.thisRepN,testLoop.thisTrialN,testLoop.thisN,testLoop.thisIndex,blockLoopTest.thisRepN,blockLoopTest.thisTrialN,blockLoopTest.thisN,blockLoopTest.thisIndex,cuePics,id_instr_text.started,id_instr_text.stopped,space_to_continue_2.started,space_to_continue_2.stopped,end_instructions_resp_3.keys,end_instructions_resp_3.rt,end_instructions_resp_3.started,end_instructions_resp_3.stopped,id_input_instr.started,id_input_instr.stopped,id_input_rect.started,id_input_rect.stopped,id_input_resp.keys,id_input_resp.rt,id_input_resp.started,id_input_resp.stopped,sonaID,id_input_text.started,id_input_text.stopped,final_text.started,final_text.stopped,instructions.started,instructions.stopped,end_instructions_resp.keys,end_instructions_resp.rt,end_instructions_resp.started,end_instructions_resp.stopped,space_to_continue.started,space_to_continue.stopped,instructions_stage0.started,instructions_stage0.stopped,end_instructions_resp_stage0.keys,end_instructions_resp_stage0.rt,end_instructions_resp_stage0.started,end_instructions_resp_stage0.stopped,space_to_continue_stage0.started,space_to_continue_stage0.stopped,text.started,text.stopped,resp_text1.started,resp_text1.stopped,resp_text2.started,resp_text2.stopped,trial_resp.keys,trial_resp.corr,trial_resp.rt,trial_resp.started,trial_resp.stopped,cue1Image.started,cue1Image.stopped,cue2Image.started,cue2Image.stopped,cue1Image_fb.started,cue1Image_fb.stopped,cue2Image_fb.started,cue2Image_fb.stopped,fb_text_answer.started,fb_text_answer.stopped,feedback_image.started,feedback_image.stopped,instructions_stage1.started,instructions_stage1.stopped,end_instructions_resp_stage1.keys,end_instructions_resp_stage1.rt,end_instructions_resp_stage1.started,end_instructions_resp_stage1.stopped,space_to_continue_stage1.started,space_to_continue_stage1.stopped,instructions_2.started,instructions_2.stopped,end_instructions_resp_2.keys,end_instructions_resp_2.rt,end_instructions_resp_2.started,end_instructions_resp_2.stopped,press_space_to_continue_stage2.started,press_space_to_continue_stage2.stopped,instructions_testStage1.started,instructions_testStage1.stopped,end_instructions_resp_test1.keys,end_instructions_resp_test1.rt,end_instructions_resp_test1.started,end_instructions_resp_test1.stopped,press_space_to_continue_test1.started,press_space_to_continue_test1.stopped,cue1Image_testChoice.started,cue1Image_testChoice.stopped,cue2Image_testChoice.started,cue2Image_testChoice.stopped,test_resp.keys,test_resp.corr,test_resp.rt,test_resp.started,test_resp.stopped,cue1Image_testConf.started,cue1Image_testConf.stopped,cue2Image_testConf.started,cue2Image_testConf.stopped,conf_reminder.started,conf_reminder.stopped,conf_rating.response,conf_rating.rt,conf_rating.started,conf_rating.stopped,session,participant,date,expName,psychopyVersion,frameRate,
,,,,,,,,,,,,,,,,,,,,,,,,,,,,,,,,,,,,,,,,,,,"{'none': 'pictures/20M_AN_C.png', 'alpha': 'pictures/SHINEd_apple.png', 'beta': 'pictures/SHINEd_pepper.png', 'theta': 'pictures/SHINEd_pear.png', 'phi': 'pictures/SHINEd_melon.png', 'T1': 'pictures/23M_AN_C.png', 'T2': 'pictures/31M_AN_C.png', 'T3': 'pictures/33M_AN_C.png', 'T4': 'pictures/34M_AN_C.png', 'T5': 'pictures/20M_AN_C.png', 'T6': 'pictures/37M_AN_C.png', 'B1': 'pictures/26M_NE_C.png', 'B2': 'pictures/25M_NE_C.png', 'B3': 'pictures/38M_NE_C.png', 'B4': 'pictures/36M_NE_C.png', 'B5': 'pictures/22M_NE_C.png', 'B6': 'pictures/32M_NE_C.png'}",17.266171617000055,None,22.265116038000087,None,space,15.323698804000287,22.265116038000087,None,,,,,,,,,,,,,,,,,,,,,,,,,,,,,,,,,,,,,,,,,,,,,,,,,,,,,,,,,,,,,,,,,,,,,,,,,,,,,,,,,,,,,,,,,,,,,,,,001,76,2020_Feb_06_0936,spring_faces,3.1.5,59.98326131102072,
,,,,,,,,,,,,,,,,,,,,,,,,,,,,,,,,,,,,,,,,,,,,,,,,,,,,38.016120247000345,None,38.016120247000345,None,"['0', '6', '0', '7', 'c', 'a', 'f', 'a', 'i']","[24.14860184700001, 29.7966127159998, 38.03659938800001, 38.16459887000019, 55.38061017100017, 56.37263375200018, 64.324692873, 64.69269382699986, 66.91657816599991]",38.016120247000345,None,,,,,,,,,,,,,,,,,,,,,,,,,,,,,,,,,,,,,,,,,,,,,,,,,,,,,,,,,,,,,,,,,,,,,,,,,,,,,,,,,,,,,,,,001,76,2020_Feb_06_0936,spring_faces,3.1.5,59.98326131102072,
,,,,,,,,,,,,,,,,,,,,,,,,,,,,,,,,,,,,,,,,,,,,,,,,,,,,,,,,,,,,0607cafai,38.016120247000345,None,38.016120247000345,None,110.01554621200012,None,space,5.165552026000114,115.0151794190001,None,,,,,,,,,,,,,,,,,,,,,,,,,,,,,,,,,,,,,,,,,,,,,,,,,,,,,,,,,,,,,,,,,,,,,,,,,,,,,001,76,2020_Feb_06_0936,spring_faces,3.1.5,59.98326131102072,
,,,,,,,,,,,,,,,,,,,,,,,,,,,,,,,,,,,,,,,,,,,,,,,,,,,,,,,,,,,,,,,,,,,,,,,115.0151794190001,None,120.2154615090003,None,space,13.941648814000018,125.21516045099997,None,,,,,,,,,,,,,,,,,,,,,,,,,,,,,,,,,,,,,,,,,,,,,,,,,,,,,,,,,,,,,,,,,,,,,001,76,2020_Feb_06_0936,spring_faces,3.1.5,59.98326131102072,
condition files/Stage0a.xlsx,0a,beta,none,g,"['h', 'g']","['Chess', 'Go']","[0, 0.5]","[0, 0]",1,0,0,0,0,0,0,0,0,1,,,,,,,,,,,,,,,,,,,,,,,,,,,,,,,,,,,,,,,,,,,,,,,,,,,,,,,,,,,,,125.21516045099997,None,139.21539428300002,None,139.21539428300002,None,139.21539428300002,None,g,1,7.826725291999992,140.88207478200002,None,140.88207478200002,None,140.88207478200002,None,148.7815887290003,None,148.7815887290003,None,148.7815887290003,None,148.7815887290003,None,,,,,,,,,,,,,,,,,,,,,,,,,,,,,,,,,,,,,,,,,,,,001,76,2020_Feb_06_0936,spring_faces,3.1.5,59.98326131102072,
condition files/Stage0a.xlsx,0a,alpha,none,h,"['h', 'g']","['Chess', 'Go']","[0, 0.5]","[0, 0]",1,0,0,0,0,0,0,1,1,0,,,,,,,,,,,,,,,,,,,,,,,,,,,,,,,,,,,,,,,,,,,,,,,,,,,,,,,,,,,,,,,150.73106921800036,None,150.73106921800036,None,150.73106921800036,None,h,1,1.9298949970002468,152.28280961600012,None,152.28280961600012,None,152.28280961600012,None,154.26546095499998,None,154.26546095499998,None,154.26546095499998,None,154.26546095499998,None,,,,,,,,,,,,,,,,,,,,,,,,,,,,,,,,,,,,,,,,,,,,001,76,2020_Feb_06_0936,spring_faces,3.1.5,59.98326131102072,
condition files/Stage0a.xlsx,0a,beta,none,g,"['h', 'g']","['Chess', 'Go']","[0, 0.5]","[0, 0]",1,0,0,1,1,1,0,0,0,1,,,,,,,,,,,,,,,,,,,,,,,,,,,,,,,,,,,,,,,,,,,,,,,,,,,,,,,,,,,,,,,156.24867511899993,None,156.24867511899993,None,156.24867511899993,None,g,1,1.054602953000085,157.7821244920001,None,157.7821244920001,None,157.7821244920001,None,158.89855733900004,None,158.89855733900004,None,158.89855733900004,None,158.89855733900004,None,,,,,,,,,,,,,,,,,,,,,,,,,,,,,,,,,,,,,,,,,,,,001,76,2020_Feb_06_0936,spring_faces,3.1.5,59.98326131102072,
condition files/Stage0a.xlsx,0a,alpha,none,h,"['h', 'g']","['Chess', 'Go']","[0, 0.5]","[0, 0]",1,0,0,1,1,1,0,1,1,0,,,,,,,,,,,,,,,,,,,,,,,,,,,,,,,,,,,,,,,,,,,,,,,,,,,,,,,,,,,,,,,160.86504221400037,None,160.86504221400037,None,160.86504221400037,None,h,1,0.5979311769997366,162.39878538400035,None,162.39878538400035,None,162.39878538400035,None,163.04854773200032,None,163.04854773200032,None,163.04854773200032,None,163.04854773200032,None,,,,,,,,,,,,,,,,,,,,,,,,,,,,,,,,,,,,,,,,,,,,001,76,2020_Feb_06_0936,spring_faces,3.1.5,59.98326131102072,
condition files/Stage0a.xlsx,0a,beta,none,g,"['h', 'g']","['Chess', 'Go']","[0, 0.5]","[0, 0]",1,0,0,2,2,2,0,0,0,1,,,,,,,,,,,,,,,,,,,,,,,,,,,,,,,,,,,,,,,,,,,,,,,,,,,,,,,,,,,,,,,165.032005218,None,165.032005218,None,165.032005218,None,g,1,0.6873575720001099,166.56538872200008,None,166.56538872200008,None,166.56538872200008,None,167.31508312799997,None,167.31508312799997,None,167.31508312799997,None,167.31508312799997,None,,,,,,,,,,,,,,,,,,,,,,,,,,,,,,,,,,,,,,,,,,,,001,76,2020_Feb_06_0936,spring_faces,3.1.5,59.98326131102072,
condition files/Stage0a.xlsx,0a,alpha,none,h,"['h', 'g']","['Chess', 'Go']","[0, 0.5]","[0, 0]",1,0,0,2,2,2,0,1,1,0,,,,,,,,,,,,,,,,,,,,,,,,,,,,,,,,,,,,,,,,,,,,,,,,,,,,,,,,,,,,,,,169.28173430000015,None,169.28173430000015,None,169.28173430000015,None,h,1,0.51757441799964,170.81511984100007,None,170.81511984100007,None,170.81511984100007,None,171.398367152,None,171.398367152,None,171.398367152,None,171.398367152,None,,,,,,,,,,,,,,,,,,,,,,,,,,,,,,,,,,,,,,,,,,,,001,76,2020_Feb_06_0936,spring_faces,3.1.5,59.98326131102072,
condition files/Stage0a.xlsx,0a,beta,none,g,"['h', 'g']","['Chess', 'Go']","[0, 0.5]","[0, 0]",1,0,0,3,3,3,0,0,0,1,,,,,,,,,,,,,,,,,,,,,,,,,,,,,,,,,,,,,,,,,,,,,,,,,,,,,,,,,,,,,,,173.38227013799997,None,173.38227013799997,None,173.38227013799997,None,g,1,0.44961643399983586,174.91510585900005,None,174.91510585900005,None,174.91510585900005,None,175.41538347799997,None,175.41538347799997,None,175.41538347799997,None,175.41538347799997,None,,,,,,,,,,,,,,,,,,,,,,,,,,,,,,,,,,,,,,,,,,,,001,76,2020_Feb_06_0936,spring_faces,3.1.5,59.98326131102072,
condition files/Stage0a.xlsx,0a,alpha,none,h,"['h', 'g']","['Chess', 'Go']","[0, 0.5]","[0, 0]",1,0,0,3,3,3,0,1,1,0,,,,,,,,,,,,,,,,,,,,,,,,,,,,,,,,,,,,,,,,,,,,,,,,,,,,,,,,,,,,,,,177.381816135,None,177.381816135,None,177.381816135,None,h,1,0.4177148999997371,178.9149961170001,None,178.9149961170001,None,178.9149961170001,None,179.39858214200012,None,179.39858214200012,None,179.39858214200012,None,179.39858214200012,None,,,,,,,,,,,,,,,,,,,,,,,,,,,,,,,,,,,,,,,,,,,,001,76,2020_Feb_06_0936,spring_faces,3.1.5,59.98326131102072,
condition files/Stage0a.xlsx,0a,beta,none,g,"['h', 'g']","['Chess', 'Go']","[0, 0.5]","[0, 0]",1,0,0,4,4,4,0,0,0,1,,,,,,,,,,,,,,,,,,,,,,,,,,,,,,,,,,,,,,,,,,,,,,,,,,,,,,,,,,,,,,,181.38201681300006,None,181.38201681300006,None,181.38201681300006,None,g,1,0.4971877970001515,182.91553746599993,None,182.91553746599993,None,182.91553746599993,None,183.46471800100016,None,183.46471800100016,None,183.46471800100016,None,183.46471800100016,None,,,,,,,,,,,,,,,,,,,,,,,,,,,,,,,,,,,,,,,,,,,,001,76,2020_Feb_06_0936,spring_faces,3.1.5,59.98326131102072,
condition files/Stage0a.xlsx,0a,alpha,none,h,"['h', 'g']","['Chess', 'Go']","[0, 0.5]","[0, 0]",1,0,0,4,4,4,0,1,1,0,,,,,,,,,,,,,,,,,,,,,,,,,,,,,,,,,,,,,,,,,,,,,,,,,,,,,,,,,,,,,,,185.43147455999997,None,185.43147455999997,None,185.43147455999997,None,h,1,0.4474872509999841,186.96523192800032,None,186.96523192800032,None,186.96523192800032,None,187.465204309,None,187.465204309,None,187.465204309,None,187.465204309,None,,,,,,,,,,,,,,,,,,,,,,,,,,,,,,,,,,,,,,,,,,,,001,76,2020_Feb_06_0936,spring_faces,3.1.5,59.98326131102072,
condition files/Stage0a.xlsx,0a,alpha,none,h,"['h', 'g']","['Chess', 'Go']","[0, 0.5]","[0, 0]",1,0,0,5,5,5,0,0,0,0,,,,,,,,,,,,,,,,,,,,,,,,,,,,,,,,,,,,,,,,,,,,,,,,,,,,,,,,,,,,,,,189.44900100800032,None,189.44900100800032,None,189.44900100800032,None,h,1,0.6062645910001265,190.98251966499993,None,190.98251966499993,None,190.98251966499993,None,191.64809500599995,None,191.64809500599995,None,191.64809500599995,None,191.64809500599995,None,,,,,,,,,,,,,,,,,,,,,,,,,,,,,,,,,,,,,,,,,,,,001,76,2020_Feb_06_0936,spring_faces,3.1.5,59.98326131102072,
condition files/Stage0a.xlsx,0a,beta,none,g,"['h', 'g']","['Chess', 'Go']","[0, 0.5]","[0, 0]",1,0,0,5,5,5,0,1,1,1,,,,,,,,,,,,,,,,,,,,,,,,,,,,,,,,,,,,,,,,,,,,,,,,,,,,,,,,,,,,,,,193.61538332200007,None,193.61538332200007,None,193.61538332200007,None,g,1,0.536332831999971,195.14831749600035,None,195.14831749600035,None,195.14831749600035,None,195.74798774500005,None,195.74798774500005,None,195.74798774500005,None,195.74798774500005,None,,,,,,,,,,,,,,,,,,,,,,,,,,,,,,,,,,,,,,,,,,,,001,76,2020_Feb_06_0936,spring_faces,3.1.5,59.98326131102072,
condition files/Stage0b_1.xlsx,0b,alpha,none,h,"['h', 'g']","['Chess', 'Go']","[-0.15, 0.5]","[0.15, 0.5]",1,0,0,6,6,6,0,0,0,0,,,,,,,,,,,,,,,,,,,,,,,,,,,,,,,,,,,,,,,,,,,,,,,,,,,,,,,,,,,,,,,197.73198430399998,None,197.73198430399998,None,197.73198430399998,None,h,1,0.6119802319999508,199.26471353100033,None,199.26471353100033,None,199.26471353100033,None,199.93238189700014,None,199.93238189700014,None,199.93238189700014,None,199.93238189700014,None,,,,,,,,,,,,,,,,,,,,,,,,,,,,,,,,,,,,,,,,,,,,001,76,2020_Feb_06_0936,spring_faces,3.1.5,59.98326131102072,
condition files/Stage0b_1.xlsx,0b,none,beta,g,"['h', 'g']","['Chess', 'Go']","[-0.15, 0.5]","[0.15, 0.5]",0,1,0,6,6,6,0,1,1,1,,,,,,,,,,,,,,,,,,,,,,,,,,,,,,,,,,,,,,,,,,,,,,,,,,,,,,,,,,,,,,,201.89842640300003,None,201.89842640300003,None,201.89842640300003,None,g,1,0.45578094000029523,203.43690773300023,None,203.43690773300023,None,203.43690773300023,None,203.95316325500016,None,203.95316325500016,None,203.95316325500016,None,203.95316325500016,None,,,,,,,,,,,,,,,,,,,,,,,,,,,,,,,,,,,,,,,,,,,,001,76,2020_Feb_06_0936,spring_faces,3.1.5,59.98326131102072,
condition files/Stage0b_2.xlsx,0b,none,alpha,h,"['h', 'g']","['Chess', 'Go']","[-0.15, 0.5]","[0.15, 0.5]",0,1,0,7,7,7,0,0,0,0,,,,,,,,,,,,,,,,,,,,,,,,,,,,,,,,,,,,,,,,,,,,,,,,,,,,,,,,,,,,,,,205.93228234800017,None,205.93228234800017,None,205.93228234800017,None,h,1,1.034639058999801,207.46610622000026,None,207.46610622000026,None,207.46610622000026,None,208.56506978100015,None,208.56506978100015,None,208.56506978100015,None,208.56506978100015,None,,,,,,,,,,,,,,,,,,,,,,,,,,,,,,,,,,,,,,,,,,,,001,76,2020_Feb_06_0936,spring_faces,3.1.5,59.98326131102072,
condition files/Stage0b_2.xlsx,0b,beta,none,g,"['h', 'g']","['Chess', 'Go']","[-0.15, 0.5]","[0.15, 0.5]",1,0,0,7,7,7,0,1,1,1,,,,,,,,,,,,,,,,,,,,,,,,,,,,,,,,,,,,,,,,,,,,,,,,,,,,,,,,,,,,,,,210.53162961099997,None,210.53162961099997,None,210.53162961099997,None,g,1,0.6064750269997603,212.07022422,None,212.07022422,None,212.07022422,None,212.74833798100008,None,212.74833798100008,None,212.74833798100008,None,212.74833798100008,None,,,,,,,,,,,,,,,,,,,,,,,,,,,,,,,,,,,,,,,,,,,,001,76,2020_Feb_06_0936,spring_faces,3.1.5,59.98326131102072,
condition files/Stage0b_1.xlsx,0b,alpha,none,h,"['h', 'g']","['Chess', 'Go']","[-0.15, 0.5]","[0.15, 0.5]",1,0,0,8,8,8,0,0,0,0,,,,,,,,,,,,,,,,,,,,,,,,,,,,,,,,,,,,,,,,,,,,,,,,,,,,,,,,,,,,,,,214.71512881000035,None,214.71512881000035,None,214.71512881000035,None,h,1,0.572607073999734,216.24813304200006,None,216.24813304200006,None,216.24813304200006,None,216.88163037200002,None,216.88163037200002,None,216.88163037200002,None,216.88163037200002,None,,,,,,,,,,,,,,,,,,,,,,,,,,,,,,,,,,,,,,,,,,,,001,76,2020_Feb_06_0936,spring_faces,3.1.5,59.98326131102072,
condition files/Stage0b_1.xlsx,0b,none,beta,g,"['h', 'g']","['Chess', 'Go']","[-0.15, 0.5]","[0.15, 0.5]",0,1,0,8,8,8,0,1,1,1,,,,,,,,,,,,,,,,,,,,,,,,,,,,,,,,,,,,,,,,,,,,,,,,,,,,,,,,,,,,,,,218.84856259700018,None,218.84856259700018,None,218.84856259700018,None,g,1,0.6460214839999026,220.39871792400027,None,220.39871792400027,None,220.39871792400027,None,221.10208595199992,None,221.10208595199992,None,221.10208595199992,None,221.10208595199992,None,,,,,,,,,,,,,,,,,,,,,,,,,,,,,,,,,,,,,,,,,,,,001,76,2020_Feb_06_0936,spring_faces,3.1.5,59.98326131102072,
condition files/Stage0b_2.xlsx,0b,beta,none,g,"['h', 'g']","['Chess', 'Go']","[-0.15, 0.5]","[0.15, 0.5]",1,0,0,9,9,9,0,0,0,1,,,,,,,,,,,,,,,,,,,,,,,,,,,,,,,,,,,,,,,,,,,,,,,,,,,,,,,,,,,,,,,223.0820525510003,None,223.0820525510003,None,223.0820525510003,None,g,1,0.4574064900002668,224.6192777350002,None,224.6192777350002,None,224.6192777350002,None,225.13227603299993,None,225.13227603299993,None,225.13227603299993,None,225.13227603299993,None,,,,,,,,,,,,,,,,,,,,,,,,,,,,,,,,,,,,,,,,,,,,001,76,2020_Feb_06_0936,spring_faces,3.1.5,59.98326131102072,
condition files/Stage0b_2.xlsx,0b,none,alpha,h,"['h', 'g']","['Chess', 'Go']","[-0.15, 0.5]","[0.15, 0.5]",0,1,0,9,9,9,0,1,1,0,,,,,,,,,,,,,,,,,,,,,,,,,,,,,,,,,,,,,,,,,,,,,,,,,,,,,,,,,,,,,,,227.09839965200035,None,227.09839965200035,None,227.09839965200035,None,h,1,0.537875688999975,228.63492964900024,None,228.63492964900024,None,228.63492964900024,None,229.233251096,None,229.233251096,None,229.233251096,None,229.233251096,None,,,,,,,,,,,,,,,,,,,,,,,,,,,,,,,,,,,,,,,,,,,,001,76,2020_Feb_06_0936,spring_faces,3.1.5,59.98326131102072,
condition files/Stage0b_1.xlsx,0b,alpha,none,h,"['h', 'g']","['Chess', 'Go']","[-0.15, 0.5]","[0.15, 0.5]",1,0,0,10,10,10,0,0,0,0,,,,,,,,,,,,,,,,,,,,,,,,,,,,,,,,,,,,,,,,,,,,,,,,,,,,,,,,,,,,,,,231.21548358100017,None,231.21548358100017,None,231.21548358100017,None,h,1,0.5673175460001403,232.74940352700014,None,232.74940352700014,None,232.74940352700014,None,233.38224136400004,None,233.38224136400004,None,233.38224136400004,None,233.38224136400004,None,,,,,,,,,,,,,,,,,,,,,,,,,,,,,,,,,,,,,,,,,,,,001,76,2020_Feb_06_0936,spring_faces,3.1.5,59.98326131102072,
condition files/Stage0b_1.xlsx,0b,none,beta,g,"['h', 'g']","['Chess', 'Go']","[-0.15, 0.5]","[0.15, 0.5]",0,1,0,10,10,10,0,1,1,1,,,,,,,,,,,,,,,,,,,,,,,,,,,,,,,,,,,,,,,,,,,,,,,,,,,,,,,,,,,,,,,235.3483041110003,None,235.3483041110003,None,235.3483041110003,None,g,1,0.4186348469997938,236.88209226300023,None,236.88209226300023,None,236.88209226300023,None,237.36684341299997,None,237.36684341299997,None,237.36684341299997,None,237.36684341299997,None,,,,,,,,,,,,,,,,,,,,,,,,,,,,,,,,,,,,,,,,,,,,001,76,2020_Feb_06_0936,spring_faces,3.1.5,59.98326131102072,
condition files/Stage0b_2.xlsx,0b,none,alpha,h,"['h', 'g']","['Chess', 'Go']","[-0.15, 0.5]","[0.15, 0.5]",0,1,0,11,11,11,0,0,0,0,,,,,,,,,,,,,,,,,,,,,,,,,,,,,,,,,,,,,,,,,,,,,,,,,,,,,,,,,,,,,,,239.34867183999995,None,239.34867183999995,None,239.34867183999995,None,h,1,0.4826359290000255,240.88211524100006,None,240.88211524100006,None,240.88211524100006,None,241.41735117000007,None,241.41735117000007,None,241.41735117000007,None,241.41735117000007,None,,,,,,,,,,,,,,,,,,,,,,,,,,,,,,,,,,,,,,,,,,,,001,76,2020_Feb_06_0936,spring_faces,3.1.5,59.98326131102072,
condition files/Stage0b_2.xlsx,0b,beta,none,g,"['h', 'g']","['Chess', 'Go']","[-0.15, 0.5]","[0.15, 0.5]",1,0,0,11,11,11,0,1,1,1,,,,,,,,,,,,,,,,,,,,,,,,,,,,,,,,,,,,,,,,,,,,,,,,,,,,,,,,,,,,,,,243.38102749600012,None,243.38102749600012,None,243.38102749600012,None,g,1,0.47630176799975743,244.92041990899997,None,244.92041990899997,None,244.92041990899997,None,245.45196494600032,None,245.45196494600032,None,245.45196494600032,None,245.45196494600032,None,,,,,,,,,,,,,,,,,,,,,,,,,,,,,,,,,,,,,,,,,,,,001,76,2020_Feb_06_0936,spring_faces,3.1.5,59.98326131102072,
condition files/Stage0c_1.xlsx,0c,phi,beta,g,"['h', 'g']","['Chess', 'Go']","[-0.15, 0.5]","[0.15, 0.5]",1,1,0,12,12,12,0,0,0,3,,,,,,,,,,,,,,,,,,,,,,,,,,,,,,,,,,,,,,,,,,,,,,,,,,,,,,,,,,,,,,,247.43205406700008,None,247.43205406700008,None,247.43205406700008,None,g,1,4.479298405000009,248.96544482000036,None,248.96544482000036,None,248.96544482000036,None,253.4988762580001,None,253.4988762580001,None,253.4988762580001,None,253.4988762580001,None,,,,,,,,,,,,,,,,,,,,,,,,,,,,,,,,,,,,,,,,,,,,001,76,2020_Feb_06_0936,spring_faces,3.1.5,59.98326131102072,
condition files/Stage0c_1.xlsx,0c,beta,theta,g,"['h', 'g']","['Chess', 'Go']","[-0.15, 0.5]","[0.15, 0.5]",1,1,0,12,12,12,0,1,1,2,,,,,,,,,,,,,,,,,,,,,,,,,,,,,,,,,,,,,,,,,,,,,,,,,,,,,,,,,,,,,,,255.46498472700023,None,255.46498472700023,None,255.46498472700023,None,g,1,1.0860109220002414,256.99871870100014,None,256.99871870100014,None,256.99871870100014,None,258.1339097600003,None,258.1339097600003,None,258.1339097600003,None,258.1339097600003,None,,,,,,,,,,,,,,,,,,,,,,,,,,,,,,,,,,,,,,,,,,,,001,76,2020_Feb_06_0936,spring_faces,3.1.5,59.98326131102072,
condition files/Stage0c_1.xlsx,0c,theta,alpha,h,"['h', 'g']","['Chess', 'Go']","[-0.15, 0.5]","[0.15, 0.5]",1,1,0,12,12,12,0,2,2,0,,,,,,,,,,,,,,,,,,,,,,,,,,,,,,,,,,,,,,,,,,,,,,,,,,,,,,,,,,,,,,,260.11507811799993,None,260.11507811799993,None,260.11507811799993,None,h,1,0.7561052020000716,261.64862796700027,None,261.64862796700027,None,261.64862796700027,None,262.4654475970001,None,262.4654475970001,None,262.4654475970001,None,262.4654475970001,None,,,,,,,,,,,,,,,,,,,,,,,,,,,,,,,,,,,,,,,,,,,,001,76,2020_Feb_06_0936,spring_faces,3.1.5,59.98326131102072,
condition files/Stage0c_1.xlsx,0c,alpha,phi,h,"['h', 'g']","['Chess', 'Go']","[-0.15, 0.5]","[0.15, 0.5]",1,1,0,12,12,12,0,3,3,1,,,,,,,,,,,,,,,,,,,,,,,,,,,,,,,,,,,,,,,,,,,,,,,,,,,,,,,,,,,,,,,264.43170506800016,None,264.43170506800016,None,264.43170506800016,None,h,1,1.063347684999826,265.96537947000024,None,265.96537947000024,None,265.96537947000024,None,267.08136812500015,None,267.08136812500015,None,267.08136812500015,None,267.08136812500015,None,,,,,,,,,,,,,,,,,,,,,,,,,,,,,,,,,,,,,,,,,,,,001,76,2020_Feb_06_0936,spring_faces,3.1.5,59.98326131102072,
condition files/Stage0c_2.xlsx,0c,phi,alpha,h,"['h', 'g']","['Chess', 'Go']","[-0.15, 0.5]","[0.15, 0.5]",1,1,0,13,13,13,0,0,0,1,,,,,,,,,,,,,,,,,,,,,,,,,,,,,,,,,,,,,,,,,,,,,,,,,,,,,,,,,,,,,,,269.0652753190002,None,269.0652753190002,None,269.0652753190002,None,h,1,0.5738764830002765,270.59892639200007,None,270.59892639200007,None,270.59892639200007,None,271.2172535730001,None,271.2172535730001,None,271.2172535730001,None,271.2172535730001,None,,,,,,,,,,,,,,,,,,,,,,,,,,,,,,,,,,,,,,,,,,,,001,76,2020_Feb_06_0936,spring_faces,3.1.5,59.98326131102072,
condition files/Stage0c_2.xlsx,0c,alpha,theta,h,"['h', 'g']","['Chess', 'Go']","[-0.15, 0.5]","[0.15, 0.5]",1,1,0,13,13,13,0,1,1,0,,,,,,,,,,,,,,,,,,,,,,,,,,,,,,,,,,,,,,,,,,,,,,,,,,,,,,,,,,,,,,,273.1984600330002,None,273.1984600330002,None,273.1984600330002,None,h,1,0.7926334169997062,274.73203200800026,None,274.73203200800026,None,274.73203200800026,None,275.56528883500005,None,275.56528883500005,None,275.56528883500005,None,275.56528883500005,None,,,,,,,,,,,,,,,,,,,,,,,,,,,,,,,,,,,,,,,,,,,,001,76,2020_Feb_06_0936,spring_faces,3.1.5,59.98326131102072,
condition files/Stage0c_2.xlsx,0c,theta,beta,g,"['h', 'g']","['Chess', 'Go']","[-0.15, 0.5]","[0.15, 0.5]",1,1,0,13,13,13,0,2,2,2,,,,,,,,,,,,,,,,,,,,,,,,,,,,,,,,,,,,,,,,,,,,,,,,,,,,,,,,,,,,,,,277.5482411760004,None,277.5482411760004,None,277.5482411760004,None,g,1,0.7308419539999704,279.0818792660002,None,279.0818792660002,None,279.0818792660002,None,279.86541970200005,None,279.86541970200005,None,279.86541970200005,None,279.86541970200005,None,,,,,,,,,,,,,,,,,,,,,,,,,,,,,,,,,,,,,,,,,,,,001,76,2020_Feb_06_0936,spring_faces,3.1.5,59.98326131102072,
condition files/Stage0c_2.xlsx,0c,beta,phi,g,"['h', 'g']","['Chess', 'Go']","[-0.15, 0.5]","[0.15, 0.5]",1,1,0,13,13,13,0,3,3,3,,,,,,,,,,,,,,,,,,,,,,,,,,,,,,,,,,,,,,,,,,,,,,,,,,,,,,,,,,,,,,,281.8311953330003,None,281.8311953330003,None,281.8311953330003,None,g,1,0.6391363709999496,283.3655914740002,None,283.3655914740002,None,283.3655914740002,None,284.0489849790001,None,284.0489849790001,None,284.0489849790001,None,284.0489849790001,None,,,,,,,,,,,,,,,,,,,,,,,,,,,,,,,,,,,,,,,,,,,,001,76,2020_Feb_06_0936,spring_faces,3.1.5,59.98326131102072,
condition files/Stage0c_1.xlsx,0c,beta,theta,g,"['h', 'g']","['Chess', 'Go']","[-0.15, 0.5]","[0.15, 0.5]",1,1,0,14,14,14,0,0,0,2,,,,,,,,,,,,,,,,,,,,,,,,,,,,,,,,,,,,,,,,,,,,,,,,,,,,,,,,,,,,,,,286.04861088999996,None,286.04861088999996,None,286.04861088999996,None,g,1,0.9985256429999936,287.58221452600037,None,287.58221452600037,None,287.58221452600037,None,288.61605485200016,None,288.61605485200016,None,288.61605485200016,None,288.61605485200016,None,,,,,,,,,,,,,,,,,,,,,,,,,,,,,,,,,,,,,,,,,,,,001,76,2020_Feb_06_0936,spring_faces,3.1.5,59.98326131102072,
condition files/Stage0c_1.xlsx,0c,theta,alpha,h,"['h', 'g']","['Chess', 'Go']","[-0.15, 0.5]","[0.15, 0.5]",1,1,0,14,14,14,0,1,1,0,,,,,,,,,,,,,,,,,,,,,,,,,,,,,,,,,,,,,,,,,,,,,,,,,,,,,,,,,,,,,,,290.59843209500013,None,290.59843209500013,None,290.59843209500013,None,h,1,1.072853208000197,292.131882917,None,292.131882917,None,292.131882917,None,293.26573469699997,None,293.26573469699997,None,293.26573469699997,None,293.26573469699997,None,,,,,,,,,,,,,,,,,,,,,,,,,,,,,,,,,,,,,,,,,,,,001,76,2020_Feb_06_0936,spring_faces,3.1.5,59.98326131102072,
condition files/Stage0c_1.xlsx,0c,phi,beta,g,"['h', 'g']","['Chess', 'Go']","[-0.15, 0.5]","[0.15, 0.5]",1,1,0,14,14,14,0,2,2,3,,,,,,,,,,,,,,,,,,,,,,,,,,,,,,,,,,,,,,,,,,,,,,,,,,,,,,,,,,,,,,,295.23147081900015,None,295.23147081900015,None,295.23147081900015,None,g,1,0.7113713799999459,296.76532073499993,None,296.76532073499993,None,296.76532073499993,None,297.53192973600017,None,297.53192973600017,None,297.53192973600017,None,297.53192973600017,None,,,,,,,,,,,,,,,,,,,,,,,,,,,,,,,,,,,,,,,,,,,,001,76,2020_Feb_06_0936,spring_faces,3.1.5,59.98326131102072,
condition files/Stage0c_1.xlsx,0c,alpha,phi,h,"['h', 'g']","['Chess', 'Go']","[-0.15, 0.5]","[0.15, 0.5]",1,1,0,14,14,14,0,3,3,1,,,,,,,,,,,,,,,,,,,,,,,,,,,,,,,,,,,,,,,,,,,,,,,,,,,,,,,,,,,,,,,299.497967753,None,299.497967753,None,299.497967753,None,h,1,0.9731153910001922,301.03161370900034,None,301.03161370900034,None,301.03161370900034,None,302.06540343999995,None,302.06540343999995,None,302.06540343999995,None,302.06540343999995,None,,,,,,,,,,,,,,,,,,,,,,,,,,,,,,,,,,,,,,,,,,,,001,76,2020_Feb_06_0936,spring_faces,3.1.5,59.98326131102072,
condition files/Stage0c_2.xlsx,0c,phi,alpha,h,"['h', 'g']","['Chess', 'Go']","[-0.15, 0.5]","[0.15, 0.5]",1,1,0,15,15,15,0,0,0,1,,,,,,,,,,,,,,,,,,,,,,,,,,,,,,,,,,,,,,,,,,,,,,,,,,,,,,,,,,,,,,,304.04863035300014,None,304.04863035300014,None,304.04863035300014,None,h,1,1.0146565919999375,305.58207275199993,None,305.58207275199993,None,305.58207275199993,None,306.63307945800034,None,306.63307945800034,None,306.63307945800034,None,306.63307945800034,None,,,,,,,,,,,,,,,,,,,,,,,,,,,,,,,,,,,,,,,,,,,,001,76,2020_Feb_06_0936,spring_faces,3.1.5,59.98326131102072,
condition files/Stage0c_2.xlsx,0c,beta,phi,g,"['h', 'g']","['Chess', 'Go']","[-0.15, 0.5]","[0.15, 0.5]",1,1,0,15,15,15,0,1,1,3,,,,,,,,,,,,,,,,,,,,,,,,,,,,,,,,,,,,,,,,,,,,,,,,,,,,,,,,,,,,,,,308.615482017,None,308.615482017,None,308.615482017,None,g,1,0.5920991640000466,310.14868806000004,None,310.14868806000004,None,310.14868806000004,None,310.7983072320003,None,310.7983072320003,None,310.7983072320003,None,310.7983072320003,None,,,,,,,,,,,,,,,,,,,,,,,,,,,,,,,,,,,,,,,,,,,,001,76,2020_Feb_06_0936,spring_faces,3.1.5,59.98326131102072,
condition files/Stage0c_2.xlsx,0c,theta,beta,g,"['h', 'g']","['Chess', 'Go']","[-0.15, 0.5]","[0.15, 0.5]",1,1,0,15,15,15,0,2,2,2,,,,,,,,,,,,,,,,,,,,,,,,,,,,,,,,,,,,,,,,,,,,,,,,,,,,,,,,,,,,,,,312.76524528100026,None,312.76524528100026,None,312.76524528100026,None,g,1,0.5543405950002125,314.298394334,None,314.298394334,None,314.298394334,None,314.89852602400015,None,314.89852602400015,None,314.89852602400015,None,314.89852602400015,None,,,,,,,,,,,,,,,,,,,,,,,,,,,,,,,,,,,,,,,,,,,,001,76,2020_Feb_06_0936,spring_faces,3.1.5,59.98326131102072,
condition files/Stage0c_2.xlsx,0c,alpha,theta,h,"['h', 'g']","['Chess', 'Go']","[-0.15, 0.5]","[0.15, 0.5]",1,1,0,15,15,15,0,3,3,0,,,,,,,,,,,,,,,,,,,,,,,,,,,,,,,,,,,,,,,,,,,,,,,,,,,,,,,,,,,,,,,316.8818603660002,None,316.8818603660002,None,316.8818603660002,None,h,1,0.645390232000409,318.4153076570001,None,318.4153076570001,None,318.4153076570001,None,319.11491385800036,None,319.11491385800036,None,319.11491385800036,None,319.11491385800036,None,,,,,,,,,,,,,,,,,,,,,,,,,,,,,,,,,,,,,,,,,,,,001,76,2020_Feb_06_0936,spring_faces,3.1.5,59.98326131102072,
condition files/Stage0c_1.xlsx,0c,theta,alpha,h,"['h', 'g']","['Chess', 'Go']","[-0.15, 0.5]","[0.15, 0.5]",1,1,0,16,16,16,0,0,0,0,,,,,,,,,,,,,,,,,,,,,,,,,,,,,,,,,,,,,,,,,,,,,,,,,,,,,,,,,,,,,,,321.098341763,None,321.098341763,None,321.098341763,None,h,1,1.4366985110000314,322.632050445,None,322.632050445,None,322.632050445,None,324.1150255340003,None,324.1150255340003,None,324.1150255340003,None,324.1150255340003,None,,,,,,,,,,,,,,,,,,,,,,,,,,,,,,,,,,,,,,,,,,,,001,76,2020_Feb_06_0936,spring_faces,3.1.5,59.98326131102072,
condition files/Stage0c_1.xlsx,0c,beta,theta,g,"['h', 'g']","['Chess', 'Go']","[-0.15, 0.5]","[0.15, 0.5]",1,1,0,16,16,16,0,1,1,2,,,,,,,,,,,,,,,,,,,,,,,,,,,,,,,,,,,,,,,,,,,,,,,,,,,,,,,,,,,,,,,326.09855313900016,None,326.09855313900016,None,326.09855313900016,None,g,1,0.6612937360000615,327.6314375940001,None,327.6314375940001,None,327.6314375940001,None,328.3486307769999,None,328.3486307769999,None,328.3486307769999,None,328.3486307769999,None,,,,,,,,,,,,,,,,,,,,,,,,,,,,,,,,,,,,,,,,,,,,001,76,2020_Feb_06_0936,spring_faces,3.1.5,59.98326131102072,
condition files/Stage0c_1.xlsx,0c,phi,beta,g,"['h', 'g']","['Chess', 'Go']","[-0.15, 0.5]","[0.15, 0.5]",1,1,0,16,16,16,0,2,2,3,,,,,,,,,,,,,,,,,,,,,,,,,,,,,,,,,,,,,,,,,,,,,,,,,,,,,,,,,,,,,,,330.3149808630001,None,330.3149808630001,None,330.3149808630001,None,g,1,0.6519828629998301,331.84873950500014,None,331.84873950500014,None,331.84873950500014,None,332.54869333600027,None,332.54869333600027,None,332.54869333600027,None,332.54869333600027,None,,,,,,,,,,,,,,,,,,,,,,,,,,,,,,,,,,,,,,,,,,,,001,76,2020_Feb_06_0936,spring_faces,3.1.5,59.98326131102072,
condition files/Stage0c_1.xlsx,0c,alpha,phi,h,"['h', 'g']","['Chess', 'Go']","[-0.15, 0.5]","[0.15, 0.5]",1,1,0,16,16,16,0,3,3,1,,,,,,,,,,,,,,,,,,,,,,,,,,,,,,,,,,,,,,,,,,,,,,,,,,,,,,,,,,,,,,,334.5318406020001,None,334.5318406020001,None,334.5318406020001,None,h,1,0.6593975979999414,336.0652880580001,None,336.0652880580001,None,336.0652880580001,None,336.7818855370001,None,336.7818855370001,None,336.7818855370001,None,336.7818855370001,None,,,,,,,,,,,,,,,,,,,,,,,,,,,,,,,,,,,,,,,,,,,,001,76,2020_Feb_06_0936,spring_faces,3.1.5,59.98326131102072,
condition files/Stage0c_2.xlsx,0c,theta,beta,g,"['h', 'g']","['Chess', 'Go']","[-0.15, 0.5]","[0.15, 0.5]",1,1,0,17,17,17,0,0,0,2,,,,,,,,,,,,,,,,,,,,,,,,,,,,,,,,,,,,,,,,,,,,,,,,,,,,,,,,,,,,,,,338.765813387,None,338.765813387,None,338.765813387,None,g,1,1.1621661919998587,340.2986056630002,None,340.2986056630002,None,340.2986056630002,None,341.5152044780002,None,341.5152044780002,None,341.5152044780002,None,341.5152044780002,None,,,,,,,,,,,,,,,,,,,,,,,,,,,,,,,,,,,,,,,,,,,,001,76,2020_Feb_06_0936,spring_faces,3.1.5,59.98326131102072,
condition files/Stage0c_2.xlsx,0c,beta,phi,g,"['h', 'g']","['Chess', 'Go']","[-0.15, 0.5]","[0.15, 0.5]",1,1,0,17,17,17,0,1,1,3,,,,,,,,,,,,,,,,,,,,,,,,,,,,,,,,,,,,,,,,,,,,,,,,,,,,,,,,,,,,,,,343.4817105920001,None,343.4817105920001,None,343.4817105920001,None,g,1,0.8295127719998163,345.0152277520001,None,345.0152277520001,None,345.0152277520001,None,345.8816500830003,None,345.8816500830003,None,345.8816500830003,None,345.8816500830003,None,,,,,,,,,,,,,,,,,,,,,,,,,,,,,,,,,,,,,,,,,,,,001,76,2020_Feb_06_0936,spring_faces,3.1.5,59.98326131102072,
condition files/Stage0c_2.xlsx,0c,alpha,theta,h,"['h', 'g']","['Chess', 'Go']","[-0.15, 0.5]","[0.15, 0.5]",1,1,0,17,17,17,0,2,2,0,,,,,,,,,,,,,,,,,,,,,,,,,,,,,,,,,,,,,,,,,,,,,,,,,,,,,,,,,,,,,,,347.86472667900034,None,347.86472667900034,None,347.86472667900034,None,h,1,0.7024589709999418,349.39826791099995,None,349.39826791099995,None,349.39826791099995,None,350.165663711,None,350.165663711,None,350.165663711,None,350.165663711,None,,,,,,,,,,,,,,,,,,,,,,,,,,,,,,,,,,,,,,,,,,,,001,76,2020_Feb_06_0936,spring_faces,3.1.5,59.98326131102072,
condition files/Stage0c_2.xlsx,0c,phi,alpha,h,"['h', 'g']","['Chess', 'Go']","[-0.15, 0.5]","[0.15, 0.5]",1,1,0,17,17,17,0,3,3,1,,,,,,,,,,,,,,,,,,,,,,,,,,,,,,,,,,,,,,,,,,,,,,,,,,,,,,,,,,,,,,,352.131930816,None,352.131930816,None,352.131930816,None,h,1,1.1877164800002902,353.6650130510002,None,353.6650130510002,None,353.6650130510002,None,354.898442916,None,354.898442916,None,354.898442916,None,354.898442916,None,,,,,,,,,,,,,,,,,,,,,,,,,,,,,,,,,,,,,,,,,,,,001,76,2020_Feb_06_0936,spring_faces,3.1.5,59.98326131102072,
,,,,,,,,,,,,,,,,,,,,,,,,,,,,,,,,,,,,,,,,,,,,,,,,,,,,,,,,,,,,,,,,,,,,,,,,,,,,,,,,,,,,,,,,,,,,,,,,,,,,,,,,356.8982478810003,None,space,11.114284876000056,361.89845921999995,None,,,,,,,,,,,,,,,,,,,,,,,,,,,,,,,,,,,,,,001,76,2020_Feb_06_0936,spring_faces,3.1.5,59.98326131102072,
condition files/Stage1_1.xlsx,,T2,B2,m,"['c', 'm']","['Clue', 'Monopoly']","[-0.15, 0.5]","[0.15, 0.5]",1,1,,,,,,,,,0,0,0,0,0,0,0,3,,,,,,,,,,,,,,,,,,,,,,,,,,,,,,,,,,,,,,,,,,,,,,,,,,,,,,,373.06522240899994,None,373.06522240899994,None,373.06522240899994,None,c,0,3.2922179180000057,374.6486048500001,None,374.6486048500001,None,374.6486048500001,None,378.03165775800016,None,378.03165775800016,None,378.03165775800016,None,378.03165775800016,None,,,,,,,361.89845921999995,None,,,,,,,,,,,,,,,,,,,,,,,,,,,,,,,,,,,,001,76,2020_Feb_06_0936,spring_faces,3.1.5,59.98326131102072,
condition files/Stage1_1.xlsx,,T3,B4,c,"['c', 'm']","['Clue', 'Monopoly']","[-0.15, 0.5]","[0.15, 0.5]",1,1,,,,,,,,,0,0,0,0,0,1,1,5,,,,,,,,,,,,,,,,,,,,,,,,,,,,,,,,,,,,,,,,,,,,,,,,,,,,,,,379.96488938200037,None,379.96488938200037,None,379.96488938200037,None,c,1,2.75978886699977,381.5648835080001,None,381.5648835080001,None,381.5648835080001,None,384.3838158430003,None,384.3838158430003,None,384.3838158430003,None,384.3838158430003,None,,,,,,,,,,,,,,,,,,,,,,,,,,,,,,,,,,,,,,,,,,,,001,76,2020_Feb_06_0936,spring_faces,3.1.5,59.98326131102072,
condition files/Stage1_1.xlsx,,B3,T3,c,"['c', 'm']","['Clue', 'Monopoly']","[-0.15, 0.5]","[0.15, 0.5]",1,1,,,,,,,,,0,0,0,0,0,2,2,4,,,,,,,,,,,,,,,,,,,,,,,,,,,,,,,,,,,,,,,,,,,,,,,,,,,,,,,386.34767629099997,None,386.34767629099997,None,386.34767629099997,None,m,0,3.563217979000001,387.8815287980001,None,387.8815287980001,None,387.8815287980001,None,391.49903904300027,None,391.49903904300027,None,391.49903904300027,None,391.49903904300027,None,,,,,,,,,,,,,,,,,,,,,,,,,,,,,,,,,,,,,,,,,,,,001,76,2020_Feb_06_0936,spring_faces,3.1.5,59.98326131102072,
condition files/Stage1_1.xlsx,,T4,B3,m,"['c', 'm']","['Clue', 'Monopoly']","[-0.15, 0.5]","[0.15, 0.5]",1,1,,,,,,,,,0,0,0,0,0,3,3,6,,,,,,,,,,,,,,,,,,,,,,,,,,,,,,,,,,,,,,,,,,,,,,,,,,,,,,,393.46525172600013,None,393.46525172600013,None,393.46525172600013,None,m,1,2.238791080000283,394.99794509000003,None,394.99794509000003,None,394.99794509000003,None,397.2981772170001,None,397.2981772170001,None,397.2981772170001,None,397.2981772170001,None,,,,,,,,,,,,,,,,,,,,,,,,,,,,,,,,,,,,,,,,,,,,001,76,2020_Feb_06_0936,spring_faces,3.1.5,59.98326131102072,
condition files/Stage1_1.xlsx,,B1,T2,c,"['c', 'm']","['Clue', 'Monopoly']","[-0.15, 0.5]","[0.15, 0.5]",1,1,,,,,,,,,0,0,0,0,0,4,4,1,,,,,,,,,,,,,,,,,,,,,,,,,,,,,,,,,,,,,,,,,,,,,,,,,,,,,,,399.26491837899994,None,399.26491837899994,None,399.26491837899994,None,m,0,5.04390062199991,400.848803204,None,400.848803204,None,400.848803204,None,405.9487629180003,None,405.9487629180003,None,405.9487629180003,None,405.9487629180003,None,,,,,,,,,,,,,,,,,,,,,,,,,,,,,,,,,,,,,,,,,,,,001,76,2020_Feb_06_0936,spring_faces,3.1.5,59.98326131102072,
condition files/Stage1_1.xlsx,,B4,T4,m,"['c', 'm']","['Clue', 'Monopoly']","[-0.15, 0.5]","[0.15, 0.5]",1,1,,,,,,,,,0,0,0,0,0,5,5,7,,,,,,,,,,,,,,,,,,,,,,,,,,,,,,,,,,,,,,,,,,,,,,,,,,,,,,,407.9150212320001,None,407.9150212320001,None,407.9150212320001,None,c,0,4.108301479000147,409.44851117999997,None,409.44851117999997,None,409.44851117999997,None,413.6320653030002,None,413.6320653030002,None,413.6320653030002,None,413.6320653030002,None,,,,,,,,,,,,,,,,,,,,,,,,,,,,,,,,,,,,,,,,,,,,001,76,2020_Feb_06_0936,spring_faces,3.1.5,59.98326131102072,
condition files/Stage1_1.xlsx,,B2,T1,m,"['c', 'm']","['Clue', 'Monopoly']","[-0.15, 0.5]","[0.15, 0.5]",1,1,,,,,,,,,0,0,0,0,0,6,6,2,,,,,,,,,,,,,,,,,,,,,,,,,,,,,,,,,,,,,,,,,,,,,,,,,,,,,,,415.5812262210002,None,415.5812262210002,None,415.5812262210002,None,m,1,2.7447551920004116,417.13191205400017,None,417.13191205400017,None,417.13191205400017,None,419.93227814600004,None,419.93227814600004,None,419.93227814600004,None,419.93227814600004,None,,,,,,,,,,,,,,,,,,,,,,,,,,,,,,,,,,,,,,,,,,,,001,76,2020_Feb_06_0936,spring_faces,3.1.5,59.98326131102072,
condition files/Stage1_1.xlsx,,T1,B1,c,"['c', 'm']","['Clue', 'Monopoly']","[-0.15, 0.5]","[0.15, 0.5]",1,1,,,,,,,,,0,0,0,0,0,7,7,0,,,,,,,,,,,,,,,,,,,,,,,,,,,,,,,,,,,,,,,,,,,,,,,,,,,,,,,421.89847702,None,421.89847702,None,421.89847702,None,c,1,3.276589432000037,423.44808589600007,None,423.44808589600007,None,423.44808589600007,None,426.7815928680002,None,426.7815928680002,None,426.7815928680002,None,426.7815928680002,None,,,,,,,,,,,,,,,,,,,,,,,,,,,,,,,,,,,,,,,,,,,,001,76,2020_Feb_06_0936,spring_faces,3.1.5,59.98326131102072,
condition files/Stage1_2.xlsx,,T3,B3,c,"['c', 'm']","['Clue', 'Monopoly']","[-0.15, 0.5]","[0.15, 0.5]",1,1,,,,,,,,,0,1,1,1,0,0,0,4,,,,,,,,,,,,,,,,,,,,,,,,,,,,,,,,,,,,,,,,,,,,,,,,,,,,,,,428.76507822400026,None,428.76507822400026,None,428.76507822400026,None,m,0,2.266460423999888,430.29826002200025,None,430.29826002200025,None,430.29826002200025,None,432.61555543500026,None,432.61555543500026,None,432.61555543500026,None,432.61555543500026,None,,,,,,,,,,,,,,,,,,,,,,,,,,,,,,,,,,,,,,,,,,,,001,76,2020_Feb_06_0936,spring_faces,3.1.5,59.98326131102072,
condition files/Stage1_2.xlsx,,B4,T3,c,"['c', 'm']","['Clue', 'Monopoly']","[-0.15, 0.5]","[0.15, 0.5]",1,1,,,,,,,,,0,1,1,1,0,1,1,5,,,,,,,,,,,,,,,,,,,,,,,,,,,,,,,,,,,,,,,,,,,,,,,,,,,,,,,434.5816053090002,None,434.5816053090002,None,434.5816053090002,None,m,0,2.7352298649998374,436.1175633080002,None,436.1175633080002,None,436.1175633080002,None,438.91471314699993,None,438.91471314699993,None,438.91471314699993,None,438.91471314699993,None,,,,,,,,,,,,,,,,,,,,,,,,,,,,,,,,,,,,,,,,,,,,001,76,2020_Feb_06_0936,spring_faces,3.1.5,59.98326131102072,
condition files/Stage1_2.xlsx,,B2,T2,m,"['c', 'm']","['Clue', 'Monopoly']","[-0.15, 0.5]","[0.15, 0.5]",1,1,,,,,,,,,0,1,1,1,0,2,2,3,,,,,,,,,,,,,,,,,,,,,,,,,,,,,,,,,,,,,,,,,,,,,,,,,,,,,,,440.88173758200037,None,440.88173758200037,None,440.88173758200037,None,m,1,2.3258735250001337,442.4149438090003,None,442.4149438090003,None,442.4149438090003,None,444.79829937500017,None,444.79829937500017,None,444.79829937500017,None,444.79829937500017,None,,,,,,,,,,,,,,,,,,,,,,,,,,,,,,,,,,,,,,,,,,,,001,76,2020_Feb_06_0936,spring_faces,3.1.5,59.98326131102072,
condition files/Stage1_2.xlsx,,T1,B2,m,"['c', 'm']","['Clue', 'Monopoly']","[-0.15, 0.5]","[0.15, 0.5]",1,1,,,,,,,,,0,1,1,1,0,3,3,2,,,,,,,,,,,,,,,,,,,,,,,,,,,,,,,,,,,,,,,,,,,,,,,,,,,,,,,446.76503722100006,None,446.76503722100006,None,446.76503722100006,None,m,1,1.0190146230002028,448.29772950200004,None,448.29772950200004,None,448.29772950200004,None,449.381201185,None,449.381201185,None,449.381201185,None,449.381201185,None,,,,,,,,,,,,,,,,,,,,,,,,,,,,,,,,,,,,,,,,,,,,001,76,2020_Feb_06_0936,spring_faces,3.1.5,59.98326131102072,
condition files/Stage1_2.xlsx,,T2,B1,c,"['c', 'm']","['Clue', 'Monopoly']","[-0.15, 0.5]","[0.15, 0.5]",1,1,,,,,,,,,0,1,1,1,0,4,4,1,,,,,,,,,,,,,,,,,,,,,,,,,,,,,,,,,,,,,,,,,,,,,,,,,,,,,,,451.34854711000025,None,451.34854711000025,None,451.34854711000025,None,c,1,1.13830304899966,452.89843392800003,None,452.89843392800003,None,452.89843392800003,None,454.09952652100037,None,454.09952652100037,None,454.09952652100037,None,454.09952652100037,None,,,,,,,,,,,,,,,,,,,,,,,,,,,,,,,,,,,,,,,,,,,,001,76,2020_Feb_06_0936,spring_faces,3.1.5,59.98326131102072,
condition files/Stage1_2.xlsx,,B3,T4,m,"['c', 'm']","['Clue', 'Monopoly']","[-0.15, 0.5]","[0.15, 0.5]",1,1,,,,,,,,,0,1,1,1,0,5,5,6,,,,,,,,,,,,,,,,,,,,,,,,,,,,,,,,,,,,,,,,,,,,,,,,,,,,,,,456.06509401300036,None,456.06509401300036,None,456.06509401300036,None,m,1,1.9103863400000591,457.59843014900025,None,457.59843014900025,None,457.59843014900025,None,459.5662549640001,None,459.5662549640001,None,459.5662549640001,None,459.5662549640001,None,,,,,,,,,,,,,,,,,,,,,,,,,,,,,,,,,,,,,,,,,,,,001,76,2020_Feb_06_0936,spring_faces,3.1.5,59.98326131102072,
condition files/Stage1_2.xlsx,,B1,T1,c,"['c', 'm']","['Clue', 'Monopoly']","[-0.15, 0.5]","[0.15, 0.5]",1,1,,,,,,,,,0,1,1,1,0,6,6,0,,,,,,,,,,,,,,,,,,,,,,,,,,,,,,,,,,,,,,,,,,,,,,,,,,,,,,,461.53183961900004,None,461.53183961900004,None,461.53183961900004,None,c,1,1.3877678649996597,463.06498312600024,None,463.06498312600024,None,463.06498312600024,None,464.5167521550002,None,464.5167521550002,None,464.5167521550002,None,464.5167521550002,None,,,,,,,,,,,,,,,,,,,,,,,,,,,,,,,,,,,,,,,,,,,,001,76,2020_Feb_06_0936,spring_faces,3.1.5,59.98326131102072,
condition files/Stage1_2.xlsx,,T4,B4,m,"['c', 'm']","['Clue', 'Monopoly']","[-0.15, 0.5]","[0.15, 0.5]",1,1,,,,,,,,,0,1,1,1,0,7,7,7,,,,,,,,,,,,,,,,,,,,,,,,,,,,,,,,,,,,,,,,,,,,,,,,,,,,,,,466.481210724,None,466.481210724,None,466.481210724,None,m,1,1.4295722970000497,468.0152037820003,None,468.0152037820003,None,468.0152037820003,None,469.50017902100035,None,469.50017902100035,None,469.50017902100035,None,469.50017902100035,None,,,,,,,,,,,,,,,,,,,,,,,,,,,,,,,,,,,,,,,,,,,,001,76,2020_Feb_06_0936,spring_faces,3.1.5,59.98326131102072,
condition files/Stage1_1.xlsx,,T4,B3,m,"['c', 'm']","['Clue', 'Monopoly']","[-0.15, 0.5]","[0.15, 0.5]",1,1,,,,,,,,,0,2,2,2,0,0,0,6,,,,,,,,,,,,,,,,,,,,,,,,,,,,,,,,,,,,,,,,,,,,,,,,,,,,,,,471.481511127,None,471.481511127,None,471.481511127,None,m,1,0.7019464390000394,473.014793715,None,473.014793715,None,473.014793715,None,473.78175936900016,None,473.78175936900016,None,473.78175936900016,None,473.78175936900016,None,,,,,,,,,,,,,,,,,,,,,,,,,,,,,,,,,,,,,,,,,,,,001,76,2020_Feb_06_0936,spring_faces,3.1.5,59.98326131102072,
condition files/Stage1_1.xlsx,,B2,T1,m,"['c', 'm']","['Clue', 'Monopoly']","[-0.15, 0.5]","[0.15, 0.5]",1,1,,,,,,,,,0,2,2,2,0,1,1,2,,,,,,,,,,,,,,,,,,,,,,,,,,,,,,,,,,,,,,,,,,,,,,,,,,,,,,,475.7484293980001,None,475.7484293980001,None,475.7484293980001,None,m,1,1.6663033569998333,477.28239089399995,None,477.28239089399995,None,477.28239089399995,None,479.0154124989999,None,479.0154124989999,None,479.0154124989999,None,479.0154124989999,None,,,,,,,,,,,,,,,,,,,,,,,,,,,,,,,,,,,,,,,,,,,,001,76,2020_Feb_06_0936,spring_faces,3.1.5,59.98326131102072,
condition files/Stage1_1.xlsx,,B4,T4,m,"['c', 'm']","['Clue', 'Monopoly']","[-0.15, 0.5]","[0.15, 0.5]",1,1,,,,,,,,,0,2,2,2,0,2,2,7,,,,,,,,,,,,,,,,,,,,,,,,,,,,,,,,,,,,,,,,,,,,,,,,,,,,,,,480.981847688,None,480.981847688,None,480.981847688,None,m,1,1.6165136520003216,482.516204518,None,482.516204518,None,482.516204518,None,484.19827853000015,None,484.19827853000015,None,484.19827853000015,None,484.19827853000015,None,,,,,,,,,,,,,,,,,,,,,,,,,,,,,,,,,,,,,,,,,,,,001,76,2020_Feb_06_0936,spring_faces,3.1.5,59.98326131102072,
condition files/Stage1_1.xlsx,,B3,T3,c,"['c', 'm']","['Clue', 'Monopoly']","[-0.15, 0.5]","[0.15, 0.5]",1,1,,,,,,,,,0,2,2,2,0,3,3,4,,,,,,,,,,,,,,,,,,,,,,,,,,,,,,,,,,,,,,,,,,,,,,,,,,,,,,,486.16524433099994,None,486.16524433099994,None,486.16524433099994,None,c,1,1.1384753990000718,487.69826332799994,None,487.69826332799994,None,487.69826332799994,None,488.89938767900003,None,488.89938767900003,None,488.89938767900003,None,488.89938767900003,None,,,,,,,,,,,,,,,,,,,,,,,,,,,,,,,,,,,,,,,,,,,,001,76,2020_Feb_06_0936,spring_faces,3.1.5,59.98326131102072,
condition files/Stage1_1.xlsx,,T2,B2,m,"['c', 'm']","['Clue', 'Monopoly']","[-0.15, 0.5]","[0.15, 0.5]",1,1,,,,,,,,,0,2,2,2,0,4,4,3,,,,,,,,,,,,,,,,,,,,,,,,,,,,,,,,,,,,,,,,,,,,,,,,,,,,,,,490.86515989200007,None,490.86515989200007,None,490.86515989200007,None,m,1,0.8215595430001486,492.4151737450002,None,492.4151737450002,None,492.4151737450002,None,493.29923810900027,None,493.29923810900027,None,493.29923810900027,None,493.29923810900027,None,,,,,,,,,,,,,,,,,,,,,,,,,,,,,,,,,,,,,,,,,,,,001,76,2020_Feb_06_0936,spring_faces,3.1.5,59.98326131102072,
condition files/Stage1_1.xlsx,,T1,B1,c,"['c', 'm']","['Clue', 'Monopoly']","[-0.15, 0.5]","[0.15, 0.5]",1,1,,,,,,,,,0,2,2,2,0,5,5,0,,,,,,,,,,,,,,,,,,,,,,,,,,,,,,,,,,,,,,,,,,,,,,,,,,,,,,,495.26507433999996,None,495.26507433999996,None,495.26507433999996,None,c,1,1.6221204539997416,496.79863956400004,None,496.79863956400004,None,496.79863956400004,None,498.4820765940003,None,498.4820765940003,None,498.4820765940003,None,498.4820765940003,None,,,,,,,,,,,,,,,,,,,,,,,,,,,,,,,,,,,,,,,,,,,,001,76,2020_Feb_06_0936,spring_faces,3.1.5,59.98326131102072,
condition files/Stage1_1.xlsx,,B1,T2,c,"['c', 'm']","['Clue', 'Monopoly']","[-0.15, 0.5]","[0.15, 0.5]",1,1,,,,,,,,,0,2,2,2,0,6,6,1,,,,,,,,,,,,,,,,,,,,,,,,,,,,,,,,,,,,,,,,,,,,,,,,,,,,,,,500.4483941420003,None,500.4483941420003,None,500.4483941420003,None,c,1,1.8933821430000535,501.983346515,None,501.983346515,None,501.983346515,None,503.9320546030003,None,503.9320546030003,None,503.9320546030003,None,503.9320546030003,None,,,,,,,,,,,,,,,,,,,,,,,,,,,,,,,,,,,,,,,,,,,,001,76,2020_Feb_06_0936,spring_faces,3.1.5,59.98326131102072,
condition files/Stage1_1.xlsx,,T3,B4,c,"['c', 'm']","['Clue', 'Monopoly']","[-0.15, 0.5]","[0.15, 0.5]",1,1,,,,,,,,,0,2,2,2,0,7,7,5,,,,,,,,,,,,,,,,,,,,,,,,,,,,,,,,,,,,,,,,,,,,,,,,,,,,,,,505.89838273600026,None,505.89838273600026,None,505.89838273600026,None,c,1,2.1554203589998906,507.43339713900014,None,507.43339713900014,None,507.43339713900014,None,509.64888948600037,None,509.64888948600037,None,509.64888948600037,None,509.64888948600037,None,,,,,,,,,,,,,,,,,,,,,,,,,,,,,,,,,,,,,,,,,,,,001,76,2020_Feb_06_0936,spring_faces,3.1.5,59.98326131102072,
condition files/Stage1_2.xlsx,,B4,T3,c,"['c', 'm']","['Clue', 'Monopoly']","[-0.15, 0.5]","[0.15, 0.5]",1,1,,,,,,,,,0,3,3,3,0,0,0,5,,,,,,,,,,,,,,,,,,,,,,,,,,,,,,,,,,,,,,,,,,,,,,,,,,,,,,,511.63175143000035,None,511.63175143000035,None,511.63175143000035,None,c,1,1.0317424280001433,513.165005546,None,513.165005546,None,513.165005546,None,514.249050463,None,514.249050463,None,514.249050463,None,514.249050463,None,,,,,,,,,,,,,,,,,,,,,,,,,,,,,,,,,,,,,,,,,,,,001,76,2020_Feb_06_0936,spring_faces,3.1.5,59.98326131102072,
condition files/Stage1_2.xlsx,,T4,B4,m,"['c', 'm']","['Clue', 'Monopoly']","[-0.15, 0.5]","[0.15, 0.5]",1,1,,,,,,,,,0,3,3,3,0,1,1,7,,,,,,,,,,,,,,,,,,,,,,,,,,,,,,,,,,,,,,,,,,,,,,,,,,,,,,,516.2142836580001,None,516.2142836580001,None,516.2142836580001,None,m,1,0.8319609139998647,517.7647636740003,None,517.7647636740003,None,517.7647636740003,None,518.649737274,None,518.649737274,None,518.649737274,None,518.649737274,None,,,,,,,,,,,,,,,,,,,,,,,,,,,,,,,,,,,,,,,,,,,,001,76,2020_Feb_06_0936,spring_faces,3.1.5,59.98326131102072,
condition files/Stage1_2.xlsx,,B2,T2,m,"['c', 'm']","['Clue', 'Monopoly']","[-0.15, 0.5]","[0.15, 0.5]",1,1,,,,,,,,,0,3,3,3,0,2,2,3,,,,,,,,,,,,,,,,,,,,,,,,,,,,,,,,,,,,,,,,,,,,,,,,,,,,,,,520.6145799400001,None,520.6145799400001,None,520.6145799400001,None,m,1,1.4873574160001226,522.1653841030002,None,522.1653841030002,None,522.1653841030002,None,523.7152971109999,None,523.7152971109999,None,523.7152971109999,None,523.7152971109999,None,,,,,,,,,,,,,,,,,,,,,,,,,,,,,,,,,,,,,,,,,,,,001,76,2020_Feb_06_0936,spring_faces,3.1.5,59.98326131102072,
condition files/Stage1_2.xlsx,,T1,B2,m,"['c', 'm']","['Clue', 'Monopoly']","[-0.15, 0.5]","[0.15, 0.5]",1,1,,,,,,,,,0,3,3,3,0,3,3,2,,,,,,,,,,,,,,,,,,,,,,,,,,,,,,,,,,,,,,,,,,,,,,,,,,,,,,,525.681739316,None,525.681739316,None,525.681739316,None,m,1,1.1093696070001897,527.2314346160001,None,527.2314346160001,None,527.2314346160001,None,528.3988234080002,None,528.3988234080002,None,528.3988234080002,None,528.3988234080002,None,,,,,,,,,,,,,,,,,,,,,,,,,,,,,,,,,,,,,,,,,,,,001,76,2020_Feb_06_0936,spring_faces,3.1.5,59.98326131102072,
condition files/Stage1_2.xlsx,,B3,T4,m,"['c', 'm']","['Clue', 'Monopoly']","[-0.15, 0.5]","[0.15, 0.5]",1,1,,,,,,,,,0,3,3,3,0,4,4,6,,,,,,,,,,,,,,,,,,,,,,,,,,,,,,,,,,,,,,,,,,,,,,,,,,,,,,,530.3650405580001,None,530.3650405580001,None,530.3650405580001,None,m,1,0.906627983999897,531.898185776,None,531.898185776,None,531.898185776,None,532.865355718,None,532.865355718,None,532.865355718,None,532.865355718,None,,,,,,,,,,,,,,,,,,,,,,,,,,,,,,,,,,,,,,,,,,,,001,76,2020_Feb_06_0936,spring_faces,3.1.5,59.98326131102072,
condition files/Stage1_2.xlsx,,B1,T1,c,"['c', 'm']","['Clue', 'Monopoly']","[-0.15, 0.5]","[0.15, 0.5]",1,1,,,,,,,,,0,3,3,3,0,5,5,0,,,,,,,,,,,,,,,,,,,,,,,,,,,,,,,,,,,,,,,,,,,,,,,,,,,,,,,534.8320082710002,None,534.8320082710002,None,534.8320082710002,None,c,1,0.9512309960000493,536.3654888159999,None,536.3654888159999,None,536.3654888159999,None,537.3839386980003,None,537.3839386980003,None,537.3839386980003,None,537.3839386980003,None,,,,,,,,,,,,,,,,,,,,,,,,,,,,,,,,,,,,,,,,,,,,001,76,2020_Feb_06_0936,spring_faces,3.1.5,59.98326131102072,
condition files/Stage1_2.xlsx,,T3,B3,c,"['c', 'm']","['Clue', 'Monopoly']","[-0.15, 0.5]","[0.15, 0.5]",1,1,,,,,,,,,0,3,3,3,0,6,6,4,,,,,,,,,,,,,,,,,,,,,,,,,,,,,,,,,,,,,,,,,,,,,,,,,,,,,,,539.348448495,None,539.348448495,None,539.348448495,None,c,1,1.2510235250001642,540.8816997040003,None,540.8816997040003,None,540.8816997040003,None,542.198823877,None,542.198823877,None,542.198823877,None,542.198823877,None,,,,,,,,,,,,,,,,,,,,,,,,,,,,,,,,,,,,,,,,,,,,001,76,2020_Feb_06_0936,spring_faces,3.1.5,59.98326131102072,
condition files/Stage1_2.xlsx,,T2,B1,c,"['c', 'm']","['Clue', 'Monopoly']","[-0.15, 0.5]","[0.15, 0.5]",1,1,,,,,,,,,0,3,3,3,0,7,7,1,,,,,,,,,,,,,,,,,,,,,,,,,,,,,,,,,,,,,,,,,,,,,,,,,,,,,,,544.1646592710003,None,544.1646592710003,None,544.1646592710003,None,c,1,1.6980214420000266,545.698695954,None,545.698695954,None,545.698695954,None,547.4487953000003,None,547.4487953000003,None,547.4487953000003,None,547.4487953000003,None,,,,,,,,,,,,,,,,,,,,,,,,,,,,,,,,,,,,,,,,,,,,001,76,2020_Feb_06_0936,spring_faces,3.1.5,59.98326131102072,
condition files/Stage1_1.xlsx,,T3,B4,c,"['c', 'm']","['Clue', 'Monopoly']","[-0.15, 0.5]","[0.15, 0.5]",1,1,,,,,,,,,0,4,4,4,0,0,0,5,,,,,,,,,,,,,,,,,,,,,,,,,,,,,,,,,,,,,,,,,,,,,,,,,,,,,,,549.4322269640002,None,549.4322269640002,None,549.4322269640002,None,c,1,1.3919496069997876,550.9648599260004,None,550.9648599260004,None,550.9648599260004,None,552.415598215,None,552.415598215,None,552.415598215,None,552.415598215,None,,,,,,,,,,,,,,,,,,,,,,,,,,,,,,,,,,,,,,,,,,,,001,76,2020_Feb_06_0936,spring_faces,3.1.5,59.98326131102072,
condition files/Stage1_1.xlsx,,B1,T2,c,"['c', 'm']","['Clue', 'Monopoly']","[-0.15, 0.5]","[0.15, 0.5]",1,1,,,,,,,,,0,4,4,4,0,1,1,1,,,,,,,,,,,,,,,,,,,,,,,,,,,,,,,,,,,,,,,,,,,,,,,,,,,,,,,554.3819104500003,None,554.3819104500003,None,554.3819104500003,None,c,1,1.3684733099998994,555.9162795270004,None,555.9162795270004,None,555.9162795270004,None,557.3487166750001,None,557.3487166750001,None,557.3487166750001,None,557.3487166750001,None,,,,,,,,,,,,,,,,,,,,,,,,,,,,,,,,,,,,,,,,,,,,001,76,2020_Feb_06_0936,spring_faces,3.1.5,59.98326131102072,
condition files/Stage1_1.xlsx,,T2,B2,m,"['c', 'm']","['Clue', 'Monopoly']","[-0.15, 0.5]","[0.15, 0.5]",1,1,,,,,,,,,0,4,4,4,0,2,2,3,,,,,,,,,,,,,,,,,,,,,,,,,,,,,,,,,,,,,,,,,,,,,,,,,,,,,,,559.3152879160002,None,559.3152879160002,None,559.3152879160002,None,m,1,1.1564241380001477,560.8483963590002,None,560.8483963590002,None,560.8483963590002,None,562.0820683270003,None,562.0820683270003,None,562.0820683270003,None,562.0820683270003,None,,,,,,,,,,,,,,,,,,,,,,,,,,,,,,,,,,,,,,,,,,,,001,76,2020_Feb_06_0936,spring_faces,3.1.5,59.98326131102072,
condition files/Stage1_1.xlsx,,T1,B1,c,"['c', 'm']","['Clue', 'Monopoly']","[-0.15, 0.5]","[0.15, 0.5]",1,1,,,,,,,,,0,4,4,4,0,3,3,0,,,,,,,,,,,,,,,,,,,,,,,,,,,,,,,,,,,,,,,,,,,,,,,,,,,,,,,564.032300842,None,564.032300842,None,564.032300842,None,c,1,0.9509635459999117,565.5657811720002,None,565.5657811720002,None,565.5657811720002,None,566.5823169089999,None,566.5823169089999,None,566.5823169089999,None,566.5823169089999,None,,,,,,,,,,,,,,,,,,,,,,,,,,,,,,,,,,,,,,,,,,,,001,76,2020_Feb_06_0936,spring_faces,3.1.5,59.98326131102072,
condition files/Stage1_1.xlsx,,T4,B3,m,"['c', 'm']","['Clue', 'Monopoly']","[-0.15, 0.5]","[0.15, 0.5]",1,1,,,,,,,,,0,4,4,4,0,4,4,6,,,,,,,,,,,,,,,,,,,,,,,,,,,,,,,,,,,,,,,,,,,,,,,,,,,,,,,568.5477235870003,None,568.5477235870003,None,568.5477235870003,None,m,1,1.2352210439998998,570.0814749159999,None,570.0814749159999,None,570.0814749159999,None,571.3820049380001,None,571.3820049380001,None,571.3820049380001,None,571.3820049380001,None,,,,,,,,,,,,,,,,,,,,,,,,,,,,,,,,,,,,,,,,,,,,001,76,2020_Feb_06_0936,spring_faces,3.1.5,59.98326131102072,
condition files/Stage1_1.xlsx,,B4,T4,m,"['c', 'm']","['Clue', 'Monopoly']","[-0.15, 0.5]","[0.15, 0.5]",1,1,,,,,,,,,0,4,4,4,0,5,5,7,,,,,,,,,,,,,,,,,,,,,,,,,,,,,,,,,,,,,,,,,,,,,,,,,,,,,,,573.3482481600004,None,573.3482481600004,None,573.3482481600004,None,m,1,1.0902738979998503,574.8985284820001,None,574.8985284820001,None,574.8985284820001,None,576.048589388,None,576.048589388,None,576.048589388,None,576.048589388,None,,,,,,,,,,,,,,,,,,,,,,,,,,,,,,,,,,,,,,,,,,,,001,76,2020_Feb_06_0936,spring_faces,3.1.5,59.98326131102072,
condition files/Stage1_1.xlsx,,B2,T1,m,"['c', 'm']","['Clue', 'Monopoly']","[-0.15, 0.5]","[0.15, 0.5]",1,1,,,,,,,,,0,4,4,4,0,6,6,2,,,,,,,,,,,,,,,,,,,,,,,,,,,,,,,,,,,,,,,,,,,,,,,,,,,,,,,578.0149140810004,None,578.0149140810004,None,578.0149140810004,None,m,1,0.7431032479998976,579.5496172100002,None,579.5496172100002,None,579.5496172100002,None,580.3488061010003,None,580.3488061010003,None,580.3488061010003,None,580.3488061010003,None,,,,,,,,,,,,,,,,,,,,,,,,,,,,,,,,,,,,,,,,,,,,001,76,2020_Feb_06_0936,spring_faces,3.1.5,59.98326131102072,
condition files/Stage1_1.xlsx,,B3,T3,c,"['c', 'm']","['Clue', 'Monopoly']","[-0.15, 0.5]","[0.15, 0.5]",1,1,,,,,,,,,0,4,4,4,0,7,7,4,,,,,,,,,,,,,,,,,,,,,,,,,,,,,,,,,,,,,,,,,,,,,,,,,,,,,,,582.3153895220003,None,582.3153895220003,None,582.3153895220003,None,c,1,0.9876434989996596,583.8490961950001,None,583.8490961950001,None,583.8490961950001,None,584.8981257410001,None,584.8981257410001,None,584.8981257410001,None,584.8981257410001,None,,,,,,,,,,,,,,,,,,,,,,,,,,,,,,,,,,,,,,,,,,,,001,76,2020_Feb_06_0936,spring_faces,3.1.5,59.98326131102072,
condition files/Stage1_2.xlsx,,T4,B4,m,"['c', 'm']","['Clue', 'Monopoly']","[-0.15, 0.5]","[0.15, 0.5]",1,1,,,,,,,,,0,5,5,5,0,0,0,7,,,,,,,,,,,,,,,,,,,,,,,,,,,,,,,,,,,,,,,,,,,,,,,,,,,,,,,586.881699256,None,586.881699256,None,586.881699256,None,m,1,1.0940798219999124,588.4147407770001,None,588.4147407770001,None,588.4147407770001,None,589.5821789320003,None,589.5821789320003,None,589.5821789320003,None,589.5821789320003,None,,,,,,,,,,,,,,,,,,,,,,,,,,,,,,,,,,,,,,,,,,,,001,76,2020_Feb_06_0936,spring_faces,3.1.5,59.98326131102072,
condition files/Stage1_2.xlsx,,T1,B2,m,"['c', 'm']","['Clue', 'Monopoly']","[-0.15, 0.5]","[0.15, 0.5]",1,1,,,,,,,,,0,5,5,5,0,1,1,2,,,,,,,,,,,,,,,,,,,,,,,,,,,,,,,,,,,,,,,,,,,,,,,,,,,,,,,591.5309013170004,None,591.5309013170004,None,591.5309013170004,None,m,1,0.8433009099999254,593.081373518,None,593.081373518,None,593.081373518,None,593.9813654470004,None,593.9813654470004,None,593.9813654470004,None,593.9813654470004,None,,,,,,,,,,,,,,,,,,,,,,,,,,,,,,,,,,,,,,,,,,,,001,76,2020_Feb_06_0936,spring_faces,3.1.5,59.98326131102072,
condition files/Stage1_2.xlsx,,B1,T1,c,"['c', 'm']","['Clue', 'Monopoly']","[-0.15, 0.5]","[0.15, 0.5]",1,1,,,,,,,,,0,5,5,5,0,2,2,0,,,,,,,,,,,,,,,,,,,,,,,,,,,,,,,,,,,,,,,,,,,,,,,,,,,,,,,595.948326664,None,595.948326664,None,595.948326664,None,c,1,0.9382318899997699,597.4985153960001,None,597.4985153960001,None,597.4985153960001,None,598.4992053660003,None,598.4992053660003,None,598.4992053660003,None,598.4992053660003,None,,,,,,,,,,,,,,,,,,,,,,,,,,,,,,,,,,,,,,,,,,,,001,76,2020_Feb_06_0936,spring_faces,3.1.5,59.98326131102072,
condition files/Stage1_2.xlsx,,B2,T2,m,"['c', 'm']","['Clue', 'Monopoly']","[-0.15, 0.5]","[0.15, 0.5]",1,1,,,,,,,,,0,5,5,5,0,3,3,3,,,,,,,,,,,,,,,,,,,,,,,,,,,,,,,,,,,,,,,,,,,,,,,,,,,,,,,600.4650153770003,None,600.4650153770003,None,600.4650153770003,None,m,1,0.7880187529999603,602.0008053680003,None,602.0008053680003,None,602.0008053680003,None,602.8496251430001,None,602.8496251430001,None,602.8496251430001,None,602.8496251430001,None,,,,,,,,,,,,,,,,,,,,,,,,,,,,,,,,,,,,,,,,,,,,001,76,2020_Feb_06_0936,spring_faces,3.1.5,59.98326131102072,
condition files/Stage1_2.xlsx,,B4,T3,c,"['c', 'm']","['Clue', 'Monopoly']","[-0.15, 0.5]","[0.15, 0.5]",1,1,,,,,,,,,0,5,5,5,0,4,4,5,,,,,,,,,,,,,,,,,,,,,,,,,,,,,,,,,,,,,,,,,,,,,,,,,,,,,,,604.815115164,None,604.815115164,None,604.815115164,None,c,1,0.8241264529997352,606.3486911919999,None,606.3486911919999,None,606.3486911919999,None,607.248067343,None,607.248067343,None,607.248067343,None,607.248067343,None,,,,,,,,,,,,,,,,,,,,,,,,,,,,,,,,,,,,,,,,,,,,001,76,2020_Feb_06_0936,spring_faces,3.1.5,59.98326131102072,
condition files/Stage1_2.xlsx,,T2,B1,c,"['c', 'm']","['Clue', 'Monopoly']","[-0.15, 0.5]","[0.15, 0.5]",1,1,,,,,,,,,0,5,5,5,0,5,5,1,,,,,,,,,,,,,,,,,,,,,,,,,,,,,,,,,,,,,,,,,,,,,,,,,,,,,,,609.1982027860004,None,609.1982027860004,None,609.1982027860004,None,c,1,0.7119530579998354,610.748744513,None,610.748744513,None,610.748744513,None,611.5149740800002,None,611.5149740800002,None,611.5149740800002,None,611.5149740800002,None,,,,,,,,,,,,,,,,,,,,,,,,,,,,,,,,,,,,,,,,,,,,001,76,2020_Feb_06_0936,spring_faces,3.1.5,59.98326131102072,
condition files/Stage1_2.xlsx,,T3,B3,c,"['c', 'm']","['Clue', 'Monopoly']","[-0.15, 0.5]","[0.15, 0.5]",1,1,,,,,,,,,0,5,5,5,0,6,6,4,,,,,,,,,,,,,,,,,,,,,,,,,,,,,,,,,,,,,,,,,,,,,,,,,,,,,,,613.481742807,None,613.481742807,None,613.481742807,None,c,1,0.8292852839999796,615.0154457820004,None,615.0154457820004,None,615.0154457820004,None,615.8984877350003,None,615.8984877350003,None,615.8984877350003,None,615.8984877350003,None,,,,,,,,,,,,,,,,,,,,,,,,,,,,,,,,,,,,,,,,,,,,001,76,2020_Feb_06_0936,spring_faces,3.1.5,59.98326131102072,
condition files/Stage1_2.xlsx,,B3,T4,m,"['c', 'm']","['Clue', 'Monopoly']","[-0.15, 0.5]","[0.15, 0.5]",1,1,,,,,,,,,0,5,5,5,0,7,7,6,,,,,,,,,,,,,,,,,,,,,,,,,,,,,,,,,,,,,,,,,,,,,,,,,,,,,,,617.864758786,None,617.864758786,None,617.864758786,None,m,1,0.9577644550004152,619.3990580290001,None,619.3990580290001,None,619.3990580290001,None,620.4145606020002,None,620.4145606020002,None,620.4145606020002,None,620.4145606020002,None,,,,,,,,,,,,,,,,,,,,,,,,,,,,,,,,,,,,,,,,,,,,001,76,2020_Feb_06_0936,spring_faces,3.1.5,59.98326131102072,
condition files/Stage1_1.xlsx,,T4,B3,m,"['c', 'm']","['Clue', 'Monopoly']","[-0.15, 0.5]","[0.15, 0.5]",1,1,,,,,,,,,0,6,6,6,0,0,0,6,,,,,,,,,,,,,,,,,,,,,,,,,,,,,,,,,,,,,,,,,,,,,,,,,,,,,,,622.3984086170003,None,622.3984086170003,None,622.3984086170003,None,m,1,0.7600629829998979,623.9487544850003,None,623.9487544850003,None,623.9487544850003,None,624.7653023580001,None,624.7653023580001,None,624.7653023580001,None,624.7653023580001,None,,,,,,,,,,,,,,,,,,,,,,,,,,,,,,,,,,,,,,,,,,,,001,76,2020_Feb_06_0936,spring_faces,3.1.5,59.98326131102072,
condition files/Stage1_1.xlsx,,T2,B2,m,"['c', 'm']","['Clue', 'Monopoly']","[-0.15, 0.5]","[0.15, 0.5]",1,1,,,,,,,,,0,6,6,6,0,1,1,3,,,,,,,,,,,,,,,,,,,,,,,,,,,,,,,,,,,,,,,,,,,,,,,,,,,,,,,626.7316793499999,None,626.7316793499999,None,626.7316793499999,None,m,1,0.714579810000032,628.2661612400002,None,628.2661612400002,None,628.2661612400002,None,629.03237597,None,629.03237597,None,629.03237597,None,629.03237597,None,,,,,,,,,,,,,,,,,,,,,,,,,,,,,,,,,,,,,,,,,,,,001,76,2020_Feb_06_0936,spring_faces,3.1.5,59.98326131102072,
condition files/Stage1_1.xlsx,,B3,T3,c,"['c', 'm']","['Clue', 'Monopoly']","[-0.15, 0.5]","[0.15, 0.5]",1,1,,,,,,,,,0,6,6,6,0,2,2,4,,,,,,,,,,,,,,,,,,,,,,,,,,,,,,,,,,,,,,,,,,,,,,,,,,,,,,,630.9984204920002,None,630.9984204920002,None,630.9984204920002,None,c,1,0.7525073799997699,632.532247743,None,632.532247743,None,632.532247743,None,633.3481134020003,None,633.3481134020003,None,633.3481134020003,None,633.3481134020003,None,,,,,,,,,,,,,,,,,,,,,,,,,,,,,,,,,,,,,,,,,,,,001,76,2020_Feb_06_0936,spring_faces,3.1.5,59.98326131102072,
condition files/Stage1_1.xlsx,,B2,T1,m,"['c', 'm']","['Clue', 'Monopoly']","[-0.15, 0.5]","[0.15, 0.5]",1,1,,,,,,,,,0,6,6,6,0,3,3,2,,,,,,,,,,,,,,,,,,,,,,,,,,,,,,,,,,,,,,,,,,,,,,,,,,,,,,,635.3146539700001,None,635.3146539700001,None,635.3146539700001,None,m,1,0.7723928380000871,636.848361023,None,636.848361023,None,636.848361023,None,637.6831759720003,None,637.6831759720003,None,637.6831759720003,None,637.6831759720003,None,,,,,,,,,,,,,,,,,,,,,,,,,,,,,,,,,,,,,,,,,,,,001,76,2020_Feb_06_0936,spring_faces,3.1.5,59.98326131102072,
condition files/Stage1_1.xlsx,,B4,T4,m,"['c', 'm']","['Clue', 'Monopoly']","[-0.15, 0.5]","[0.15, 0.5]",1,1,,,,,,,,,0,6,6,6,0,4,4,7,,,,,,,,,,,,,,,,,,,,,,,,,,,,,,,,,,,,,,,,,,,,,,,,,,,,,,,639.6483851400003,None,639.6483851400003,None,639.6483851400003,None,m,1,1.5592833669998072,641.18153338,None,641.18153338,None,641.18153338,None,642.7984630569999,None,642.7984630569999,None,642.7984630569999,None,642.7984630569999,None,,,,,,,,,,,,,,,,,,,,,,,,,,,,,,,,,,,,,,,,,,,,001,76,2020_Feb_06_0936,spring_faces,3.1.5,59.98326131102072,
condition files/Stage1_1.xlsx,,T1,B1,c,"['c', 'm']","['Clue', 'Monopoly']","[-0.15, 0.5]","[0.15, 0.5]",1,1,,,,,,,,,0,6,6,6,0,5,5,0,,,,,,,,,,,,,,,,,,,,,,,,,,,,,,,,,,,,,,,,,,,,,,,,,,,,,,,644.7645799820002,None,644.7645799820002,None,644.7645799820002,None,c,1,1.034346633000041,646.2983413350003,None,646.2983413350003,None,646.2983413350003,None,647.4007945940002,None,647.4007945940002,None,647.4007945940002,None,647.4007945940002,None,,,,,,,,,,,,,,,,,,,,,,,,,,,,,,,,,,,,,,,,,,,,001,76,2020_Feb_06_0936,spring_faces,3.1.5,59.98326131102072,
condition files/Stage1_1.xlsx,,T3,B4,c,"['c', 'm']","['Clue', 'Monopoly']","[-0.15, 0.5]","[0.15, 0.5]",1,1,,,,,,,,,0,6,6,6,0,6,6,5,,,,,,,,,,,,,,,,,,,,,,,,,,,,,,,,,,,,,,,,,,,,,,,,,,,,,,,649.3652128580002,None,649.3652128580002,None,649.3652128580002,None,c,1,2.2905796079999163,650.8982451400002,None,650.8982451400002,None,650.8982451400002,None,653.248829394,None,653.248829394,None,653.248829394,None,653.248829394,None,,,,,,,,,,,,,,,,,,,,,,,,,,,,,,,,,,,,,,,,,,,,001,76,2020_Feb_06_0936,spring_faces,3.1.5,59.98326131102072,
condition files/Stage1_1.xlsx,,B1,T2,c,"['c', 'm']","['Clue', 'Monopoly']","[-0.15, 0.5]","[0.15, 0.5]",1,1,,,,,,,,,0,6,6,6,0,7,7,1,,,,,,,,,,,,,,,,,,,,,,,,,,,,,,,,,,,,,,,,,,,,,,,,,,,,,,,655.2152960570002,None,655.2152960570002,None,655.2152960570002,None,c,1,0.9351734679999026,656.7495720680004,None,656.7495720680004,None,656.7495720680004,None,657.7487358140002,None,657.7487358140002,None,657.7487358140002,None,657.7487358140002,None,,,,,,,,,,,,,,,,,,,,,,,,,,,,,,,,,,,,,,,,,,,,001,76,2020_Feb_06_0936,spring_faces,3.1.5,59.98326131102072,
condition files/Stage1_2.xlsx,,B1,T1,c,"['c', 'm']","['Clue', 'Monopoly']","[-0.15, 0.5]","[0.15, 0.5]",1,1,,,,,,,,,0,7,7,7,0,0,0,0,,,,,,,,,,,,,,,,,,,,,,,,,,,,,,,,,,,,,,,,,,,,,,,,,,,,,,,659.731987911,None,659.731987911,None,659.731987911,None,c,1,1.1373080009998375,661.2674296530004,None,661.2674296530004,None,661.2674296530004,None,662.4654406520003,None,662.4654406520003,None,662.4654406520003,None,662.4654406520003,None,,,,,,,,,,,,,,,,,,,,,,,,,,,,,,,,,,,,,,,,,,,,001,76,2020_Feb_06_0936,spring_faces,3.1.5,59.98326131102072,
condition files/Stage1_2.xlsx,,T1,B2,m,"['c', 'm']","['Clue', 'Monopoly']","[-0.15, 0.5]","[0.15, 0.5]",1,1,,,,,,,,,0,7,7,7,0,1,1,2,,,,,,,,,,,,,,,,,,,,,,,,,,,,,,,,,,,,,,,,,,,,,,,,,,,,,,,664.4310535090003,None,664.4310535090003,None,664.4310535090003,None,m,1,0.8563850049999928,665.964371004,None,665.964371004,None,665.964371004,None,666.883908794,None,666.883908794,None,666.883908794,None,666.883908794,None,,,,,,,,,,,,,,,,,,,,,,,,,,,,,,,,,,,,,,,,,,,,001,76,2020_Feb_06_0936,spring_faces,3.1.5,59.98326131102072,
condition files/Stage1_2.xlsx,,B4,T3,c,"['c', 'm']","['Clue', 'Monopoly']","[-0.15, 0.5]","[0.15, 0.5]",1,1,,,,,,,,,0,7,7,7,0,2,2,5,,,,,,,,,,,,,,,,,,,,,,,,,,,,,,,,,,,,,,,,,,,,,,,,,,,,,,,668.8484050260004,None,668.8484050260004,None,668.8484050260004,None,c,1,1.2230709179998485,670.3816369250003,None,670.3816369250003,None,670.3816369250003,None,671.66697565,None,671.66697565,None,671.66697565,None,671.66697565,None,,,,,,,,,,,,,,,,,,,,,,,,,,,,,,,,,,,,,,,,,,,,001,76,2020_Feb_06_0936,spring_faces,3.1.5,59.98326131102072,
condition files/Stage1_2.xlsx,,B2,T2,m,"['c', 'm']","['Clue', 'Monopoly']","[-0.15, 0.5]","[0.15, 0.5]",1,1,,,,,,,,,0,7,7,7,0,3,3,3,,,,,,,,,,,,,,,,,,,,,,,,,,,,,,,,,,,,,,,,,,,,,,,,,,,,,,,673.631617341,None,673.631617341,None,673.631617341,None,m,1,0.8869016610001381,675.1818333210003,None,675.1818333210003,None,675.1818333210003,None,676.1340576490002,None,676.1340576490002,None,676.1340576490002,None,676.1340576490002,None,,,,,,,,,,,,,,,,,,,,,,,,,,,,,,,,,,,,,,,,,,,,001,76,2020_Feb_06_0936,spring_faces,3.1.5,59.98326131102072,
condition files/Stage1_2.xlsx,,B3,T4,m,"['c', 'm']","['Clue', 'Monopoly']","[-0.15, 0.5]","[0.15, 0.5]",1,1,,,,,,,,,0,7,7,7,0,4,4,6,,,,,,,,,,,,,,,,,,,,,,,,,,,,,,,,,,,,,,,,,,,,,,,,,,,,,,,678.0985393149999,None,678.0985393149999,None,678.0985393149999,None,m,1,0.8209864160003235,679.6317707640001,None,679.6317707640001,None,679.6317707640001,None,680.5148861020002,None,680.5148861020002,None,680.5148861020002,None,680.5148861020002,None,,,,,,,,,,,,,,,,,,,,,,,,,,,,,,,,,,,,,,,,,,,,001,76,2020_Feb_06_0936,spring_faces,3.1.5,59.98326131102072,
condition files/Stage1_2.xlsx,,T3,B3,c,"['c', 'm']","['Clue', 'Monopoly']","[-0.15, 0.5]","[0.15, 0.5]",1,1,,,,,,,,,0,7,7,7,0,5,5,4,,,,,,,,,,,,,,,,,,,,,,,,,,,,,,,,,,,,,,,,,,,,,,,,,,,,,,,682.482100614,None,682.482100614,None,682.482100614,None,c,1,0.8376930510003149,684.0150637770003,None,684.0150637770003,None,684.0150637770003,None,684.9159363819999,None,684.9159363819999,None,684.9159363819999,None,684.9159363819999,None,,,,,,,,,,,,,,,,,,,,,,,,,,,,,,,,,,,,,,,,,,,,001,76,2020_Feb_06_0936,spring_faces,3.1.5,59.98326131102072,
condition files/Stage1_2.xlsx,,T2,B1,c,"['c', 'm']","['Clue', 'Monopoly']","[-0.15, 0.5]","[0.15, 0.5]",1,1,,,,,,,,,0,7,7,7,0,6,6,1,,,,,,,,,,,,,,,,,,,,,,,,,,,,,,,,,,,,,,,,,,,,,,,,,,,,,,,686.881830541,None,686.881830541,None,686.881830541,None,c,1,0.8694486009999309,688.4153068600003,None,688.4153068600003,None,688.4153068600003,None,689.3488270530002,None,689.3488270530002,None,689.3488270530002,None,689.3488270530002,None,,,,,,,,,,,,,,,,,,,,,,,,,,,,,,,,,,,,,,,,,,,,001,76,2020_Feb_06_0936,spring_faces,3.1.5,59.98326131102072,
condition files/Stage1_2.xlsx,,T4,B4,m,"['c', 'm']","['Clue', 'Monopoly']","[-0.15, 0.5]","[0.15, 0.5]",1,1,,,,,,,,,0,7,7,7,0,7,7,7,,,,,,,,,,,,,,,,,,,,,,,,,,,,,,,,,,,,,,,,,,,,,,,,,,,,,,,691.3151564280001,None,691.3151564280001,None,691.3151564280001,None,m,1,0.9009963519997655,692.84770991,None,692.84770991,None,692.84770991,None,693.7989625069999,None,693.7989625069999,None,693.7989625069999,None,693.7989625069999,None,,,,,,,,,,,,,,,,,,,,,,,,,,,,,,,,,,,,,,,,,,,,001,76,2020_Feb_06_0936,spring_faces,3.1.5,59.98326131102072,
condition files/Stage1_1.xlsx,,B3,T3,c,"['c', 'm']","['Clue', 'Monopoly']","[-0.15, 0.5]","[0.15, 0.5]",1,1,,,,,,,,,0,8,8,8,0,0,0,4,,,,,,,,,,,,,,,,,,,,,,,,,,,,,,,,,,,,,,,,,,,,,,,,,,,,,,,695.7820475530002,None,695.7820475530002,None,695.7820475530002,None,c,1,1.057773969000209,697.3150446640002,None,697.3150446640002,None,697.3150446640002,None,698.4345317550001,None,698.4345317550001,None,698.4345317550001,None,698.4345317550001,None,,,,,,,,,,,,,,,,,,,,,,,,,,,,,,,,,,,,,,,,,,,,001,76,2020_Feb_06_0936,spring_faces,3.1.5,59.98326131102072,
condition files/Stage1_1.xlsx,,T4,B3,m,"['c', 'm']","['Clue', 'Monopoly']","[-0.15, 0.5]","[0.15, 0.5]",1,1,,,,,,,,,0,8,8,8,0,1,1,6,,,,,,,,,,,,,,,,,,,,,,,,,,,,,,,,,,,,,,,,,,,,,,,,,,,,,,,700.3983245170002,None,700.3983245170002,None,700.3983245170002,None,m,1,0.8569522570001027,701.9318749270001,None,701.9318749270001,None,701.9318749270001,None,702.8481284920003,None,702.8481284920003,None,702.8481284920003,None,702.8481284920003,None,,,,,,,,,,,,,,,,,,,,,,,,,,,,,,,,,,,,,,,,,,,,001,76,2020_Feb_06_0936,spring_faces,3.1.5,59.98326131102072,
condition files/Stage1_1.xlsx,,T3,B4,c,"['c', 'm']","['Clue', 'Monopoly']","[-0.15, 0.5]","[0.15, 0.5]",1,1,,,,,,,,,0,8,8,8,0,2,2,5,,,,,,,,,,,,,,,,,,,,,,,,,,,,,,,,,,,,,,,,,,,,,,,,,,,,,,,704.8144871320001,None,704.8144871320001,None,704.8144871320001,None,c,1,1.047636673999932,706.34911113,None,706.34911113,None,706.34911113,None,707.4497381250003,None,707.4497381250003,None,707.4497381250003,None,707.4497381250003,None,,,,,,,,,,,,,,,,,,,,,,,,,,,,,,,,,,,,,,,,,,,,001,76,2020_Feb_06_0936,spring_faces,3.1.5,59.98326131102072,
condition files/Stage1_1.xlsx,,B1,T2,c,"['c', 'm']","['Clue', 'Monopoly']","[-0.15, 0.5]","[0.15, 0.5]",1,1,,,,,,,,,0,8,8,8,0,3,3,1,,,,,,,,,,,,,,,,,,,,,,,,,,,,,,,,,,,,,,,,,,,,,,,,,,,,,,,709.415306508,None,709.415306508,None,709.415306508,None,c,1,1.231420701999923,710.9653111460002,None,710.9653111460002,None,710.9653111460002,None,712.2487105800001,None,712.2487105800001,None,712.2487105800001,None,712.2487105800001,None,,,,,,,,,,,,,,,,,,,,,,,,,,,,,,,,,,,,,,,,,,,,001,76,2020_Feb_06_0936,spring_faces,3.1.5,59.98326131102072,
condition files/Stage1_1.xlsx,,T1,B1,c,"['c', 'm']","['Clue', 'Monopoly']","[-0.15, 0.5]","[0.15, 0.5]",1,1,,,,,,,,,0,8,8,8,0,4,4,0,,,,,,,,,,,,,,,,,,,,,,,,,,,,,,,,,,,,,,,,,,,,,,,,,,,,,,,714.215163156,None,714.215163156,None,714.215163156,None,c,1,0.8156251390000762,715.7651047620002,None,715.7651047620002,None,715.7651047620002,None,716.6321445650001,None,716.6321445650001,None,716.6321445650001,None,716.6321445650001,None,,,,,,,,,,,,,,,,,,,,,,,,,,,,,,,,,,,,,,,,,,,,001,76,2020_Feb_06_0936,spring_faces,3.1.5,59.98326131102072,
condition files/Stage1_1.xlsx,,T2,B2,m,"['c', 'm']","['Clue', 'Monopoly']","[-0.15, 0.5]","[0.15, 0.5]",1,1,,,,,,,,,0,8,8,8,0,5,5,3,,,,,,,,,,,,,,,,,,,,,,,,,,,,,,,,,,,,,,,,,,,,,,,,,,,,,,,718.5985949410001,None,718.5985949410001,None,718.5985949410001,None,m,1,0.6889299350000329,720.1318609280002,None,720.1318609280002,None,720.1318609280002,None,720.8832579220002,None,720.8832579220002,None,720.8832579220002,None,720.8832579220002,None,,,,,,,,,,,,,,,,,,,,,,,,,,,,,,,,,,,,,,,,,,,,001,76,2020_Feb_06_0936,spring_faces,3.1.5,59.98326131102072,
condition files/Stage1_1.xlsx,,B2,T1,m,"['c', 'm']","['Clue', 'Monopoly']","[-0.15, 0.5]","[0.15, 0.5]",1,1,,,,,,,,,0,8,8,8,0,6,6,2,,,,,,,,,,,,,,,,,,,,,,,,,,,,,,,,,,,,,,,,,,,,,,,,,,,,,,,722.848616667,None,722.848616667,None,722.848616667,None,m,1,0.7741431080003167,724.3986645080004,None,724.3986645080004,None,724.3986645080004,None,725.2322499900001,None,725.2322499900001,None,725.2322499900001,None,725.2322499900001,None,,,,,,,,,,,,,,,,,,,,,,,,,,,,,,,,,,,,,,,,,,,,001,76,2020_Feb_06_0936,spring_faces,3.1.5,59.98326131102072,
condition files/Stage1_1.xlsx,,B4,T4,m,"['c', 'm']","['Clue', 'Monopoly']","[-0.15, 0.5]","[0.15, 0.5]",1,1,,,,,,,,,0,8,8,8,0,7,7,7,,,,,,,,,,,,,,,,,,,,,,,,,,,,,,,,,,,,,,,,,,,,,,,,,,,,,,,727.198454502,None,727.198454502,None,727.198454502,None,m,1,0.873126004000369,728.7316176610002,None,728.7316176610002,None,728.7316176610002,None,729.6649546440003,None,729.6649546440003,None,729.6649546440003,None,729.6649546440003,None,,,,,,,,,,,,,,,,,,,,,,,,,,,,,,,,,,,,,,,,,,,,001,76,2020_Feb_06_0936,spring_faces,3.1.5,59.98326131102072,
condition files/Stage1_2.xlsx,,B2,T2,m,"['c', 'm']","['Clue', 'Monopoly']","[-0.15, 0.5]","[0.15, 0.5]",1,1,,,,,,,,,0,9,9,9,0,0,0,3,,,,,,,,,,,,,,,,,,,,,,,,,,,,,,,,,,,,,,,,,,,,,,,,,,,,,,,731.6484340100001,None,731.6484340100001,None,731.6484340100001,None,m,1,0.8387943389998327,733.1820093820002,None,733.1820093820002,None,733.1820093820002,None,734.0816791410002,None,734.0816791410002,None,734.0816791410002,None,734.0816791410002,None,,,,,,,,,,,,,,,,,,,,,,,,,,,,,,,,,,,,,,,,,,,,001,76,2020_Feb_06_0936,spring_faces,3.1.5,59.98326131102072,
condition files/Stage1_2.xlsx,,B1,T1,c,"['c', 'm']","['Clue', 'Monopoly']","[-0.15, 0.5]","[0.15, 0.5]",1,1,,,,,,,,,0,9,9,9,0,1,1,0,,,,,,,,,,,,,,,,,,,,,,,,,,,,,,,,,,,,,,,,,,,,,,,,,,,,,,,736.0485783980002,None,736.0485783980002,None,736.0485783980002,None,c,1,0.9178409969999848,737.5829135190002,None,737.5829135190002,None,737.5829135190002,None,738.5670391080002,None,738.5670391080002,None,738.5670391080002,None,738.5670391080002,None,,,,,,,,,,,,,,,,,,,,,,,,,,,,,,,,,,,,,,,,,,,,001,76,2020_Feb_06_0936,spring_faces,3.1.5,59.98326131102072,
condition files/Stage1_2.xlsx,,T1,B2,m,"['c', 'm']","['Clue', 'Monopoly']","[-0.15, 0.5]","[0.15, 0.5]",1,1,,,,,,,,,0,9,9,9,0,2,2,2,,,,,,,,,,,,,,,,,,,,,,,,,,,,,,,,,,,,,,,,,,,,,,,,,,,,,,,740.5317545480002,None,740.5317545480002,None,740.5317545480002,None,m,1,0.8194357919996946,742.0653300510003,None,742.0653300510003,None,742.0653300510003,None,742.951285737,None,742.951285737,None,742.951285737,None,742.951285737,None,,,,,,,,,,,,,,,,,,,,,,,,,,,,,,,,,,,,,,,,,,,,001,76,2020_Feb_06_0936,spring_faces,3.1.5,59.98326131102072,
condition files/Stage1_2.xlsx,,B4,T3,c,"['c', 'm']","['Clue', 'Monopoly']","[-0.15, 0.5]","[0.15, 0.5]",1,1,,,,,,,,,0,9,9,9,0,3,3,5,,,,,,,,,,,,,,,,,,,,,,,,,,,,,,,,,,,,,,,,,,,,,,,,,,,,,,,744.915235335,None,744.915235335,None,744.915235335,None,c,1,0.8521111159998327,746.448646885,None,746.448646885,None,746.448646885,None,747.3819471880001,None,747.3819471880001,None,747.3819471880001,None,747.3819471880001,None,,,,,,,,,,,,,,,,,,,,,,,,,,,,,,,,,,,,,,,,,,,,001,76,2020_Feb_06_0936,spring_faces,3.1.5,59.98326131102072,
condition files/Stage1_2.xlsx,,T2,B1,c,"['c', 'm']","['Clue', 'Monopoly']","[-0.15, 0.5]","[0.15, 0.5]",1,1,,,,,,,,,0,9,9,9,0,4,4,1,,,,,,,,,,,,,,,,,,,,,,,,,,,,,,,,,,,,,,,,,,,,,,,,,,,,,,,749.3318227230002,None,749.3318227230002,None,749.3318227230002,None,c,1,0.866807597999923,750.8818816319999,None,750.8818816319999,None,750.8818816319999,None,751.8156353630002,None,751.8156353630002,None,751.8156353630002,None,751.8156353630002,None,,,,,,,,,,,,,,,,,,,,,,,,,,,,,,,,,,,,,,,,,,,,001,76,2020_Feb_06_0936,spring_faces,3.1.5,59.98326131102072,
condition files/Stage1_2.xlsx,,B3,T4,m,"['c', 'm']","['Clue', 'Monopoly']","[-0.15, 0.5]","[0.15, 0.5]",1,1,,,,,,,,,0,9,9,9,0,5,5,6,,,,,,,,,,,,,,,,,,,,,,,,,,,,,,,,,,,,,,,,,,,,,,,,,,,,,,,753.781808021,None,753.781808021,None,753.781808021,None,m,1,0.6580510550002145,755.3146916570004,None,755.3146916570004,None,755.3146916570004,None,756.032829326,None,756.032829326,None,756.032829326,None,756.032829326,None,,,,,,,,,,,,,,,,,,,,,,,,,,,,,,,,,,,,,,,,,,,,001,76,2020_Feb_06_0936,spring_faces,3.1.5,59.98326131102072,
condition files/Stage1_2.xlsx,,T3,B3,c,"['c', 'm']","['Clue', 'Monopoly']","[-0.15, 0.5]","[0.15, 0.5]",1,1,,,,,,,,,0,9,9,9,0,6,6,4,,,,,,,,,,,,,,,,,,,,,,,,,,,,,,,,,,,,,,,,,,,,,,,,,,,,,,,757.9981074750003,None,757.9981074750003,None,757.9981074750003,None,c,1,1.6723703190000379,759.5323602950002,None,759.5323602950002,None,759.5323602950002,None,761.2821758750001,None,761.2821758750001,None,761.2821758750001,None,761.2821758750001,None,,,,,,,,,,,,,,,,,,,,,,,,,,,,,,,,,,,,,,,,,,,,001,76,2020_Feb_06_0936,spring_faces,3.1.5,59.98326131102072,
condition files/Stage1_2.xlsx,,T4,B4,m,"['c', 'm']","['Clue', 'Monopoly']","[-0.15, 0.5]","[0.15, 0.5]",1,1,,,,,,,,,0,9,9,9,0,7,7,7,,,,,,,,,,,,,,,,,,,,,,,,,,,,,,,,,,,,,,,,,,,,,,,,,,,,,,,763.2314471050004,None,763.2314471050004,None,763.2314471050004,None,m,1,1.4955140930001107,764.7652390410003,None,764.7652390410003,None,764.7652390410003,None,766.315090308,None,766.315090308,None,766.315090308,None,766.315090308,None,,,,,,,,,,,,,,,,,,,,,,,,,,,,,,,,,,,,,,,,,,,,001,76,2020_Feb_06_0936,spring_faces,3.1.5,59.98326131102072,
condition files/Stage1_1.xlsx,,T3,B4,c,"['c', 'm']","['Clue', 'Monopoly']","[-0.15, 0.5]","[0.15, 0.5]",1,1,,,,,,,,,0,10,10,10,0,0,0,5,,,,,,,,,,,,,,,,,,,,,,,,,,,,,,,,,,,,,,,,,,,,,,,,,,,,,,,768.2988230139999,None,768.2988230139999,None,768.2988230139999,None,c,1,0.9405937800001993,769.8322359670001,None,769.8322359670001,None,769.8322359670001,None,770.8486272090004,None,770.8486272090004,None,770.8486272090004,None,770.8486272090004,None,,,,,,,,,,,,,,,,,,,,,,,,,,,,,,,,,,,,,,,,,,,,001,76,2020_Feb_06_0936,spring_faces,3.1.5,59.98326131102072,
condition files/Stage1_1.xlsx,,B2,T1,m,"['c', 'm']","['Clue', 'Monopoly']","[-0.15, 0.5]","[0.15, 0.5]",1,1,,,,,,,,,0,10,10,10,0,1,1,2,,,,,,,,,,,,,,,,,,,,,,,,,,,,,,,,,,,,,,,,,,,,,,,,,,,,,,,772.798368318,None,772.798368318,None,772.798368318,None,m,1,0.7292337740000221,774.331503552,None,774.331503552,None,774.331503552,None,775.1146974769999,None,775.1146974769999,None,775.1146974769999,None,775.1146974769999,None,,,,,,,,,,,,,,,,,,,,,,,,,,,,,,,,,,,,,,,,,,,,001,76,2020_Feb_06_0936,spring_faces,3.1.5,59.98326131102072,
condition files/Stage1_1.xlsx,,T2,B2,m,"['c', 'm']","['Clue', 'Monopoly']","[-0.15, 0.5]","[0.15, 0.5]",1,1,,,,,,,,,0,10,10,10,0,2,2,3,,,,,,,,,,,,,,,,,,,,,,,,,,,,,,,,,,,,,,,,,,,,,,,,,,,,,,,777.081462399,None,777.081462399,None,777.081462399,None,m,1,0.7978275069999654,778.614928172,None,778.614928172,None,778.614928172,None,779.4649336030002,None,779.4649336030002,None,779.4649336030002,None,779.4649336030002,None,,,,,,,,,,,,,,,,,,,,,,,,,,,,,,,,,,,,,,,,,,,,001,76,2020_Feb_06_0936,spring_faces,3.1.5,59.98326131102072,
condition files/Stage1_1.xlsx,,B3,T3,c,"['c', 'm']","['Clue', 'Monopoly']","[-0.15, 0.5]","[0.15, 0.5]",1,1,,,,,,,,,0,10,10,10,0,3,3,4,,,,,,,,,,,,,,,,,,,,,,,,,,,,,,,,,,,,,,,,,,,,,,,,,,,,,,,781.4318660020003,None,781.4318660020003,None,781.4318660020003,None,c,1,0.718599921999612,782.982139453,None,782.982139453,None,782.982139453,None,783.765076574,None,783.765076574,None,783.765076574,None,783.765076574,None,,,,,,,,,,,,,,,,,,,,,,,,,,,,,,,,,,,,,,,,,,,,001,76,2020_Feb_06_0936,spring_faces,3.1.5,59.98326131102072,
condition files/Stage1_1.xlsx,,T4,B3,m,"['c', 'm']","['Clue', 'Monopoly']","[-0.15, 0.5]","[0.15, 0.5]",1,1,,,,,,,,,0,10,10,10,0,4,4,6,,,,,,,,,,,,,,,,,,,,,,,,,,,,,,,,,,,,,,,,,,,,,,,,,,,,,,,785.731407368,None,785.731407368,None,785.731407368,None,m,1,0.6598171820000971,787.2648918130003,None,787.2648918130003,None,787.2648918130003,None,787.984165763,None,787.984165763,None,787.984165763,None,787.984165763,None,,,,,,,,,,,,,,,,,,,,,,,,,,,,,,,,,,,,,,,,,,,,001,76,2020_Feb_06_0936,spring_faces,3.1.5,59.98326131102072,
condition files/Stage1_1.xlsx,,B1,T2,c,"['c', 'm']","['Clue', 'Monopoly']","[-0.15, 0.5]","[0.15, 0.5]",1,1,,,,,,,,,0,10,10,10,0,5,5,1,,,,,,,,,,,,,,,,,,,,,,,,,,,,,,,,,,,,,,,,,,,,,,,,,,,,,,,789.947835386,None,789.947835386,None,789.947835386,None,c,1,0.6990229230000296,791.4817146790001,None,791.4817146790001,None,791.4817146790001,None,792.23396495,None,792.23396495,None,792.23396495,None,792.23396495,None,,,,,,,,,,,,,,,,,,,,,,,,,,,,,,,,,,,,,,,,,,,,001,76,2020_Feb_06_0936,spring_faces,3.1.5,59.98326131102072,
condition files/Stage1_1.xlsx,,B4,T4,m,"['c', 'm']","['Clue', 'Monopoly']","[-0.15, 0.5]","[0.15, 0.5]",1,1,,,,,,,,,0,10,10,10,0,6,6,7,,,,,,,,,,,,,,,,,,,,,,,,,,,,,,,,,,,,,,,,,,,,,,,,,,,,,,,794.1980896570003,None,794.1980896570003,None,794.1980896570003,None,m,1,0.6399117060000208,795.7329018560004,None,795.7329018560004,None,795.7329018560004,None,796.4485593560003,None,796.4485593560003,None,796.4485593560003,None,796.4485593560003,None,,,,,,,,,,,,,,,,,,,,,,,,,,,,,,,,,,,,,,,,,,,,001,76,2020_Feb_06_0936,spring_faces,3.1.5,59.98326131102072,
condition files/Stage1_1.xlsx,,T1,B1,c,"['c', 'm']","['Clue', 'Monopoly']","[-0.15, 0.5]","[0.15, 0.5]",1,1,,,,,,,,,0,10,10,10,0,7,7,0,,,,,,,,,,,,,,,,,,,,,,,,,,,,,,,,,,,,,,,,,,,,,,,,,,,,,,,798.3981155000001,None,798.3981155000001,None,798.3981155000001,None,c,1,0.6791963720002059,799.9335506910002,None,799.9335506910002,None,799.9335506910002,None,800.6675126610003,None,800.6675126610003,None,800.6675126610003,None,800.6675126610003,None,,,,,,,,,,,,,,,,,,,,,,,,,,,,,,,,,,,,,,,,,,,,001,76,2020_Feb_06_0936,spring_faces,3.1.5,59.98326131102072,
condition files/Stage1_2.xlsx,,B4,T3,c,"['c', 'm']","['Clue', 'Monopoly']","[-0.15, 0.5]","[0.15, 0.5]",1,1,,,,,,,,,0,11,11,11,0,0,0,5,,,,,,,,,,,,,,,,,,,,,,,,,,,,,,,,,,,,,,,,,,,,,,,,,,,,,,,802.6483804940003,None,802.6483804940003,None,802.6483804940003,None,c,1,0.703262194999752,804.1815086810002,None,804.1815086810002,None,804.1815086810002,None,804.948845031,None,804.948845031,None,804.948845031,None,804.948845031,None,,,,,,,,,,,,,,,,,,,,,,,,,,,,,,,,,,,,,,,,,,,,001,76,2020_Feb_06_0936,spring_faces,3.1.5,59.98326131102072,
condition files/Stage1_2.xlsx,,T1,B2,m,"['c', 'm']","['Clue', 'Monopoly']","[-0.15, 0.5]","[0.15, 0.5]",1,1,,,,,,,,,0,11,11,11,0,1,1,2,,,,,,,,,,,,,,,,,,,,,,,,,,,,,,,,,,,,,,,,,,,,,,,,,,,,,,,806.9150469599999,None,806.9150469599999,None,806.9150469599999,None,m,1,0.6277576090001276,808.464942007,None,808.464942007,None,808.464942007,None,809.1498129280003,None,809.1498129280003,None,809.1498129280003,None,809.1498129280003,None,,,,,,,,,,,,,,,,,,,,,,,,,,,,,,,,,,,,,,,,,,,,001,76,2020_Feb_06_0936,spring_faces,3.1.5,59.98326131102072,
condition files/Stage1_2.xlsx,,T4,B4,m,"['c', 'm']","['Clue', 'Monopoly']","[-0.15, 0.5]","[0.15, 0.5]",1,1,,,,,,,,,0,11,11,11,0,2,2,7,,,,,,,,,,,,,,,,,,,,,,,,,,,,,,,,,,,,,,,,,,,,,,,,,,,,,,,811.115107954,None,811.115107954,None,811.115107954,None,m,1,0.715970365999965,812.6647795070003,None,812.6647795070003,None,812.6647795070003,None,813.4324010200003,None,813.4324010200003,None,813.4324010200003,None,813.4324010200003,None,,,,,,,,,,,,,,,,,,,,,,,,,,,,,,,,,,,,,,,,,,,,001,76,2020_Feb_06_0936,spring_faces,3.1.5,59.98326131102072,
condition files/Stage1_2.xlsx,,B1,T1,c,"['c', 'm']","['Clue', 'Monopoly']","[-0.15, 0.5]","[0.15, 0.5]",1,1,,,,,,,,,0,11,11,11,0,3,3,0,,,,,,,,,,,,,,,,,,,,,,,,,,,,,,,,,,,,,,,,,,,,,,,,,,,,,,,815.3985881490003,None,815.3985881490003,None,815.3985881490003,None,c,1,1.5683281100000386,816.9324217510002,None,816.9324217510002,None,816.9324217510002,None,818.5670170170001,None,818.5670170170001,None,818.5670170170001,None,818.5670170170001,None,,,,,,,,,,,,,,,,,,,,,,,,,,,,,,,,,,,,,,,,,,,,001,76,2020_Feb_06_0936,spring_faces,3.1.5,59.98326131102072,
condition files/Stage1_2.xlsx,,T2,B1,c,"['c', 'm']","['Clue', 'Monopoly']","[-0.15, 0.5]","[0.15, 0.5]",1,1,,,,,,,,,0,11,11,11,0,4,4,1,,,,,,,,,,,,,,,,,,,,,,,,,,,,,,,,,,,,,,,,,,,,,,,,,,,,,,,820.531664868,None,820.531664868,None,820.531664868,None,c,1,0.7070371189997786,822.0657941080003,None,822.0657941080003,None,822.0657941080003,None,822.831538768,None,822.831538768,None,822.831538768,None,822.831538768,None,,,,,,,,,,,,,,,,,,,,,,,,,,,,,,,,,,,,,,,,,,,,001,76,2020_Feb_06_0936,spring_faces,3.1.5,59.98326131102072,
condition files/Stage1_2.xlsx,,T3,B3,c,"['c', 'm']","['Clue', 'Monopoly']","[-0.15, 0.5]","[0.15, 0.5]",1,1,,,,,,,,,0,11,11,11,0,5,5,4,,,,,,,,,,,,,,,,,,,,,,,,,,,,,,,,,,,,,,,,,,,,,,,,,,,,,,,824.7986023920002,None,824.7986023920002,None,824.7986023920002,None,c,1,0.9851629270001467,826.331515201,None,826.331515201,None,826.331515201,None,827.3820215670003,None,827.3820215670003,None,827.3820215670003,None,827.3820215670003,None,,,,,,,,,,,,,,,,,,,,,,,,,,,,,,,,,,,,,,,,,,,,001,76,2020_Feb_06_0936,spring_faces,3.1.5,59.98326131102072,
condition files/Stage1_2.xlsx,,B2,T2,m,"['c', 'm']","['Clue', 'Monopoly']","[-0.15, 0.5]","[0.15, 0.5]",1,1,,,,,,,,,0,11,11,11,0,6,6,3,,,,,,,,,,,,,,,,,,,,,,,,,,,,,,,,,,,,,,,,,,,,,,,,,,,,,,,829.347814318,None,829.347814318,None,829.347814318,None,m,1,0.6267308740002591,830.8821482789999,None,830.8821482789999,None,830.8821482789999,None,831.581224344,None,831.581224344,None,831.581224344,None,831.581224344,None,,,,,,,,,,,,,,,,,,,,,,,,,,,,,,,,,,,,,,,,,,,,001,76,2020_Feb_06_0936,spring_faces,3.1.5,59.98326131102072,
condition files/Stage1_2.xlsx,,B3,T4,m,"['c', 'm']","['Clue', 'Monopoly']","[-0.15, 0.5]","[0.15, 0.5]",1,1,,,,,,,,,0,11,11,11,0,7,7,6,,,,,,,,,,,,,,,,,,,,,,,,,,,,,,,,,,,,,,,,,,,,,,,,,,,,,,,833.5311476060001,None,833.5311476060001,None,833.5311476060001,None,m,1,0.6185838249998596,835.0661813280003,None,835.0661813280003,None,835.0661813280003,None,835.7485010380001,None,835.7485010380001,None,835.7485010380001,None,835.7485010380001,None,,,,,,,,,,,,,,,,,,,,,,,,,,,,,,,,,,,,,,,,,,,,001,76,2020_Feb_06_0936,spring_faces,3.1.5,59.98326131102072,
,,,,,,,,,,,,,,,,,,,,,,,,,,,,,,,,,,,,,,,,,,,,,,,,,,,,,,,,,,,,,,,,,,,,,,,,,,,,,,,,,,,,,,,,,,,,,,,,,,,,,,,,,,,,,,,,837.7313551820002,None,space,9.880991205999635,842.7317537120002,None,,,,,,,,,,,,,,,,,,,,,,,,,,,,,,001,76,2020_Feb_06_0936,spring_faces,3.1.5,59.98326131102072,
condition files/Stage2_1.xlsx,,T3,B3,s,"['s', 'r']","['Stratego', 'Risk']","[-0.15, 0.5]","[0.15, 0.5]",1,1,,,,,,,,,,,,,,,,,0,0,0,0,0,0,0,4,,,,,,,,,,,,,,,,,,,,,,,,,,,,,,,,,,,,,,,,,,,,,,,852.6653834350004,None,852.6653834350004,None,852.6653834350004,None,r,0,3.1503044410001166,854.182415535,None,854.182415535,None,854.182415535,None,857.4012347359999,None,857.4012347359999,None,857.4012347359999,None,857.4012347359999,None,,,,,,,,,,,,,,,842.7317537120002,None,,,,,,,,,,,,,,,,,,,,,,,,,,,,001,76,2020_Feb_06_0936,spring_faces,3.1.5,59.98326131102072,
condition files/Stage2_1.xlsx,,B4,T4,r,"['s', 'r']","['Stratego', 'Risk']","[-0.15, 0.5]","[0.15, 0.5]",1,1,,,,,,,,,,,,,,,,,0,0,0,0,0,1,1,5,,,,,,,,,,,,,,,,,,,,,,,,,,,,,,,,,,,,,,,,,,,,,,,859.3652008210006,None,859.3652008210006,None,859.3652008210006,None,r,1,1.7132623689994944,860.9154908229998,None,860.9154908229998,None,860.9154908229998,None,862.698766209,None,862.698766209,None,862.698766209,None,862.698766209,None,,,,,,,,,,,,,,,,,,,,,,,,,,,,,,,,,,,,,,,,,,,,001,76,2020_Feb_06_0936,spring_faces,3.1.5,59.98326131102072,
condition files/Stage2_1.xlsx,,T1,B1,s,"['s', 'r']","['Stratego', 'Risk']","[-0.15, 0.5]","[0.15, 0.5]",1,1,,,,,,,,,,,,,,,,,0,0,0,0,0,2,2,2,,,,,,,,,,,,,,,,,,,,,,,,,,,,,,,,,,,,,,,,,,,,,,,864.6485212769999,None,864.6485212769999,None,864.6485212769999,None,r,0,1.7751750639999955,866.1816529359999,None,866.1816529359999,None,866.1816529359999,None,868.0150328710001,None,868.0150328710001,None,868.0150328710001,None,868.0150328710001,None,,,,,,,,,,,,,,,,,,,,,,,,,,,,,,,,,,,,,,,,,,,,001,76,2020_Feb_06_0936,spring_faces,3.1.5,59.98326131102072,
condition files/Stage2_1.xlsx,,T5,B5,s,"['s', 'r']","['Stratego', 'Risk']","[-0.15, 0.5]","[0.15, 0.5]",1,1,,,,,,,,,,,,,,,,,0,0,0,0,0,3,3,0,,,,,,,,,,,,,,,,,,,,,,,,,,,,,,,,,,,,,,,,,,,,,,,869.9817172400003,None,869.9817172400003,None,869.9817172400003,None,r,0,2.1058594980004273,871.51488458,None,871.51488458,None,871.51488458,None,873.6814169840004,None,873.6814169840004,None,873.6814169840004,None,873.6814169840004,None,,,,,,,,,,,,,,,,,,,,,,,,,,,,,,,,,,,,,,,,,,,,001,76,2020_Feb_06_0936,spring_faces,3.1.5,59.98326131102072,
condition files/Stage2_1.xlsx,,B6,T6,r,"['s', 'r']","['Stratego', 'Risk']","[-0.15, 0.5]","[0.15, 0.5]",1,1,,,,,,,,,,,,,,,,,0,0,0,0,0,4,4,1,,,,,,,,,,,,,,,,,,,,,,,,,,,,,,,,,,,,,,,,,,,,,,,875.6478843099999,None,875.6478843099999,None,875.6478843099999,None,r,1,1.5083642760000657,877.2484433889999,None,877.2484433889999,None,877.2484433889999,None,878.8318562649997,None,878.8318562649997,None,878.8318562649997,None,878.8318562649997,None,,,,,,,,,,,,,,,,,,,,,,,,,,,,,,,,,,,,,,,,,,,,001,76,2020_Feb_06_0936,spring_faces,3.1.5,59.98326131102072,
condition files/Stage2_1.xlsx,,B2,T2,r,"['s', 'r']","['Stratego', 'Risk']","[-0.15, 0.5]","[0.15, 0.5]",1,1,,,,,,,,,,,,,,,,,0,0,0,0,0,5,5,3,,,,,,,,,,,,,,,,,,,,,,,,,,,,,,,,,,,,,,,,,,,,,,,880.7817800120006,None,880.7817800120006,None,880.7817800120006,None,s,0,1.5128429920005146,882.3318980019999,None,882.3318980019999,None,882.3318980019999,None,883.8988982810001,None,883.8988982810001,None,883.8988982810001,None,883.8988982810001,None,,,,,,,,,,,,,,,,,,,,,,,,,,,,,,,,,,,,,,,,,,,,001,76,2020_Feb_06_0936,spring_faces,3.1.5,59.98326131102072,
condition files/Stage2_2.xlsx,,B5,T5,s,"['s', 'r']","['Stratego', 'Risk']","[-0.15, 0.5]","[0.15, 0.5]",1,1,,,,,,,,,,,,,,,,,0,1,1,1,0,0,0,0,,,,,,,,,,,,,,,,,,,,,,,,,,,,,,,,,,,,,,,,,,,,,,,885.8814663670005,None,885.8814663670005,None,885.8814663670005,None,s,1,2.062308311000379,887.4144421630003,None,887.4144421630003,None,887.4144421630003,None,889.5338708459999,None,889.5338708459999,None,889.5338708459999,None,889.5338708459999,None,,,,,,,,,,,,,,,,,,,,,,,,,,,,,,,,,,,,,,,,,,,,001,76,2020_Feb_06_0936,spring_faces,3.1.5,59.98326131102072,
condition files/Stage2_2.xlsx,,T4,B4,r,"['s', 'r']","['Stratego', 'Risk']","[-0.15, 0.5]","[0.15, 0.5]",1,1,,,,,,,,,,,,,,,,,0,1,1,1,0,1,1,5,,,,,,,,,,,,,,,,,,,,,,,,,,,,,,,,,,,,,,,,,,,,,,,891.4985309230001,None,891.4985309230001,None,891.4985309230001,None,r,1,1.8512425310000253,893.0335177540005,None,893.0335177540005,None,893.0335177540005,None,894.9488631340005,None,894.9488631340005,None,894.9488631340005,None,894.9488631340005,None,,,,,,,,,,,,,,,,,,,,,,,,,,,,,,,,,,,,,,,,,,,,001,76,2020_Feb_06_0936,spring_faces,3.1.5,59.98326131102072,
condition files/Stage2_2.xlsx,,B3,T3,s,"['s', 'r']","['Stratego', 'Risk']","[-0.15, 0.5]","[0.15, 0.5]",1,1,,,,,,,,,,,,,,,,,0,1,1,1,0,2,2,4,,,,,,,,,,,,,,,,,,,,,,,,,,,,,,,,,,,,,,,,,,,,,,,896.9150373220004,None,896.9150373220004,None,896.9150373220004,None,s,1,1.1720060830002694,898.4487611380005,None,898.4487611380005,None,898.4487611380005,None,899.6815819630006,None,899.6815819630006,None,899.6815819630006,None,899.6815819630006,None,,,,,,,,,,,,,,,,,,,,,,,,,,,,,,,,,,,,,,,,,,,,001,76,2020_Feb_06_0936,spring_faces,3.1.5,59.98326131102072,
condition files/Stage2_2.xlsx,,T2,B2,r,"['s', 'r']","['Stratego', 'Risk']","[-0.15, 0.5]","[0.15, 0.5]",1,1,,,,,,,,,,,,,,,,,0,1,1,1,0,3,3,3,,,,,,,,,,,,,,,,,,,,,,,,,,,,,,,,,,,,,,,,,,,,,,,901.6484326209998,None,901.6484326209998,None,901.6484326209998,None,r,1,1.4951951559996814,903.1814911790002,None,903.1814911790002,None,903.1814911790002,None,904.7314136850005,None,904.7314136850005,None,904.7314136850005,None,904.7314136850005,None,,,,,,,,,,,,,,,,,,,,,,,,,,,,,,,,,,,,,,,,,,,,001,76,2020_Feb_06_0936,spring_faces,3.1.5,59.98326131102072,
condition files/Stage2_2.xlsx,,B1,T1,s,"['s', 'r']","['Stratego', 'Risk']","[-0.15, 0.5]","[0.15, 0.5]",1,1,,,,,,,,,,,,,,,,,0,1,1,1,0,4,4,2,,,,,,,,,,,,,,,,,,,,,,,,,,,,,,,,,,,,,,,,,,,,,,,906.6979455350006,None,906.6979455350006,None,906.6979455350006,None,s,1,1.1633430890005911,908.2334054050002,None,908.2334054050002,None,908.2334054050002,None,909.4490526889999,None,909.4490526889999,None,909.4490526889999,None,909.4490526889999,None,,,,,,,,,,,,,,,,,,,,,,,,,,,,,,,,,,,,,,,,,,,,001,76,2020_Feb_06_0936,spring_faces,3.1.5,59.98326131102072,
condition files/Stage2_2.xlsx,,T6,B6,r,"['s', 'r']","['Stratego', 'Risk']","[-0.15, 0.5]","[0.15, 0.5]",1,1,,,,,,,,,,,,,,,,,0,1,1,1,0,5,5,1,,,,,,,,,,,,,,,,,,,,,,,,,,,,,,,,,,,,,,,,,,,,,,,911.4147906769999,None,911.4147906769999,None,911.4147906769999,None,r,1,1.1362914290002664,912.9484714590003,None,912.9484714590003,None,912.9484714590003,None,914.14853627,None,914.14853627,None,914.14853627,None,914.14853627,None,,,,,,,,,,,,,,,,,,,,,,,,,,,,,,,,,,,,,,,,,,,,001,76,2020_Feb_06_0936,spring_faces,3.1.5,59.98326131102072,
condition files/Stage2_1.xlsx,,B2,T2,r,"['s', 'r']","['Stratego', 'Risk']","[-0.15, 0.5]","[0.15, 0.5]",1,1,,,,,,,,,,,,,,,,,0,2,2,2,0,0,0,3,,,,,,,,,,,,,,,,,,,,,,,,,,,,,,,,,,,,,,,,,,,,,,,916.13151788,None,916.13151788,None,916.13151788,None,r,1,1.154821809999703,917.6499044490006,None,917.6499044490006,None,917.6499044490006,None,918.8658571620003,None,918.8658571620003,None,918.8658571620003,None,918.8658571620003,None,,,,,,,,,,,,,,,,,,,,,,,,,,,,,,,,,,,,,,,,,,,,001,76,2020_Feb_06_0936,spring_faces,3.1.5,59.98326131102072,
condition files/Stage2_1.xlsx,,B6,T6,r,"['s', 'r']","['Stratego', 'Risk']","[-0.15, 0.5]","[0.15, 0.5]",1,1,,,,,,,,,,,,,,,,,0,2,2,2,0,1,1,1,,,,,,,,,,,,,,,,,,,,,,,,,,,,,,,,,,,,,,,,,,,,,,,920.8317697750003,None,920.8317697750003,None,920.8317697750003,None,r,1,1.0156665829999838,922.3650809559999,None,922.3650809559999,None,922.3650809559999,None,923.4319349570001,None,923.4319349570001,None,923.4319349570001,None,923.4319349570001,None,,,,,,,,,,,,,,,,,,,,,,,,,,,,,,,,,,,,,,,,,,,,001,76,2020_Feb_06_0936,spring_faces,3.1.5,59.98326131102072,
condition files/Stage2_1.xlsx,,T3,B3,s,"['s', 'r']","['Stratego', 'Risk']","[-0.15, 0.5]","[0.15, 0.5]",1,1,,,,,,,,,,,,,,,,,0,2,2,2,0,2,2,4,,,,,,,,,,,,,,,,,,,,,,,,,,,,,,,,,,,,,,,,,,,,,,,925.3978113030003,None,925.3978113030003,None,925.3978113030003,None,s,1,0.9132199929999842,926.9315229910003,None,926.9315229910003,None,926.9315229910003,None,927.9149120950001,None,927.9149120950001,None,927.9149120950001,None,927.9149120950001,None,,,,,,,,,,,,,,,,,,,,,,,,,,,,,,,,,,,,,,,,,,,,001,76,2020_Feb_06_0936,spring_faces,3.1.5,59.98326131102072,
condition files/Stage2_1.xlsx,,T5,B5,s,"['s', 'r']","['Stratego', 'Risk']","[-0.15, 0.5]","[0.15, 0.5]",1,1,,,,,,,,,,,,,,,,,0,2,2,2,0,3,3,0,,,,,,,,,,,,,,,,,,,,,,,,,,,,,,,,,,,,,,,,,,,,,,,929.8645453040003,None,929.8645453040003,None,929.8645453040003,None,s,1,1.3908484460007458,931.3979779240003,None,931.3979779240003,None,931.3979779240003,None,932.8485221000005,None,932.8485221000005,None,932.8485221000005,None,932.8485221000005,None,,,,,,,,,,,,,,,,,,,,,,,,,,,,,,,,,,,,,,,,,,,,001,76,2020_Feb_06_0936,spring_faces,3.1.5,59.98326131102072,
condition files/Stage2_1.xlsx,,B4,T4,r,"['s', 'r']","['Stratego', 'Risk']","[-0.15, 0.5]","[0.15, 0.5]",1,1,,,,,,,,,,,,,,,,,0,2,2,2,0,4,4,5,,,,,,,,,,,,,,,,,,,,,,,,,,,,,,,,,,,,,,,,,,,,,,,934.8146716920005,None,934.8146716920005,None,934.8146716920005,None,r,1,1.303469646000849,936.3652752980001,None,936.3652752980001,None,936.3652752980001,None,937.7328252729999,None,937.7328252729999,None,937.7328252729999,None,937.7328252729999,None,,,,,,,,,,,,,,,,,,,,,,,,,,,,,,,,,,,,,,,,,,,,001,76,2020_Feb_06_0936,spring_faces,3.1.5,59.98326131102072,
condition files/Stage2_1.xlsx,,T1,B1,s,"['s', 'r']","['Stratego', 'Risk']","[-0.15, 0.5]","[0.15, 0.5]",1,1,,,,,,,,,,,,,,,,,0,2,2,2,0,5,5,2,,,,,,,,,,,,,,,,,,,,,,,,,,,,,,,,,,,,,,,,,,,,,,,939.6985697980003,None,939.6985697980003,None,939.6985697980003,None,s,1,0.9163148999996338,941.2484191919998,None,941.2484191919998,None,941.2484191919998,None,942.2148289279999,None,942.2148289279999,None,942.2148289279999,None,942.2148289279999,None,,,,,,,,,,,,,,,,,,,,,,,,,,,,,,,,,,,,,,,,,,,,001,76,2020_Feb_06_0936,spring_faces,3.1.5,59.98326131102072,
condition files/Stage2_2.xlsx,,T2,B2,r,"['s', 'r']","['Stratego', 'Risk']","[-0.15, 0.5]","[0.15, 0.5]",1,1,,,,,,,,,,,,,,,,,0,3,3,3,0,0,0,3,,,,,,,,,,,,,,,,,,,,,,,,,,,,,,,,,,,,,,,,,,,,,,,944.1984262359997,None,944.1984262359997,None,944.1984262359997,None,r,1,0.9599261280000064,945.732848014,None,945.732848014,None,945.732848014,None,946.7653372560003,None,946.7653372560003,None,946.7653372560003,None,946.7653372560003,None,,,,,,,,,,,,,,,,,,,,,,,,,,,,,,,,,,,,,,,,,,,,001,76,2020_Feb_06_0936,spring_faces,3.1.5,59.98326131102072,
condition files/Stage2_2.xlsx,,B3,T3,s,"['s', 'r']","['Stratego', 'Risk']","[-0.15, 0.5]","[0.15, 0.5]",1,1,,,,,,,,,,,,,,,,,0,3,3,3,0,1,1,4,,,,,,,,,,,,,,,,,,,,,,,,,,,,,,,,,,,,,,,,,,,,,,,948.714933533,None,948.714933533,None,948.714933533,None,s,1,0.9724585900003149,950.2482888039999,None,950.2482888039999,None,950.2482888039999,None,951.2989511219998,None,951.2989511219998,None,951.2989511219998,None,951.2989511219998,None,,,,,,,,,,,,,,,,,,,,,,,,,,,,,,,,,,,,,,,,,,,,001,76,2020_Feb_06_0936,spring_faces,3.1.5,59.98326131102072,
condition files/Stage2_2.xlsx,,T6,B6,r,"['s', 'r']","['Stratego', 'Risk']","[-0.15, 0.5]","[0.15, 0.5]",1,1,,,,,,,,,,,,,,,,,0,3,3,3,0,2,2,1,,,,,,,,,,,,,,,,,,,,,,,,,,,,,,,,,,,,,,,,,,,,,,,953.248784635,None,953.248784635,None,953.248784635,None,r,1,1.0303852679999181,954.798279999,None,954.798279999,None,954.798279999,None,955.8843392200001,None,955.8843392200001,None,955.8843392200001,None,955.8843392200001,None,,,,,,,,,,,,,,,,,,,,,,,,,,,,,,,,,,,,,,,,,,,,001,76,2020_Feb_06_0936,spring_faces,3.1.5,59.98326131102072,
condition files/Stage2_2.xlsx,,B5,T5,s,"['s', 'r']","['Stratego', 'Risk']","[-0.15, 0.5]","[0.15, 0.5]",1,1,,,,,,,,,,,,,,,,,0,3,3,3,0,3,3,0,,,,,,,,,,,,,,,,,,,,,,,,,,,,,,,,,,,,,,,,,,,,,,,957.8483877989997,None,957.8483877989997,None,957.8483877989997,None,s,1,0.8310031730006813,959.3817316700001,None,959.3817316700001,None,959.3817316700001,None,960.2653153960005,None,960.2653153960005,None,960.2653153960005,None,960.2653153960005,None,,,,,,,,,,,,,,,,,,,,,,,,,,,,,,,,,,,,,,,,,,,,001,76,2020_Feb_06_0936,spring_faces,3.1.5,59.98326131102072,
condition files/Stage2_2.xlsx,,B1,T1,s,"['s', 'r']","['Stratego', 'Risk']","[-0.15, 0.5]","[0.15, 0.5]",1,1,,,,,,,,,,,,,,,,,0,3,3,3,0,4,4,2,,,,,,,,,,,,,,,,,,,,,,,,,,,,,,,,,,,,,,,,,,,,,,,962.2317954499999,None,962.2317954499999,None,962.2317954499999,None,s,1,1.967586830000073,963.7651298329997,None,963.7651298329997,None,963.7651298329997,None,965.7990109500001,None,965.7990109500001,None,965.7990109500001,None,965.7990109500001,None,,,,,,,,,,,,,,,,,,,,,,,,,,,,,,,,,,,,,,,,,,,,001,76,2020_Feb_06_0936,spring_faces,3.1.5,59.98326131102072,
condition files/Stage2_2.xlsx,,T4,B4,r,"['s', 'r']","['Stratego', 'Risk']","[-0.15, 0.5]","[0.15, 0.5]",1,1,,,,,,,,,,,,,,,,,0,3,3,3,0,5,5,5,,,,,,,,,,,,,,,,,,,,,,,,,,,,,,,,,,,,,,,,,,,,,,,967.7649733720004,None,967.7649733720004,None,967.7649733720004,None,r,1,0.9302881879993947,969.2985849900001,None,969.2985849900001,None,969.2985849900001,None,970.283352297,None,970.283352297,None,970.283352297,None,970.283352297,None,,,,,,,,,,,,,,,,,,,,,,,,,,,,,,,,,,,,,,,,,,,,001,76,2020_Feb_06_0936,spring_faces,3.1.5,59.98326131102072,
condition files/Stage2_1.xlsx,,T1,B1,s,"['s', 'r']","['Stratego', 'Risk']","[-0.15, 0.5]","[0.15, 0.5]",1,1,,,,,,,,,,,,,,,,,0,4,4,4,0,0,0,2,,,,,,,,,,,,,,,,,,,,,,,,,,,,,,,,,,,,,,,,,,,,,,,972.2648944349999,None,972.2648944349999,None,972.2648944349999,None,s,1,0.8142345750002278,973.7985212600001,None,973.7985212600001,None,973.7985212600001,None,974.6821777689997,None,974.6821777689997,None,974.6821777689997,None,974.6821777689997,None,,,,,,,,,,,,,,,,,,,,,,,,,,,,,,,,,,,,,,,,,,,,001,76,2020_Feb_06_0936,spring_faces,3.1.5,59.98326131102072,
condition files/Stage2_1.xlsx,,T5,B5,s,"['s', 'r']","['Stratego', 'Risk']","[-0.15, 0.5]","[0.15, 0.5]",1,1,,,,,,,,,,,,,,,,,0,4,4,4,0,1,1,0,,,,,,,,,,,,,,,,,,,,,,,,,,,,,,,,,,,,,,,,,,,,,,,976.631039638,None,976.631039638,None,976.631039638,None,s,1,1.4379451919994608,978.166877403,None,978.166877403,None,978.166877403,None,979.6650557059997,None,979.6650557059997,None,979.6650557059997,None,979.6650557059997,None,,,,,,,,,,,,,,,,,,,,,,,,,,,,,,,,,,,,,,,,,,,,001,76,2020_Feb_06_0936,spring_faces,3.1.5,59.98326131102072,
condition files/Stage2_1.xlsx,,B4,T4,r,"['s', 'r']","['Stratego', 'Risk']","[-0.15, 0.5]","[0.15, 0.5]",1,1,,,,,,,,,,,,,,,,,0,4,4,4,0,2,2,5,,,,,,,,,,,,,,,,,,,,,,,,,,,,,,,,,,,,,,,,,,,,,,,981.631909276,None,981.631909276,None,981.631909276,None,r,1,0.8712979530000666,983.1654686040006,None,983.1654686040006,None,983.1654686040006,None,984.0982485239997,None,984.0982485239997,None,984.0982485239997,None,984.0982485239997,None,,,,,,,,,,,,,,,,,,,,,,,,,,,,,,,,,,,,,,,,,,,,001,76,2020_Feb_06_0936,spring_faces,3.1.5,59.98326131102072,
condition files/Stage2_1.xlsx,,B6,T6,r,"['s', 'r']","['Stratego', 'Risk']","[-0.15, 0.5]","[0.15, 0.5]",1,1,,,,,,,,,,,,,,,,,0,4,4,4,0,3,3,1,,,,,,,,,,,,,,,,,,,,,,,,,,,,,,,,,,,,,,,,,,,,,,,986.0650519579999,None,986.0650519579999,None,986.0650519579999,None,r,1,1.0466990819995772,987.5980703540004,None,987.5980703540004,None,987.5980703540004,None,988.698548326,None,988.698548326,None,988.698548326,None,988.698548326,None,,,,,,,,,,,,,,,,,,,,,,,,,,,,,,,,,,,,,,,,,,,,001,76,2020_Feb_06_0936,spring_faces,3.1.5,59.98326131102072,
condition files/Stage2_1.xlsx,,B2,T2,r,"['s', 'r']","['Stratego', 'Risk']","[-0.15, 0.5]","[0.15, 0.5]",1,1,,,,,,,,,,,,,,,,,0,4,4,4,0,4,4,3,,,,,,,,,,,,,,,,,,,,,,,,,,,,,,,,,,,,,,,,,,,,,,,990.6653675620005,None,990.6653675620005,None,990.6653675620005,None,r,1,1.2125715980000678,992.2001774080004,None,992.2001774080004,None,992.2001774080004,None,993.4654526480003,None,993.4654526480003,None,993.4654526480003,None,993.4654526480003,None,,,,,,,,,,,,,,,,,,,,,,,,,,,,,,,,,,,,,,,,,,,,001,76,2020_Feb_06_0936,spring_faces,3.1.5,59.98326131102072,
condition files/Stage2_1.xlsx,,T3,B3,s,"['s', 'r']","['Stratego', 'Risk']","[-0.15, 0.5]","[0.15, 0.5]",1,1,,,,,,,,,,,,,,,,,0,4,4,4,0,5,5,4,,,,,,,,,,,,,,,,,,,,,,,,,,,,,,,,,,,,,,,,,,,,,,,995.4310879640002,None,995.4310879640002,None,995.4310879640002,None,s,1,0.8473857700000735,996.9653670760003,None,996.9653670760003,None,996.9653670760003,None,997.8646833389998,None,997.8646833389998,None,997.8646833389998,None,997.8646833389998,None,,,,,,,,,,,,,,,,,,,,,,,,,,,,,,,,,,,,,,,,,,,,001,76,2020_Feb_06_0936,spring_faces,3.1.5,59.98326131102072,
