condsFile,subStage,cue1,cue2,correct,responseKeys,responseNames,cue1Position,cue2Position,cue1Opacity,cue2Opacity,stageLoop0.thisRepN,stageLoop0.thisTrialN,stageLoop0.thisN,stageLoop0.thisIndex,blockLoop0.thisRepN,blockLoop0.thisTrialN,blockLoop0.thisN,blockLoop0.thisIndex,stage1Loop.thisRepN,stage1Loop.thisTrialN,stage1Loop.thisN,stage1Loop.thisIndex,blockLoop1.thisRepN,blockLoop1.thisTrialN,blockLoop1.thisN,blockLoop1.thisIndex,stage2Loop.thisRepN,stage2Loop.thisTrialN,stage2Loop.thisN,stage2Loop.thisIndex,blockLoop2.thisRepN,blockLoop2.thisTrialN,blockLoop2.thisN,blockLoop2.thisIndex,testLoop.thisRepN,testLoop.thisTrialN,testLoop.thisN,testLoop.thisIndex,blockLoopTest.thisRepN,blockLoopTest.thisTrialN,blockLoopTest.thisN,blockLoopTest.thisIndex,cuePics,id_instr_text.started,id_instr_text.stopped,space_to_continue_2.started,space_to_continue_2.stopped,end_instructions_resp_3.keys,end_instructions_resp_3.rt,end_instructions_resp_3.started,end_instructions_resp_3.stopped,id_input_instr.started,id_input_instr.stopped,id_input_rect.started,id_input_rect.stopped,id_input_resp.keys,id_input_resp.rt,id_input_resp.started,id_input_resp.stopped,sonaID,id_input_text.started,id_input_text.stopped,final_text.started,final_text.stopped,instructions.started,instructions.stopped,end_instructions_resp.keys,end_instructions_resp.rt,end_instructions_resp.started,end_instructions_resp.stopped,space_to_continue.started,space_to_continue.stopped,instructions_stage0.started,instructions_stage0.stopped,end_instructions_resp_stage0.keys,end_instructions_resp_stage0.rt,end_instructions_resp_stage0.started,end_instructions_resp_stage0.stopped,space_to_continue_stage0.started,space_to_continue_stage0.stopped,text.started,text.stopped,resp_text1.started,resp_text1.stopped,resp_text2.started,resp_text2.stopped,trial_resp.keys,trial_resp.corr,trial_resp.rt,trial_resp.started,trial_resp.stopped,cue1Image.started,cue1Image.stopped,cue2Image.started,cue2Image.stopped,cue1Image_fb.started,cue1Image_fb.stopped,cue2Image_fb.started,cue2Image_fb.stopped,fb_text_answer.started,fb_text_answer.stopped,feedback_image.started,feedback_image.stopped,instructions_stage1.started,instructions_stage1.stopped,end_instructions_resp_stage1.keys,end_instructions_resp_stage1.rt,end_instructions_resp_stage1.started,end_instructions_resp_stage1.stopped,space_to_continue_stage1.started,space_to_continue_stage1.stopped,instructions_2.started,instructions_2.stopped,end_instructions_resp_2.keys,end_instructions_resp_2.rt,end_instructions_resp_2.started,end_instructions_resp_2.stopped,press_space_to_continue_stage2.started,press_space_to_continue_stage2.stopped,instructions_testStage1.started,instructions_testStage1.stopped,end_instructions_resp_test1.keys,end_instructions_resp_test1.rt,end_instructions_resp_test1.started,end_instructions_resp_test1.stopped,press_space_to_continue_test1.started,press_space_to_continue_test1.stopped,cue1Image_testChoice.started,cue1Image_testChoice.stopped,cue2Image_testChoice.started,cue2Image_testChoice.stopped,test_resp.keys,test_resp.corr,test_resp.rt,test_resp.started,test_resp.stopped,cue1Image_testConf.started,cue1Image_testConf.stopped,cue2Image_testConf.started,cue2Image_testConf.stopped,conf_reminder.started,conf_reminder.stopped,conf_rating.response,conf_rating.rt,conf_rating.started,conf_rating.stopped,session,participant,date,expName,psychopyVersion,frameRate,
,,,,,,,,,,,,,,,,,,,,,,,,,,,,,,,,,,,,,,,,,,,"{'none': 'pictures/20M_AN_C.png', 'alpha': 'pictures/SHINEd_pear.png', 'beta': 'pictures/SHINEd_apple.png', 'theta': 'pictures/SHINEd_melon.png', 'phi': 'pictures/SHINEd_pepper.png', 'T1': 'pictures/26M_AN_C.png', 'T2': 'pictures/22M_AN_C.png', 'T3': 'pictures/31M_AN_C.png', 'T4': 'pictures/34M_AN_C.png', 'T5': 'pictures/23M_AN_C.png', 'T6': 'pictures/25M_AN_C.png', 'B1': 'pictures/20M_NE_C.png', 'B2': 'pictures/38M_NE_C.png', 'B3': 'pictures/33M_NE_C.png', 'B4': 'pictures/32M_NE_C.png', 'B5': 'pictures/36M_NE_C.png', 'B6': 'pictures/37M_NE_C.png'}",33.34157485899959,None,38.324771921999854,None,space,18.459575526000663,38.324771921999854,None,,,,,,,,,,,,,,,,,,,,,,,,,,,,,,,,,,,,,,,,,,,,,,,,,,,,,,,,,,,,,,,,,,,,,,,,,,,,,,,,,,,,,,,,,,,,,,,,001,78,2020_Feb_06_0958,spring_faces,3.1.5,60.04732065146866,
,,,,,,,,,,,,,,,,,,,,,,,,,,,,,,,,,,,,,,,,,,,,,,,,,,,,57.175047762999384,None,57.175047762999384,None,"['0', '5', '0', '7', 'j', 'e', 'l', 'a', 'k']","[10.425407312000061, 10.53735013900041, 13.305346008000015, 13.433265069999834, 17.641404789000262, 17.753346366999722, 27.641402340999775, 27.817304993000107, 27.97730775400032]",57.175047762999384,None,,,,,,,,,,,,,,,,,,,,,,,,,,,,,,,,,,,,,,,,,,,,,,,,,,,,,,,,,,,,,,,,,,,,,,,,,,,,,,,,,,,,,,,,001,78,2020_Feb_06_0958,spring_faces,3.1.5,60.04732065146866,
,,,,,,,,,,,,,,,,,,,,,,,,,,,,,,,,,,,,,,,,,,,,,,,,,,,,,,,,,,,,0507jelak,57.175047762999384,None,57.175047762999384,None,90.2245598999998,None,space,1.5276746030003778,95.22472399599974,None,,,,,,,,,,,,,,,,,,,,,,,,,,,,,,,,,,,,,,,,,,,,,,,,,,,,,,,,,,,,,,,,,,,,,,,,,,,,,001,78,2020_Feb_06_0958,spring_faces,3.1.5,60.04732065146866,
,,,,,,,,,,,,,,,,,,,,,,,,,,,,,,,,,,,,,,,,,,,,,,,,,,,,,,,,,,,,,,,,,,,,,,,95.22472399599974,None,96.79200690800008,None,space,5.472906684000009,101.79156503899958,None,,,,,,,,,,,,,,,,,,,,,,,,,,,,,,,,,,,,,,,,,,,,,,,,,,,,,,,,,,,,,,,,,,,,,001,78,2020_Feb_06_0958,spring_faces,3.1.5,60.04732065146866,
condition files/Stage0a.xlsx,0a,beta,none,g,"['h', 'g']","['Chess', 'Go']","[0, 0.5]","[0, 0]",1,0,0,0,0,0,0,0,0,1,,,,,,,,,,,,,,,,,,,,,,,,,,,,,,,,,,,,,,,,,,,,,,,,,,,,,,,,,,,,,101.79156503899958,None,107.32506778100014,None,107.32506778100014,None,107.32506778100014,None,g,1,3.8601275880000685,108.90833808599928,None,108.90833808599928,None,108.90833808599928,None,112.8417862209999,None,112.8417862209999,None,112.8417862209999,None,112.8417862209999,None,,,,,,,,,,,,,,,,,,,,,,,,,,,,,,,,,,,,,,,,,,,,001,78,2020_Feb_06_0958,spring_faces,3.1.5,60.04732065146866,
condition files/Stage0a.xlsx,0a,alpha,none,h,"['h', 'g']","['Chess', 'Go']","[0, 0.5]","[0, 0]",1,0,0,0,0,0,0,1,1,0,,,,,,,,,,,,,,,,,,,,,,,,,,,,,,,,,,,,,,,,,,,,,,,,,,,,,,,,,,,,,,,114.79177338199952,None,114.79177338199952,None,114.79177338199952,None,g,0,4.921701865000614,116.32676008099952,None,116.32676008099952,None,116.32676008099952,None,121.30873043099928,None,121.30873043099928,None,121.30873043099928,None,121.30873043099928,None,,,,,,,,,,,,,,,,,,,,,,,,,,,,,,,,,,,,,,,,,,,,001,78,2020_Feb_06_0958,spring_faces,3.1.5,60.04732065146866,
condition files/Stage0a.xlsx,0a,beta,none,g,"['h', 'g']","['Chess', 'Go']","[0, 0.5]","[0, 0]",1,0,0,1,1,1,0,0,0,1,,,,,,,,,,,,,,,,,,,,,,,,,,,,,,,,,,,,,,,,,,,,,,,,,,,,,,,,,,,,,,,123.29161355399992,None,123.29161355399992,None,123.29161355399992,None,g,1,1.1441203369995492,124.82434653699966,None,124.82434653699966,None,124.82434653699966,None,126.02464060900002,None,126.02464060900002,None,126.02464060900002,None,126.02464060900002,None,,,,,,,,,,,,,,,,,,,,,,,,,,,,,,,,,,,,,,,,,,,,001,78,2020_Feb_06_0958,spring_faces,3.1.5,60.04732065146866,
condition files/Stage0a.xlsx,0a,alpha,none,h,"['h', 'g']","['Chess', 'Go']","[0, 0.5]","[0, 0]",1,0,0,1,1,1,0,1,1,0,,,,,,,,,,,,,,,,,,,,,,,,,,,,,,,,,,,,,,,,,,,,,,,,,,,,,,,,,,,,,,,127.99198656399949,None,127.99198656399949,None,127.99198656399949,None,h,1,0.6993031410002004,129.52506350399926,None,129.52506350399926,None,129.52506350399926,None,130.27448805099993,None,130.27448805099993,None,130.27448805099993,None,130.27448805099993,None,,,,,,,,,,,,,,,,,,,,,,,,,,,,,,,,,,,,,,,,,,,,001,78,2020_Feb_06_0958,spring_faces,3.1.5,60.04732065146866,
condition files/Stage0a.xlsx,0a,beta,none,g,"['h', 'g']","['Chess', 'Go']","[0, 0.5]","[0, 0]",1,0,0,2,2,2,0,0,0,1,,,,,,,,,,,,,,,,,,,,,,,,,,,,,,,,,,,,,,,,,,,,,,,,,,,,,,,,,,,,,,,132.25845272700008,None,132.25845272700008,None,132.25845272700008,None,g,1,1.153276841000661,133.7911365789996,None,133.7911365789996,None,133.7911365789996,None,135.00810799699957,None,135.00810799699957,None,135.00810799699957,None,135.00810799699957,None,,,,,,,,,,,,,,,,,,,,,,,,,,,,,,,,,,,,,,,,,,,,001,78,2020_Feb_06_0958,spring_faces,3.1.5,60.04732065146866,
condition files/Stage0a.xlsx,0a,alpha,none,h,"['h', 'g']","['Chess', 'Go']","[0, 0.5]","[0, 0]",1,0,0,2,2,2,0,1,1,0,,,,,,,,,,,,,,,,,,,,,,,,,,,,,,,,,,,,,,,,,,,,,,,,,,,,,,,,,,,,,,,136.9749862869994,None,136.9749862869994,None,136.9749862869994,None,h,1,0.8519369199993889,138.5084601919998,None,138.5084601919998,None,138.5084601919998,None,139.42447077299948,None,139.42447077299948,None,139.42447077299948,None,139.42447077299948,None,,,,,,,,,,,,,,,,,,,,,,,,,,,,,,,,,,,,,,,,,,,,001,78,2020_Feb_06_0958,spring_faces,3.1.5,60.04732065146866,
condition files/Stage0a.xlsx,0a,alpha,none,h,"['h', 'g']","['Chess', 'Go']","[0, 0.5]","[0, 0]",1,0,0,3,3,3,0,0,0,0,,,,,,,,,,,,,,,,,,,,,,,,,,,,,,,,,,,,,,,,,,,,,,,,,,,,,,,,,,,,,,,141.40847173099974,None,141.40847173099974,None,141.40847173099974,None,h,1,1.0897337670003253,142.9587249669994,None,142.9587249669994,None,142.9587249669994,None,144.1082100019994,None,144.1082100019994,None,144.1082100019994,None,144.1082100019994,None,,,,,,,,,,,,,,,,,,,,,,,,,,,,,,,,,,,,,,,,,,,,001,78,2020_Feb_06_0958,spring_faces,3.1.5,60.04732065146866,
condition files/Stage0a.xlsx,0a,beta,none,g,"['h', 'g']","['Chess', 'Go']","[0, 0.5]","[0, 0]",1,0,0,3,3,3,0,1,1,1,,,,,,,,,,,,,,,,,,,,,,,,,,,,,,,,,,,,,,,,,,,,,,,,,,,,,,,,,,,,,,,146.07478562699998,None,146.07478562699998,None,146.07478562699998,None,g,1,0.42471491800006334,147.60772744599944,None,147.60772744599944,None,147.60772744599944,None,148.0916126839993,None,148.0916126839993,None,148.0916126839993,None,148.0916126839993,None,,,,,,,,,,,,,,,,,,,,,,,,,,,,,,,,,,,,,,,,,,,,001,78,2020_Feb_06_0958,spring_faces,3.1.5,60.04732065146866,
condition files/Stage0a.xlsx,0a,beta,none,g,"['h', 'g']","['Chess', 'Go']","[0, 0.5]","[0, 0]",1,0,0,4,4,4,0,0,0,1,,,,,,,,,,,,,,,,,,,,,,,,,,,,,,,,,,,,,,,,,,,,,,,,,,,,,,,,,,,,,,,150.07511626299947,None,150.07511626299947,None,150.07511626299947,None,g,1,0.7122137659998771,151.60819108299984,None,151.60819108299984,None,151.60819108299984,None,152.3750881019996,None,152.3750881019996,None,152.3750881019996,None,152.3750881019996,None,,,,,,,,,,,,,,,,,,,,,,,,,,,,,,,,,,,,,,,,,,,,001,78,2020_Feb_06_0958,spring_faces,3.1.5,60.04732065146866,
condition files/Stage0a.xlsx,0a,alpha,none,h,"['h', 'g']","['Chess', 'Go']","[0, 0.5]","[0, 0]",1,0,0,4,4,4,0,1,1,0,,,,,,,,,,,,,,,,,,,,,,,,,,,,,,,,,,,,,,,,,,,,,,,,,,,,,,,,,,,,,,,154.3419418959993,None,154.3419418959993,None,154.3419418959993,None,h,1,0.3980817660003595,155.87430192699958,None,155.87430192699958,None,155.87430192699958,None,156.32479317099933,None,156.32479317099933,None,156.32479317099933,None,156.32479317099933,None,,,,,,,,,,,,,,,,,,,,,,,,,,,,,,,,,,,,,,,,,,,,001,78,2020_Feb_06_0958,spring_faces,3.1.5,60.04732065146866,
condition files/Stage0a.xlsx,0a,beta,none,g,"['h', 'g']","['Chess', 'Go']","[0, 0.5]","[0, 0]",1,0,0,5,5,5,0,0,0,1,,,,,,,,,,,,,,,,,,,,,,,,,,,,,,,,,,,,,,,,,,,,,,,,,,,,,,,,,,,,,,,158.30840822499977,None,158.30840822499977,None,158.30840822499977,None,g,1,0.5587312939996991,159.84173830300006,None,159.84173830300006,None,159.84173830300006,None,160.45801896099965,None,160.45801896099965,None,160.45801896099965,None,160.45801896099965,None,,,,,,,,,,,,,,,,,,,,,,,,,,,,,,,,,,,,,,,,,,,,001,78,2020_Feb_06_0958,spring_faces,3.1.5,60.04732065146866,
condition files/Stage0a.xlsx,0a,alpha,none,h,"['h', 'g']","['Chess', 'Go']","[0, 0.5]","[0, 0]",1,0,0,5,5,5,0,1,1,0,,,,,,,,,,,,,,,,,,,,,,,,,,,,,,,,,,,,,,,,,,,,,,,,,,,,,,,,,,,,,,,162.42475863099935,None,162.42475863099935,None,162.42475863099935,None,h,1,0.6661709499994686,163.95821023499957,None,163.95821023499957,None,163.95821023499957,None,164.67478918100005,None,164.67478918100005,None,164.67478918100005,None,164.67478918100005,None,,,,,,,,,,,,,,,,,,,,,,,,,,,,,,,,,,,,,,,,,,,,001,78,2020_Feb_06_0958,spring_faces,3.1.5,60.04732065146866,
condition files/Stage0b_1.xlsx,0b,alpha,none,h,"['h', 'g']","['Chess', 'Go']","[-0.15, 0.5]","[0.15, 0.5]",1,0,0,6,6,6,0,0,0,0,,,,,,,,,,,,,,,,,,,,,,,,,,,,,,,,,,,,,,,,,,,,,,,,,,,,,,,,,,,,,,,166.65838137599985,None,166.65838137599985,None,166.65838137599985,None,h,1,0.8176307349995113,168.1907406649998,None,168.1907406649998,None,168.1907406649998,None,169.05842047899932,None,169.05842047899932,None,169.05842047899932,None,169.05842047899932,None,,,,,,,,,,,,,,,,,,,,,,,,,,,,,,,,,,,,,,,,,,,,001,78,2020_Feb_06_0958,spring_faces,3.1.5,60.04732065146866,
condition files/Stage0b_1.xlsx,0b,none,beta,g,"['h', 'g']","['Chess', 'Go']","[-0.15, 0.5]","[0.15, 0.5]",0,1,0,6,6,6,0,1,1,1,,,,,,,,,,,,,,,,,,,,,,,,,,,,,,,,,,,,,,,,,,,,,,,,,,,,,,,,,,,,,,,171.0247507969998,None,171.0247507969998,None,171.0247507969998,None,g,1,0.6892367179998473,172.57515491899994,None,172.57515491899994,None,172.57515491899994,None,173.32864715300002,None,173.32864715300002,None,173.32864715300002,None,173.32864715300002,None,,,,,,,,,,,,,,,,,,,,,,,,,,,,,,,,,,,,,,,,,,,,001,78,2020_Feb_06_0958,spring_faces,3.1.5,60.04732065146866,
condition files/Stage0b_2.xlsx,0b,none,alpha,h,"['h', 'g']","['Chess', 'Go']","[-0.15, 0.5]","[0.15, 0.5]",0,1,0,7,7,7,0,0,0,0,,,,,,,,,,,,,,,,,,,,,,,,,,,,,,,,,,,,,,,,,,,,,,,,,,,,,,,,,,,,,,,175.30795346899959,None,175.30795346899959,None,175.30795346899959,None,h,1,0.6144312189999255,176.84197198999937,None,176.84197198999937,None,176.84197198999937,None,177.50865341200006,None,177.50865341200006,None,177.50865341200006,None,177.50865341200006,None,,,,,,,,,,,,,,,,,,,,,,,,,,,,,,,,,,,,,,,,,,,,001,78,2020_Feb_06_0958,spring_faces,3.1.5,60.04732065146866,
condition files/Stage0b_2.xlsx,0b,beta,none,g,"['h', 'g']","['Chess', 'Go']","[-0.15, 0.5]","[0.15, 0.5]",1,0,0,7,7,7,0,1,1,1,,,,,,,,,,,,,,,,,,,,,,,,,,,,,,,,,,,,,,,,,,,,,,,,,,,,,,,,,,,,,,,179.47434367699952,None,179.47434367699952,None,179.47434367699952,None,g,1,0.3513687549993847,181.0249595589994,None,181.0249595589994,None,181.0249595589994,None,181.44330160899972,None,181.44330160899972,None,181.44330160899972,None,181.44330160899972,None,,,,,,,,,,,,,,,,,,,,,,,,,,,,,,,,,,,,,,,,,,,,001,78,2020_Feb_06_0958,spring_faces,3.1.5,60.04732065146866,
condition files/Stage0b_1.xlsx,0b,alpha,none,h,"['h', 'g']","['Chess', 'Go']","[-0.15, 0.5]","[0.15, 0.5]",1,0,0,8,8,8,0,0,0,0,,,,,,,,,,,,,,,,,,,,,,,,,,,,,,,,,,,,,,,,,,,,,,,,,,,,,,,,,,,,,,,183.42472708999958,None,183.42472708999958,None,183.42472708999958,None,h,1,0.5461759510008051,184.95821869299925,None,184.95821869299925,None,184.95821869299925,None,185.5581187329999,None,185.5581187329999,None,185.5581187329999,None,185.5581187329999,None,,,,,,,,,,,,,,,,,,,,,,,,,,,,,,,,,,,,,,,,,,,,001,78,2020_Feb_06_0958,spring_faces,3.1.5,60.04732065146866,
condition files/Stage0b_1.xlsx,0b,none,beta,g,"['h', 'g']","['Chess', 'Go']","[-0.15, 0.5]","[0.15, 0.5]",0,1,0,8,8,8,0,1,1,1,,,,,,,,,,,,,,,,,,,,,,,,,,,,,,,,,,,,,,,,,,,,,,,,,,,,,,,,,,,,,,,187.52522759899966,None,187.52522759899966,None,187.52522759899966,None,h,0,0.34519813199949567,189.06318917499993,None,189.06318917499993,None,189.06318917499993,None,189.4628696359996,None,189.4628696359996,None,189.4628696359996,None,189.4628696359996,None,,,,,,,,,,,,,,,,,,,,,,,,,,,,,,,,,,,,,,,,,,,,001,78,2020_Feb_06_0958,spring_faces,3.1.5,60.04732065146866,
condition files/Stage0b_2.xlsx,0b,beta,none,g,"['h', 'g']","['Chess', 'Go']","[-0.15, 0.5]","[0.15, 0.5]",1,0,0,9,9,9,0,0,0,1,,,,,,,,,,,,,,,,,,,,,,,,,,,,,,,,,,,,,,,,,,,,,,,,,,,,,,,,,,,,,,,191.4417563369998,None,191.4417563369998,None,191.4417563369998,None,g,1,0.7524027619992921,192.97601205699993,None,192.97601205699993,None,192.97601205699993,None,193.7914135379997,None,193.7914135379997,None,193.7914135379997,None,193.7914135379997,None,,,,,,,,,,,,,,,,,,,,,,,,,,,,,,,,,,,,,,,,,,,,001,78,2020_Feb_06_0958,spring_faces,3.1.5,60.04732065146866,
condition files/Stage0b_2.xlsx,0b,none,alpha,h,"['h', 'g']","['Chess', 'Go']","[-0.15, 0.5]","[0.15, 0.5]",0,1,0,9,9,9,0,1,1,0,,,,,,,,,,,,,,,,,,,,,,,,,,,,,,,,,,,,,,,,,,,,,,,,,,,,,,,,,,,,,,,195.7579087389995,None,195.7579087389995,None,195.7579087389995,None,h,1,1.3955807860002096,197.29294255700006,None,197.29294255700006,None,197.29294255700006,None,198.74202532099935,None,198.74202532099935,None,198.74202532099935,None,198.74202532099935,None,,,,,,,,,,,,,,,,,,,,,,,,,,,,,,,,,,,,,,,,,,,,001,78,2020_Feb_06_0958,spring_faces,3.1.5,60.04732065146866,
condition files/Stage0b_1.xlsx,0b,none,beta,g,"['h', 'g']","['Chess', 'Go']","[-0.15, 0.5]","[0.15, 0.5]",0,1,0,10,10,10,0,0,0,1,,,,,,,,,,,,,,,,,,,,,,,,,,,,,,,,,,,,,,,,,,,,,,,,,,,,,,,,,,,,,,,200.72524828399946,None,200.72524828399946,None,200.72524828399946,None,g,1,0.6544877859996632,202.25791108199974,None,202.25791108199974,None,202.25791108199974,None,202.9747457399999,None,202.9747457399999,None,202.9747457399999,None,202.9747457399999,None,,,,,,,,,,,,,,,,,,,,,,,,,,,,,,,,,,,,,,,,,,,,001,78,2020_Feb_06_0958,spring_faces,3.1.5,60.04732065146866,
condition files/Stage0b_1.xlsx,0b,alpha,none,h,"['h', 'g']","['Chess', 'Go']","[-0.15, 0.5]","[0.15, 0.5]",1,0,0,10,10,10,0,1,1,0,,,,,,,,,,,,,,,,,,,,,,,,,,,,,,,,,,,,,,,,,,,,,,,,,,,,,,,,,,,,,,,204.94134915799987,None,204.94134915799987,None,204.94134915799987,None,h,1,0.6098597279997193,206.47846323199974,None,206.47846323199974,None,206.47846323199974,None,207.14479943900005,None,207.14479943900005,None,207.14479943900005,None,207.14479943900005,None,,,,,,,,,,,,,,,,,,,,,,,,,,,,,,,,,,,,,,,,,,,,001,78,2020_Feb_06_0958,spring_faces,3.1.5,60.04732065146866,
condition files/Stage0b_2.xlsx,0b,none,alpha,h,"['h', 'g']","['Chess', 'Go']","[-0.15, 0.5]","[0.15, 0.5]",0,1,0,11,11,11,0,0,0,0,,,,,,,,,,,,,,,,,,,,,,,,,,,,,,,,,,,,,,,,,,,,,,,,,,,,,,,,,,,,,,,209.12505107200013,None,209.12505107200013,None,209.12505107200013,None,h,1,0.6027744220000386,210.6616650019996,None,210.6616650019996,None,210.6616650019996,None,211.3245922999995,None,211.3245922999995,None,211.3245922999995,None,211.3245922999995,None,,,,,,,,,,,,,,,,,,,,,,,,,,,,,,,,,,,,,,,,,,,,001,78,2020_Feb_06_0958,spring_faces,3.1.5,60.04732065146866,
condition files/Stage0b_2.xlsx,0b,beta,none,g,"['h', 'g']","['Chess', 'Go']","[-0.15, 0.5]","[0.15, 0.5]",1,0,0,11,11,11,0,1,1,1,,,,,,,,,,,,,,,,,,,,,,,,,,,,,,,,,,,,,,,,,,,,,,,,,,,,,,,,,,,,,,,213.29136843800006,None,213.29136843800006,None,213.29136843800006,None,g,1,0.7263319499998033,214.82607771399944,None,214.82607771399944,None,214.82607771399944,None,215.61304715200004,None,215.61304715200004,None,215.61304715200004,None,215.61304715200004,None,,,,,,,,,,,,,,,,,,,,,,,,,,,,,,,,,,,,,,,,,,,,001,78,2020_Feb_06_0958,spring_faces,3.1.5,60.04732065146866,
condition files/Stage0c_1.xlsx,0c,phi,beta,g,"['h', 'g']","['Chess', 'Go']","[-0.15, 0.5]","[0.15, 0.5]",1,1,0,12,12,12,0,0,0,3,,,,,,,,,,,,,,,,,,,,,,,,,,,,,,,,,,,,,,,,,,,,,,,,,,,,,,,,,,,,,,,217.5921040329995,None,217.5921040329995,None,217.5921040329995,None,g,1,2.043700227000045,219.12476316899938,None,219.12476316899938,None,219.12476316899938,None,221.2248649489993,None,221.2248649489993,None,221.2248649489993,None,221.2248649489993,None,,,,,,,,,,,,,,,,,,,,,,,,,,,,,,,,,,,,,,,,,,,,001,78,2020_Feb_06_0958,spring_faces,3.1.5,60.04732065146866,
condition files/Stage0c_1.xlsx,0c,theta,alpha,h,"['h', 'g']","['Chess', 'Go']","[-0.15, 0.5]","[0.15, 0.5]",1,1,0,12,12,12,0,1,1,0,,,,,,,,,,,,,,,,,,,,,,,,,,,,,,,,,,,,,,,,,,,,,,,,,,,,,,,,,,,,,,,223.19150028700005,None,223.19150028700005,None,223.19150028700005,None,h,1,0.6671480919994792,224.7252102960001,None,224.7252102960001,None,224.7252102960001,None,225.45857479200004,None,225.45857479200004,None,225.45857479200004,None,225.45857479200004,None,,,,,,,,,,,,,,,,,,,,,,,,,,,,,,,,,,,,,,,,,,,,001,78,2020_Feb_06_0958,spring_faces,3.1.5,60.04732065146866,
condition files/Stage0c_1.xlsx,0c,alpha,phi,h,"['h', 'g']","['Chess', 'Go']","[-0.15, 0.5]","[0.15, 0.5]",1,1,0,12,12,12,0,2,2,1,,,,,,,,,,,,,,,,,,,,,,,,,,,,,,,,,,,,,,,,,,,,,,,,,,,,,,,,,,,,,,,227.42480409199925,None,227.42480409199925,None,227.42480409199925,None,g,0,5.553808721000678,228.9585862439999,None,228.9585862439999,None,228.9585862439999,None,234.56073302799996,None,234.56073302799996,None,234.56073302799996,None,234.56073302799996,None,,,,,,,,,,,,,,,,,,,,,,,,,,,,,,,,,,,,,,,,,,,,001,78,2020_Feb_06_0958,spring_faces,3.1.5,60.04732065146866,
condition files/Stage0c_1.xlsx,0c,beta,theta,g,"['h', 'g']","['Chess', 'Go']","[-0.15, 0.5]","[0.15, 0.5]",1,1,0,12,12,12,0,3,3,2,,,,,,,,,,,,,,,,,,,,,,,,,,,,,,,,,,,,,,,,,,,,,,,,,,,,,,,,,,,,,,,236.54134367299957,None,236.54134367299957,None,236.54134367299957,None,g,1,2.197741460000543,238.0746435309993,None,238.0746435309993,None,238.0746435309993,None,240.32464918999995,None,240.32464918999995,None,240.32464918999995,None,240.32464918999995,None,,,,,,,,,,,,,,,,,,,,,,,,,,,,,,,,,,,,,,,,,,,,001,78,2020_Feb_06_0958,spring_faces,3.1.5,60.04732065146866,
condition files/Stage0c_2.xlsx,0c,phi,alpha,h,"['h', 'g']","['Chess', 'Go']","[-0.15, 0.5]","[0.15, 0.5]",1,1,0,13,13,13,0,0,0,1,,,,,,,,,,,,,,,,,,,,,,,,,,,,,,,,,,,,,,,,,,,,,,,,,,,,,,,,,,,,,,,242.30845486199996,None,242.30845486199996,None,242.30845486199996,None,h,1,1.774459737000143,243.84200506599973,None,243.84200506599973,None,243.84200506599973,None,245.6751107199998,None,245.6751107199998,None,245.6751107199998,None,245.6751107199998,None,,,,,,,,,,,,,,,,,,,,,,,,,,,,,,,,,,,,,,,,,,,,001,78,2020_Feb_06_0958,spring_faces,3.1.5,60.04732065146866,
condition files/Stage0c_2.xlsx,0c,alpha,theta,h,"['h', 'g']","['Chess', 'Go']","[-0.15, 0.5]","[0.15, 0.5]",1,1,0,13,13,13,0,1,1,0,,,,,,,,,,,,,,,,,,,,,,,,,,,,,,,,,,,,,,,,,,,,,,,,,,,,,,,,,,,,,,,247.64133656000013,None,247.64133656000013,None,247.64133656000013,None,g,0,1.065405856000325,249.17498411699944,None,249.17498411699944,None,249.17498411699944,None,250.27619016900007,None,250.27619016900007,None,250.27619016900007,None,250.27619016900007,None,,,,,,,,,,,,,,,,,,,,,,,,,,,,,,,,,,,,,,,,,,,,001,78,2020_Feb_06_0958,spring_faces,3.1.5,60.04732065146866,
condition files/Stage0c_2.xlsx,0c,beta,phi,g,"['h', 'g']","['Chess', 'Go']","[-0.15, 0.5]","[0.15, 0.5]",1,1,0,13,13,13,0,2,2,3,,,,,,,,,,,,,,,,,,,,,,,,,,,,,,,,,,,,,,,,,,,,,,,,,,,,,,,,,,,,,,,252.25794800899985,None,252.25794800899985,None,252.25794800899985,None,g,1,1.1686795460000212,253.7917097059999,None,253.7917097059999,None,253.7917097059999,None,255.0244826299995,None,255.0244826299995,None,255.0244826299995,None,255.0244826299995,None,,,,,,,,,,,,,,,,,,,,,,,,,,,,,,,,,,,,,,,,,,,,001,78,2020_Feb_06_0958,spring_faces,3.1.5,60.04732065146866,
condition files/Stage0c_2.xlsx,0c,theta,beta,g,"['h', 'g']","['Chess', 'Go']","[-0.15, 0.5]","[0.15, 0.5]",1,1,0,13,13,13,0,3,3,2,,,,,,,,,,,,,,,,,,,,,,,,,,,,,,,,,,,,,,,,,,,,,,,,,,,,,,,,,,,,,,,256.99152824299927,None,256.99152824299927,None,256.99152824299927,None,g,1,3.027312381000229,258.525079948,None,258.525079948,None,258.525079948,None,261.5922833079994,None,261.5922833079994,None,261.5922833079994,None,261.5922833079994,None,,,,,,,,,,,,,,,,,,,,,,,,,,,,,,,,,,,,,,,,,,,,001,78,2020_Feb_06_0958,spring_faces,3.1.5,60.04732065146866,
condition files/Stage0c_1.xlsx,0c,alpha,phi,h,"['h', 'g']","['Chess', 'Go']","[-0.15, 0.5]","[0.15, 0.5]",1,1,0,14,14,14,0,0,0,1,,,,,,,,,,,,,,,,,,,,,,,,,,,,,,,,,,,,,,,,,,,,,,,,,,,,,,,,,,,,,,,263.5920711389999,None,263.5920711389999,None,263.5920711389999,None,h,1,0.6198158930001227,265.12459551699976,None,265.12459551699976,None,265.12459551699976,None,265.80836507000004,None,265.80836507000004,None,265.80836507000004,None,265.80836507000004,None,,,,,,,,,,,,,,,,,,,,,,,,,,,,,,,,,,,,,,,,,,,,001,78,2020_Feb_06_0958,spring_faces,3.1.5,60.04732065146866,
condition files/Stage0c_1.xlsx,0c,beta,theta,g,"['h', 'g']","['Chess', 'Go']","[-0.15, 0.5]","[0.15, 0.5]",1,1,0,14,14,14,0,1,1,2,,,,,,,,,,,,,,,,,,,,,,,,,,,,,,,,,,,,,,,,,,,,,,,,,,,,,,,,,,,,,,,267.77472339999986,None,267.77472339999986,None,267.77472339999986,None,g,1,1.6364651890007735,269.307925223,None,269.307925223,None,269.307925223,None,271.0084496499994,None,271.0084496499994,None,271.0084496499994,None,271.0084496499994,None,,,,,,,,,,,,,,,,,,,,,,,,,,,,,,,,,,,,,,,,,,,,001,78,2020_Feb_06_0958,spring_faces,3.1.5,60.04732065146866,
condition files/Stage0c_1.xlsx,0c,phi,beta,g,"['h', 'g']","['Chess', 'Go']","[-0.15, 0.5]","[0.15, 0.5]",1,1,0,14,14,14,0,2,2,3,,,,,,,,,,,,,,,,,,,,,,,,,,,,,,,,,,,,,,,,,,,,,,,,,,,,,,,,,,,,,,,272.9745181139997,None,272.9745181139997,None,272.9745181139997,None,h,0,0.4360767180005496,274.5083126109994,None,274.5083126109994,None,274.5083126109994,None,274.9921785890001,None,274.9921785890001,None,274.9921785890001,None,274.9921785890001,None,,,,,,,,,,,,,,,,,,,,,,,,,,,,,,,,,,,,,,,,,,,,001,78,2020_Feb_06_0958,spring_faces,3.1.5,60.04732065146866,
condition files/Stage0c_1.xlsx,0c,theta,alpha,h,"['h', 'g']","['Chess', 'Go']","[-0.15, 0.5]","[0.15, 0.5]",1,1,0,14,14,14,0,3,3,0,,,,,,,,,,,,,,,,,,,,,,,,,,,,,,,,,,,,,,,,,,,,,,,,,,,,,,,,,,,,,,,276.99180437799987,None,276.99180437799987,None,276.99180437799987,None,h,1,1.2037795019996338,278.5086280199994,None,278.5086280199994,None,278.5086280199994,None,279.77527007499975,None,279.77527007499975,None,279.77527007499975,None,279.77527007499975,None,,,,,,,,,,,,,,,,,,,,,,,,,,,,,,,,,,,,,,,,,,,,001,78,2020_Feb_06_0958,spring_faces,3.1.5,60.04732065146866,
condition files/Stage0c_2.xlsx,0c,alpha,theta,h,"['h', 'g']","['Chess', 'Go']","[-0.15, 0.5]","[0.15, 0.5]",1,1,0,15,15,15,0,0,0,0,,,,,,,,,,,,,,,,,,,,,,,,,,,,,,,,,,,,,,,,,,,,,,,,,,,,,,,,,,,,,,,281.7584390669999,None,281.7584390669999,None,281.7584390669999,None,h,1,1.3490592600001037,283.29132502099947,None,283.29132502099947,None,283.29132502099947,None,284.6766942589993,None,284.6766942589993,None,284.6766942589993,None,284.6766942589993,None,,,,,,,,,,,,,,,,,,,,,,,,,,,,,,,,,,,,,,,,,,,,001,78,2020_Feb_06_0958,spring_faces,3.1.5,60.04732065146866,
condition files/Stage0c_2.xlsx,0c,phi,alpha,h,"['h', 'g']","['Chess', 'Go']","[-0.15, 0.5]","[0.15, 0.5]",1,1,0,15,15,15,0,1,1,1,,,,,,,,,,,,,,,,,,,,,,,,,,,,,,,,,,,,,,,,,,,,,,,,,,,,,,,,,,,,,,,286.65739801499967,None,286.65739801499967,None,286.65739801499967,None,g,0,4.561000474000139,288.1913982769993,None,288.1913982769993,None,288.1913982769993,None,292.80842193599983,None,292.80842193599983,None,292.80842193599983,None,292.80842193599983,None,,,,,,,,,,,,,,,,,,,,,,,,,,,,,,,,,,,,,,,,,,,,001,78,2020_Feb_06_0958,spring_faces,3.1.5,60.04732065146866,
condition files/Stage0c_2.xlsx,0c,theta,beta,g,"['h', 'g']","['Chess', 'Go']","[-0.15, 0.5]","[0.15, 0.5]",1,1,0,15,15,15,0,2,2,2,,,,,,,,,,,,,,,,,,,,,,,,,,,,,,,,,,,,,,,,,,,,,,,,,,,,,,,,,,,,,,,294.7747910139997,None,294.7747910139997,None,294.7747910139997,None,g,1,1.4839222450000307,296.308438692,None,296.308438692,None,296.308438692,None,297.8586245030001,None,297.8586245030001,None,297.8586245030001,None,297.8586245030001,None,,,,,,,,,,,,,,,,,,,,,,,,,,,,,,,,,,,,,,,,,,,,001,78,2020_Feb_06_0958,spring_faces,3.1.5,60.04732065146866,
condition files/Stage0c_2.xlsx,0c,beta,phi,g,"['h', 'g']","['Chess', 'Go']","[-0.15, 0.5]","[0.15, 0.5]",1,1,0,15,15,15,0,3,3,3,,,,,,,,,,,,,,,,,,,,,,,,,,,,,,,,,,,,,,,,,,,,,,,,,,,,,,,,,,,,,,,299.82483982399935,None,299.82483982399935,None,299.82483982399935,None,g,1,1.473822783000287,301.35863250999955,None,301.35863250999955,None,301.35863250999955,None,302.8750479629998,None,302.8750479629998,None,302.8750479629998,None,302.8750479629998,None,,,,,,,,,,,,,,,,,,,,,,,,,,,,,,,,,,,,,,,,,,,,001,78,2020_Feb_06_0958,spring_faces,3.1.5,60.04732065146866,
condition files/Stage0c_1.xlsx,0c,alpha,phi,h,"['h', 'g']","['Chess', 'Go']","[-0.15, 0.5]","[0.15, 0.5]",1,1,0,16,16,16,0,0,0,1,,,,,,,,,,,,,,,,,,,,,,,,,,,,,,,,,,,,,,,,,,,,,,,,,,,,,,,,,,,,,,,304.8753643330001,None,304.8753643330001,None,304.8753643330001,None,h,1,0.7443044279998503,306.4080898989996,None,306.4080898989996,None,306.4080898989996,None,307.2080051359999,None,307.2080051359999,None,307.2080051359999,None,307.2080051359999,None,,,,,,,,,,,,,,,,,,,,,,,,,,,,,,,,,,,,,,,,,,,,001,78,2020_Feb_06_0958,spring_faces,3.1.5,60.04732065146866,
condition files/Stage0c_1.xlsx,0c,beta,theta,g,"['h', 'g']","['Chess', 'Go']","[-0.15, 0.5]","[0.15, 0.5]",1,1,0,16,16,16,0,1,1,2,,,,,,,,,,,,,,,,,,,,,,,,,,,,,,,,,,,,,,,,,,,,,,,,,,,,,,,,,,,,,,,309.1750237209999,None,309.1750237209999,None,309.1750237209999,None,g,1,1.8837937059997785,310.7085678119993,None,310.7085678119993,None,310.7085678119993,None,312.6449841619997,None,312.6449841619997,None,312.6449841619997,None,312.6449841619997,None,,,,,,,,,,,,,,,,,,,,,,,,,,,,,,,,,,,,,,,,,,,,001,78,2020_Feb_06_0958,spring_faces,3.1.5,60.04732065146866,
condition files/Stage0c_1.xlsx,0c,phi,beta,g,"['h', 'g']","['Chess', 'Go']","[-0.15, 0.5]","[0.15, 0.5]",1,1,0,16,16,16,0,2,2,3,,,,,,,,,,,,,,,,,,,,,,,,,,,,,,,,,,,,,,,,,,,,,,,,,,,,,,,,,,,,,,,314.62429629799954,None,314.62429629799954,None,314.62429629799954,None,g,1,2.370425981999688,316.15796938199946,None,316.15796938199946,None,316.15796938199946,None,318.59131790599986,None,318.59131790599986,None,318.59131790599986,None,318.59131790599986,None,,,,,,,,,,,,,,,,,,,,,,,,,,,,,,,,,,,,,,,,,,,,001,78,2020_Feb_06_0958,spring_faces,3.1.5,60.04732065146866,
condition files/Stage0c_1.xlsx,0c,theta,alpha,h,"['h', 'g']","['Chess', 'Go']","[-0.15, 0.5]","[0.15, 0.5]",1,1,0,16,16,16,0,3,3,0,,,,,,,,,,,,,,,,,,,,,,,,,,,,,,,,,,,,,,,,,,,,,,,,,,,,,,,,,,,,,,,320.5581469259996,None,320.5581469259996,None,320.5581469259996,None,h,1,1.2693311240000185,322.09106245099974,None,322.09106245099974,None,322.09106245099974,None,323.4251214799997,None,323.4251214799997,None,323.4251214799997,None,323.4251214799997,None,,,,,,,,,,,,,,,,,,,,,,,,,,,,,,,,,,,,,,,,,,,,001,78,2020_Feb_06_0958,spring_faces,3.1.5,60.04732065146866,
condition files/Stage0c_2.xlsx,0c,beta,phi,g,"['h', 'g']","['Chess', 'Go']","[-0.15, 0.5]","[0.15, 0.5]",1,1,0,17,17,17,0,0,0,3,,,,,,,,,,,,,,,,,,,,,,,,,,,,,,,,,,,,,,,,,,,,,,,,,,,,,,,,,,,,,,,325.40793168299933,None,325.40793168299933,None,325.40793168299933,None,g,1,0.8029978469994603,326.9414081569994,None,326.9414081569994,None,326.9414081569994,None,327.8084917899996,None,327.8084917899996,None,327.8084917899996,None,327.8084917899996,None,,,,,,,,,,,,,,,,,,,,,,,,,,,,,,,,,,,,,,,,,,,,001,78,2020_Feb_06_0958,spring_faces,3.1.5,60.04732065146866,
condition files/Stage0c_2.xlsx,0c,theta,beta,g,"['h', 'g']","['Chess', 'Go']","[-0.15, 0.5]","[0.15, 0.5]",1,1,0,17,17,17,0,1,1,2,,,,,,,,,,,,,,,,,,,,,,,,,,,,,,,,,,,,,,,,,,,,,,,,,,,,,,,,,,,,,,,329.77478042999974,None,329.77478042999974,None,329.77478042999974,None,g,1,1.9241573720000815,331.3082936309993,None,331.3082936309993,None,331.3082936309993,None,333.27665439999964,None,333.27665439999964,None,333.27665439999964,None,333.27665439999964,None,,,,,,,,,,,,,,,,,,,,,,,,,,,,,,,,,,,,,,,,,,,,001,78,2020_Feb_06_0958,spring_faces,3.1.5,60.04732065146866,
condition files/Stage0c_2.xlsx,0c,alpha,theta,h,"['h', 'g']","['Chess', 'Go']","[-0.15, 0.5]","[0.15, 0.5]",1,1,0,17,17,17,0,2,2,0,,,,,,,,,,,,,,,,,,,,,,,,,,,,,,,,,,,,,,,,,,,,,,,,,,,,,,,,,,,,,,,335.25759441599985,None,335.25759441599985,None,335.25759441599985,None,h,1,1.3203784329998598,336.79201406799984,None,336.79201406799984,None,336.79201406799984,None,338.17508279899994,None,338.17508279899994,None,338.17508279899994,None,338.17508279899994,None,,,,,,,,,,,,,,,,,,,,,,,,,,,,,,,,,,,,,,,,,,,,001,78,2020_Feb_06_0958,spring_faces,3.1.5,60.04732065146866,
condition files/Stage0c_2.xlsx,0c,phi,alpha,h,"['h', 'g']","['Chess', 'Go']","[-0.15, 0.5]","[0.15, 0.5]",1,1,0,17,17,17,0,3,3,1,,,,,,,,,,,,,,,,,,,,,,,,,,,,,,,,,,,,,,,,,,,,,,,,,,,,,,,,,,,,,,,340.14146533299936,None,340.14146533299936,None,340.14146533299936,None,h,1,2.405107188000329,341.6752845129995,None,341.6752845129995,None,341.6752845129995,None,344.124802028,None,344.124802028,None,344.124802028,None,344.124802028,None,,,,,,,,,,,,,,,,,,,,,,,,,,,,,,,,,,,,,,,,,,,,001,78,2020_Feb_06_0958,spring_faces,3.1.5,60.04732065146866,
,,,,,,,,,,,,,,,,,,,,,,,,,,,,,,,,,,,,,,,,,,,,,,,,,,,,,,,,,,,,,,,,,,,,,,,,,,,,,,,,,,,,,,,,,,,,,,,,,,,,,,,,346.12522357499984,None,space,1.387451087000045,351.1249623650001,None,,,,,,,,,,,,,,,,,,,,,,,,,,,,,,,,,,,,,,001,78,2020_Feb_06_0958,spring_faces,3.1.5,60.04732065146866,
condition files/Stage1_1.xlsx,,T3,B4,c,"['c', 'm']","['Clue', 'Monopoly']","[-0.15, 0.5]","[0.15, 0.5]",1,1,,,,,,,,,0,0,0,0,0,0,0,5,,,,,,,,,,,,,,,,,,,,,,,,,,,,,,,,,,,,,,,,,,,,,,,,,,,,,,,352.57463763299984,None,352.57463763299984,None,352.57463763299984,None,c,1,4.2123987630002375,354.1080115189998,None,354.1080115189998,None,354.1080115189998,None,358.391970011,None,358.391970011,None,358.391970011,None,358.391970011,None,,,,,,,351.1249623650001,None,,,,,,,,,,,,,,,,,,,,,,,,,,,,,,,,,,,,001,78,2020_Feb_06_0958,spring_faces,3.1.5,60.04732065146866,
condition files/Stage1_1.xlsx,,T1,B1,c,"['c', 'm']","['Clue', 'Monopoly']","[-0.15, 0.5]","[0.15, 0.5]",1,1,,,,,,,,,0,0,0,0,0,1,1,0,,,,,,,,,,,,,,,,,,,,,,,,,,,,,,,,,,,,,,,,,,,,,,,,,,,,,,,360.3414361919995,None,360.3414361919995,None,360.3414361919995,None,m,0,1.4514150279992464,361.9249431199996,None,361.9249431199996,None,361.9249431199996,None,363.4419186259993,None,363.4419186259993,None,363.4419186259993,None,363.4419186259993,None,,,,,,,,,,,,,,,,,,,,,,,,,,,,,,,,,,,,,,,,,,,,001,78,2020_Feb_06_0958,spring_faces,3.1.5,60.04732065146866,
condition files/Stage1_1.xlsx,,B1,T2,c,"['c', 'm']","['Clue', 'Monopoly']","[-0.15, 0.5]","[0.15, 0.5]",1,1,,,,,,,,,0,0,0,0,0,2,2,1,,,,,,,,,,,,,,,,,,,,,,,,,,,,,,,,,,,,,,,,,,,,,,,,,,,,,,,365.4083875469996,None,365.4083875469996,None,365.4083875469996,None,m,0,1.5051361019995966,366.97519968399956,None,366.97519968399956,None,366.97519968399956,None,368.54179457899954,None,368.54179457899954,None,368.54179457899954,None,368.54179457899954,None,,,,,,,,,,,,,,,,,,,,,,,,,,,,,,,,,,,,,,,,,,,,001,78,2020_Feb_06_0958,spring_faces,3.1.5,60.04732065146866,
condition files/Stage1_1.xlsx,,B4,T4,m,"['c', 'm']","['Clue', 'Monopoly']","[-0.15, 0.5]","[0.15, 0.5]",1,1,,,,,,,,,0,0,0,0,0,3,3,7,,,,,,,,,,,,,,,,,,,,,,,,,,,,,,,,,,,,,,,,,,,,,,,,,,,,,,,370.5081078160001,None,370.5081078160001,None,370.5081078160001,None,c,0,1.3978355420003936,372.0585521889998,None,372.0585521889998,None,372.0585521889998,None,373.50882236300004,None,373.50882236300004,None,373.50882236300004,None,373.50882236300004,None,,,,,,,,,,,,,,,,,,,,,,,,,,,,,,,,,,,,,,,,,,,,001,78,2020_Feb_06_0958,spring_faces,3.1.5,60.04732065146866,
condition files/Stage1_1.xlsx,,B2,T1,m,"['c', 'm']","['Clue', 'Monopoly']","[-0.15, 0.5]","[0.15, 0.5]",1,1,,,,,,,,,0,0,0,0,0,4,4,2,,,,,,,,,,,,,,,,,,,,,,,,,,,,,,,,,,,,,,,,,,,,,,,,,,,,,,,375.47440274899964,None,375.47440274899964,None,375.47440274899964,None,c,0,2.911317437999969,377.0250166279993,None,377.0250166279993,None,377.0250166279993,None,379.9911940989996,None,379.9911940989996,None,379.9911940989996,None,379.9911940989996,None,,,,,,,,,,,,,,,,,,,,,,,,,,,,,,,,,,,,,,,,,,,,001,78,2020_Feb_06_0958,spring_faces,3.1.5,60.04732065146866,
condition files/Stage1_1.xlsx,,T2,B2,m,"['c', 'm']","['Clue', 'Monopoly']","[-0.15, 0.5]","[0.15, 0.5]",1,1,,,,,,,,,0,0,0,0,0,5,5,3,,,,,,,,,,,,,,,,,,,,,,,,,,,,,,,,,,,,,,,,,,,,,,,,,,,,,,,381.9578885029996,None,381.9578885029996,None,381.9578885029996,None,m,1,8.07544763199985,383.49295959199935,None,383.49295959199935,None,383.49295959199935,None,391.6249449019997,None,391.6249449019997,None,391.6249449019997,None,391.6249449019997,None,,,,,,,,,,,,,,,,,,,,,,,,,,,,,,,,,,,,,,,,,,,,001,78,2020_Feb_06_0958,spring_faces,3.1.5,60.04732065146866,
condition files/Stage1_1.xlsx,,B3,T3,c,"['c', 'm']","['Clue', 'Monopoly']","[-0.15, 0.5]","[0.15, 0.5]",1,1,,,,,,,,,0,0,0,0,0,6,6,4,,,,,,,,,,,,,,,,,,,,,,,,,,,,,,,,,,,,,,,,,,,,,,,,,,,,,,,393.59084022299976,None,393.59084022299976,None,393.59084022299976,None,c,1,2.4277720359996238,395.1246045099997,None,395.1246045099997,None,395.1246045099997,None,397.6075203849996,None,397.6075203849996,None,397.6075203849996,None,397.6075203849996,None,,,,,,,,,,,,,,,,,,,,,,,,,,,,,,,,,,,,,,,,,,,,001,78,2020_Feb_06_0958,spring_faces,3.1.5,60.04732065146866,
condition files/Stage1_1.xlsx,,T4,B3,m,"['c', 'm']","['Clue', 'Monopoly']","[-0.15, 0.5]","[0.15, 0.5]",1,1,,,,,,,,,0,0,0,0,0,7,7,6,,,,,,,,,,,,,,,,,,,,,,,,,,,,,,,,,,,,,,,,,,,,,,,,,,,,,,,399.574671716,None,399.574671716,None,399.574671716,None,c,0,3.836006301999987,401.1084051130001,None,401.1084051130001,None,401.1084051130001,None,405.008533831,None,405.008533831,None,405.008533831,None,405.008533831,None,,,,,,,,,,,,,,,,,,,,,,,,,,,,,,,,,,,,,,,,,,,,001,78,2020_Feb_06_0958,spring_faces,3.1.5,60.04732065146866,
condition files/Stage1_2.xlsx,,T2,B1,c,"['c', 'm']","['Clue', 'Monopoly']","[-0.15, 0.5]","[0.15, 0.5]",1,1,,,,,,,,,0,1,1,1,0,0,0,1,,,,,,,,,,,,,,,,,,,,,,,,,,,,,,,,,,,,,,,,,,,,,,,,,,,,,,,406.991545977,None,406.991545977,None,406.991545977,None,c,1,9.395331282999905,408.541027665,None,408.541027665,None,408.541027665,None,417.99222335600007,None,417.99222335600007,None,417.99222335600007,None,417.99222335600007,None,,,,,,,,,,,,,,,,,,,,,,,,,,,,,,,,,,,,,,,,,,,,001,78,2020_Feb_06_0958,spring_faces,3.1.5,60.04732065146866,
condition files/Stage1_2.xlsx,,B2,T2,m,"['c', 'm']","['Clue', 'Monopoly']","[-0.15, 0.5]","[0.15, 0.5]",1,1,,,,,,,,,0,1,1,1,0,1,1,3,,,,,,,,,,,,,,,,,,,,,,,,,,,,,,,,,,,,,,,,,,,,,,,,,,,,,,,419.9575537739993,None,419.9575537739993,None,419.9575537739993,None,c,0,1.1629914439999993,421.49341580799955,None,421.49341580799955,None,421.49341580799955,None,422.7083348489996,None,422.7083348489996,None,422.7083348489996,None,422.7083348489996,None,,,,,,,,,,,,,,,,,,,,,,,,,,,,,,,,,,,,,,,,,,,,001,78,2020_Feb_06_0958,spring_faces,3.1.5,60.04732065146866,
condition files/Stage1_2.xlsx,,B4,T3,c,"['c', 'm']","['Clue', 'Monopoly']","[-0.15, 0.5]","[0.15, 0.5]",1,1,,,,,,,,,0,1,1,1,0,2,2,5,,,,,,,,,,,,,,,,,,,,,,,,,,,,,,,,,,,,,,,,,,,,,,,,,,,,,,,424.6750874290001,None,424.6750874290001,None,424.6750874290001,None,c,1,4.287290319999556,426.2251238789995,None,426.2251238789995,None,426.2251238789995,None,430.5915700729993,None,430.5915700729993,None,430.5915700729993,None,430.5915700729993,None,,,,,,,,,,,,,,,,,,,,,,,,,,,,,,,,,,,,,,,,,,,,001,78,2020_Feb_06_0958,spring_faces,3.1.5,60.04732065146866,
condition files/Stage1_2.xlsx,,T1,B2,m,"['c', 'm']","['Clue', 'Monopoly']","[-0.15, 0.5]","[0.15, 0.5]",1,1,,,,,,,,,0,1,1,1,0,3,3,2,,,,,,,,,,,,,,,,,,,,,,,,,,,,,,,,,,,,,,,,,,,,,,,,,,,,,,,432.54154495999956,None,432.54154495999956,None,432.54154495999956,None,m,1,3.6042337580001913,434.0921832639997,None,434.0921832639997,None,434.0921832639997,None,437.75836515099945,None,437.75836515099945,None,437.75836515099945,None,437.75836515099945,None,,,,,,,,,,,,,,,,,,,,,,,,,,,,,,,,,,,,,,,,,,,,001,78,2020_Feb_06_0958,spring_faces,3.1.5,60.04732065146866,
condition files/Stage1_2.xlsx,,B1,T1,c,"['c', 'm']","['Clue', 'Monopoly']","[-0.15, 0.5]","[0.15, 0.5]",1,1,,,,,,,,,0,1,1,1,0,4,4,0,,,,,,,,,,,,,,,,,,,,,,,,,,,,,,,,,,,,,,,,,,,,,,,,,,,,,,,439.7249038869995,None,439.7249038869995,None,439.7249038869995,None,m,0,2.533572884000023,441.2747611039995,None,441.2747611039995,None,441.2747611039995,None,443.87675932099955,None,443.87675932099955,None,443.87675932099955,None,443.87675932099955,None,,,,,,,,,,,,,,,,,,,,,,,,,,,,,,,,,,,,,,,,,,,,001,78,2020_Feb_06_0958,spring_faces,3.1.5,60.04732065146866,
condition files/Stage1_2.xlsx,,T3,B3,c,"['c', 'm']","['Clue', 'Monopoly']","[-0.15, 0.5]","[0.15, 0.5]",1,1,,,,,,,,,0,1,1,1,0,5,5,4,,,,,,,,,,,,,,,,,,,,,,,,,,,,,,,,,,,,,,,,,,,,,,,,,,,,,,,445.8410933340001,None,445.8410933340001,None,445.8410933340001,None,m,0,3.9366836070003046,447.39170804900004,None,447.39170804900004,None,447.39170804900004,None,451.39119647699954,None,451.39119647699954,None,451.39119647699954,None,451.39119647699954,None,,,,,,,,,,,,,,,,,,,,,,,,,,,,,,,,,,,,,,,,,,,,001,78,2020_Feb_06_0958,spring_faces,3.1.5,60.04732065146866,
condition files/Stage1_2.xlsx,,T4,B4,m,"['c', 'm']","['Clue', 'Monopoly']","[-0.15, 0.5]","[0.15, 0.5]",1,1,,,,,,,,,0,1,1,1,0,6,6,7,,,,,,,,,,,,,,,,,,,,,,,,,,,,,,,,,,,,,,,,,,,,,,,,,,,,,,,453.3578327519999,None,453.3578327519999,None,453.3578327519999,None,c,0,3.2519198780000806,454.9084370649998,None,454.9084370649998,None,454.9084370649998,None,458.2270724789996,None,458.2270724789996,None,458.2270724789996,None,458.2270724789996,None,,,,,,,,,,,,,,,,,,,,,,,,,,,,,,,,,,,,,,,,,,,,001,78,2020_Feb_06_0958,spring_faces,3.1.5,60.04732065146866,
condition files/Stage1_2.xlsx,,B3,T4,m,"['c', 'm']","['Clue', 'Monopoly']","[-0.15, 0.5]","[0.15, 0.5]",1,1,,,,,,,,,0,1,1,1,0,7,7,6,,,,,,,,,,,,,,,,,,,,,,,,,,,,,,,,,,,,,,,,,,,,,,,,,,,,,,,460.1913933329997,None,460.1913933329997,None,460.1913933329997,None,m,1,2.5621455879991117,461.7261700250001,None,461.7261700250001,None,461.7261700250001,None,464.34165969100013,None,464.34165969100013,None,464.34165969100013,None,464.34165969100013,None,,,,,,,,,,,,,,,,,,,,,,,,,,,,,,,,,,,,,,,,,,,,001,78,2020_Feb_06_0958,spring_faces,3.1.5,60.04732065146866,
condition files/Stage1_1.xlsx,,B1,T2,c,"['c', 'm']","['Clue', 'Monopoly']","[-0.15, 0.5]","[0.15, 0.5]",1,1,,,,,,,,,0,2,2,2,0,0,0,1,,,,,,,,,,,,,,,,,,,,,,,,,,,,,,,,,,,,,,,,,,,,,,,,,,,,,,,466.3248448819995,None,466.3248448819995,None,466.3248448819995,None,c,1,3.5641465769995193,467.86026882499937,None,467.86026882499937,None,467.86026882499937,None,471.4919454359997,None,471.4919454359997,None,471.4919454359997,None,471.4919454359997,None,,,,,,,,,,,,,,,,,,,,,,,,,,,,,,,,,,,,,,,,,,,,001,78,2020_Feb_06_0958,spring_faces,3.1.5,60.04732065146866,
condition files/Stage1_1.xlsx,,B3,T3,c,"['c', 'm']","['Clue', 'Monopoly']","[-0.15, 0.5]","[0.15, 0.5]",1,1,,,,,,,,,0,2,2,2,0,1,1,4,,,,,,,,,,,,,,,,,,,,,,,,,,,,,,,,,,,,,,,,,,,,,,,,,,,,,,,473.4415311550001,None,473.4415311550001,None,473.4415311550001,None,m,0,2.65674684699934,474.99171810999997,None,474.99171810999997,None,474.99171810999997,None,477.7087448559996,None,477.7087448559996,None,477.7087448559996,None,477.7087448559996,None,,,,,,,,,,,,,,,,,,,,,,,,,,,,,,,,,,,,,,,,,,,,001,78,2020_Feb_06_0958,spring_faces,3.1.5,60.04732065146866,
condition files/Stage1_1.xlsx,,T2,B2,m,"['c', 'm']","['Clue', 'Monopoly']","[-0.15, 0.5]","[0.15, 0.5]",1,1,,,,,,,,,0,2,2,2,0,2,2,3,,,,,,,,,,,,,,,,,,,,,,,,,,,,,,,,,,,,,,,,,,,,,,,,,,,,,,,479.6747677229996,None,479.6747677229996,None,479.6747677229996,None,c,0,2.999252055999932,481.20911594799963,None,481.20911594799963,None,481.20911594799963,None,484.2745175129994,None,484.2745175129994,None,484.2745175129994,None,484.2745175129994,None,,,,,,,,,,,,,,,,,,,,,,,,,,,,,,,,,,,,,,,,,,,,001,78,2020_Feb_06_0958,spring_faces,3.1.5,60.04732065146866,
condition files/Stage1_1.xlsx,,T3,B4,c,"['c', 'm']","['Clue', 'Monopoly']","[-0.15, 0.5]","[0.15, 0.5]",1,1,,,,,,,,,0,2,2,2,0,3,3,5,,,,,,,,,,,,,,,,,,,,,,,,,,,,,,,,,,,,,,,,,,,,,,,,,,,,,,,486.2418228359993,None,486.2418228359993,None,486.2418228359993,None,c,1,3.615701892999823,487.7766539919994,None,487.7766539919994,None,487.7766539919994,None,491.4587950649993,None,491.4587950649993,None,491.4587950649993,None,491.4587950649993,None,,,,,,,,,,,,,,,,,,,,,,,,,,,,,,,,,,,,,,,,,,,,001,78,2020_Feb_06_0958,spring_faces,3.1.5,60.04732065146866,
condition files/Stage1_1.xlsx,,T4,B3,m,"['c', 'm']","['Clue', 'Monopoly']","[-0.15, 0.5]","[0.15, 0.5]",1,1,,,,,,,,,0,2,2,2,0,4,4,6,,,,,,,,,,,,,,,,,,,,,,,,,,,,,,,,,,,,,,,,,,,,,,,,,,,,,,,493.4248058639996,None,493.4248058639996,None,493.4248058639996,None,m,1,1.3621303879999687,494.9582376009994,None,494.9582376009994,None,494.9582376009994,None,496.3755234959999,None,496.3755234959999,None,496.3755234959999,None,496.3755234959999,None,,,,,,,,,,,,,,,,,,,,,,,,,,,,,,,,,,,,,,,,,,,,001,78,2020_Feb_06_0958,spring_faces,3.1.5,60.04732065146866,
condition files/Stage1_1.xlsx,,B2,T1,m,"['c', 'm']","['Clue', 'Monopoly']","[-0.15, 0.5]","[0.15, 0.5]",1,1,,,,,,,,,0,2,2,2,0,5,5,2,,,,,,,,,,,,,,,,,,,,,,,,,,,,,,,,,,,,,,,,,,,,,,,,,,,,,,,498.34148157599975,None,498.34148157599975,None,498.34148157599975,None,m,1,1.6285668580003403,499.89176924599997,None,499.89176924599997,None,499.89176924599997,None,501.57475590099966,None,501.57475590099966,None,501.57475590099966,None,501.57475590099966,None,,,,,,,,,,,,,,,,,,,,,,,,,,,,,,,,,,,,,,,,,,,,001,78,2020_Feb_06_0958,spring_faces,3.1.5,60.04732065146866,
condition files/Stage1_1.xlsx,,B4,T4,m,"['c', 'm']","['Clue', 'Monopoly']","[-0.15, 0.5]","[0.15, 0.5]",1,1,,,,,,,,,0,2,2,2,0,6,6,7,,,,,,,,,,,,,,,,,,,,,,,,,,,,,,,,,,,,,,,,,,,,,,,,,,,,,,,503.5408611789999,None,503.5408611789999,None,503.5408611789999,None,m,1,2.621224133999931,505.07520226199995,None,505.07520226199995,None,505.07520226199995,None,507.7584043629995,None,507.7584043629995,None,507.7584043629995,None,507.7584043629995,None,,,,,,,,,,,,,,,,,,,,,,,,,,,,,,,,,,,,,,,,,,,,001,78,2020_Feb_06_0958,spring_faces,3.1.5,60.04732065146866,
condition files/Stage1_1.xlsx,,T1,B1,c,"['c', 'm']","['Clue', 'Monopoly']","[-0.15, 0.5]","[0.15, 0.5]",1,1,,,,,,,,,0,2,2,2,0,7,7,0,,,,,,,,,,,,,,,,,,,,,,,,,,,,,,,,,,,,,,,,,,,,,,,,,,,,,,,509.7242270549996,None,509.7242270549996,None,509.7242270549996,None,m,0,1.9243612049995136,511.2599846719995,None,511.2599846719995,None,511.2599846719995,None,513.2409139969996,None,513.2409139969996,None,513.2409139969996,None,513.2409139969996,None,,,,,,,,,,,,,,,,,,,,,,,,,,,,,,,,,,,,,,,,,,,,001,78,2020_Feb_06_0958,spring_faces,3.1.5,60.04732065146866,
condition files/Stage1_2.xlsx,,B3,T4,m,"['c', 'm']","['Clue', 'Monopoly']","[-0.15, 0.5]","[0.15, 0.5]",1,1,,,,,,,,,0,3,3,3,0,0,0,6,,,,,,,,,,,,,,,,,,,,,,,,,,,,,,,,,,,,,,,,,,,,,,,,,,,,,,,515.224596004,None,515.224596004,None,515.224596004,None,m,1,1.1290534720001233,516.7592876369999,None,516.7592876369999,None,516.7592876369999,None,517.9584016769995,None,517.9584016769995,None,517.9584016769995,None,517.9584016769995,None,,,,,,,,,,,,,,,,,,,,,,,,,,,,,,,,,,,,,,,,,,,,001,78,2020_Feb_06_0958,spring_faces,3.1.5,60.04732065146866,
condition files/Stage1_2.xlsx,,B1,T1,c,"['c', 'm']","['Clue', 'Monopoly']","[-0.15, 0.5]","[0.15, 0.5]",1,1,,,,,,,,,0,3,3,3,0,1,1,0,,,,,,,,,,,,,,,,,,,,,,,,,,,,,,,,,,,,,,,,,,,,,,,,,,,,,,,519.9080709699992,None,519.9080709699992,None,519.9080709699992,None,c,1,2.510145147000003,521.4583155539995,None,521.4583155539995,None,521.4583155539995,None,524.0272410219995,None,524.0272410219995,None,524.0272410219995,None,524.0272410219995,None,,,,,,,,,,,,,,,,,,,,,,,,,,,,,,,,,,,,,,,,,,,,001,78,2020_Feb_06_0958,spring_faces,3.1.5,60.04732065146866,
condition files/Stage1_2.xlsx,,T3,B3,c,"['c', 'm']","['Clue', 'Monopoly']","[-0.15, 0.5]","[0.15, 0.5]",1,1,,,,,,,,,0,3,3,3,0,2,2,4,,,,,,,,,,,,,,,,,,,,,,,,,,,,,,,,,,,,,,,,,,,,,,,,,,,,,,,525.9914434439997,None,525.9914434439997,None,525.9914434439997,None,m,0,5.419422312000279,527.5249982579999,None,527.5249982579999,None,527.5249982579999,None,533.0082653019999,None,533.0082653019999,None,533.0082653019999,None,533.0082653019999,None,,,,,,,,,,,,,,,,,,,,,,,,,,,,,,,,,,,,,,,,,,,,001,78,2020_Feb_06_0958,spring_faces,3.1.5,60.04732065146866,
condition files/Stage1_2.xlsx,,T4,B4,m,"['c', 'm']","['Clue', 'Monopoly']","[-0.15, 0.5]","[0.15, 0.5]",1,1,,,,,,,,,0,3,3,3,0,3,3,7,,,,,,,,,,,,,,,,,,,,,,,,,,,,,,,,,,,,,,,,,,,,,,,,,,,,,,,534.9747818019996,None,534.9747818019996,None,534.9747818019996,None,m,1,1.9718737130006048,536.5085146410001,None,536.5085146410001,None,536.5085146410001,None,538.5435567149998,None,538.5435567149998,None,538.5435567149998,None,538.5435567149998,None,,,,,,,,,,,,,,,,,,,,,,,,,,,,,,,,,,,,,,,,,,,,001,78,2020_Feb_06_0958,spring_faces,3.1.5,60.04732065146866,
condition files/Stage1_2.xlsx,,B4,T3,c,"['c', 'm']","['Clue', 'Monopoly']","[-0.15, 0.5]","[0.15, 0.5]",1,1,,,,,,,,,0,3,3,3,0,4,4,5,,,,,,,,,,,,,,,,,,,,,,,,,,,,,,,,,,,,,,,,,,,,,,,,,,,,,,,540.5080726719998,None,540.5080726719998,None,540.5080726719998,None,c,1,1.958013722999567,542.0424760789992,None,542.0424760789992,None,542.0424760789992,None,544.0577355259993,None,544.0577355259993,None,544.0577355259993,None,544.0577355259993,None,,,,,,,,,,,,,,,,,,,,,,,,,,,,,,,,,,,,,,,,,,,,001,78,2020_Feb_06_0958,spring_faces,3.1.5,60.04732065146866,
condition files/Stage1_2.xlsx,,B2,T2,m,"['c', 'm']","['Clue', 'Monopoly']","[-0.15, 0.5]","[0.15, 0.5]",1,1,,,,,,,,,0,3,3,3,0,5,5,3,,,,,,,,,,,,,,,,,,,,,,,,,,,,,,,,,,,,,,,,,,,,,,,,,,,,,,,546.0248071699998,None,546.0248071699998,None,546.0248071699998,None,m,1,4.618134560000726,547.5582207279995,None,547.5582207279995,None,547.5582207279995,None,552.2415097630001,None,552.2415097630001,None,552.2415097630001,None,552.2415097630001,None,,,,,,,,,,,,,,,,,,,,,,,,,,,,,,,,,,,,,,,,,,,,001,78,2020_Feb_06_0958,spring_faces,3.1.5,60.04732065146866,
condition files/Stage1_2.xlsx,,T1,B2,m,"['c', 'm']","['Clue', 'Monopoly']","[-0.15, 0.5]","[0.15, 0.5]",1,1,,,,,,,,,0,3,3,3,0,6,6,2,,,,,,,,,,,,,,,,,,,,,,,,,,,,,,,,,,,,,,,,,,,,,,,,,,,,,,,554.2074998809994,None,554.2074998809994,None,554.2074998809994,None,c,0,2.721493608999481,555.758908453,None,555.758908453,None,555.758908453,None,558.5415255759999,None,558.5415255759999,None,558.5415255759999,None,558.5415255759999,None,,,,,,,,,,,,,,,,,,,,,,,,,,,,,,,,,,,,,,,,,,,,001,78,2020_Feb_06_0958,spring_faces,3.1.5,60.04732065146866,
condition files/Stage1_2.xlsx,,T2,B1,c,"['c', 'm']","['Clue', 'Monopoly']","[-0.15, 0.5]","[0.15, 0.5]",1,1,,,,,,,,,0,3,3,3,0,7,7,1,,,,,,,,,,,,,,,,,,,,,,,,,,,,,,,,,,,,,,,,,,,,,,,,,,,,,,,560.5083233759997,None,560.5083233759997,None,560.5083233759997,None,m,0,3.062221120999311,562.0421909509996,None,562.0421909509996,None,562.0421909509996,None,565.1584948509999,None,565.1584948509999,None,565.1584948509999,None,565.1584948509999,None,,,,,,,,,,,,,,,,,,,,,,,,,,,,,,,,,,,,,,,,,,,,001,78,2020_Feb_06_0958,spring_faces,3.1.5,60.04732065146866,
condition files/Stage1_1.xlsx,,T4,B3,m,"['c', 'm']","['Clue', 'Monopoly']","[-0.15, 0.5]","[0.15, 0.5]",1,1,,,,,,,,,0,4,4,4,0,0,0,6,,,,,,,,,,,,,,,,,,,,,,,,,,,,,,,,,,,,,,,,,,,,,,,,,,,,,,,567.1415166050001,None,567.1415166050001,None,567.1415166050001,None,m,1,14.588665991000198,568.6917425430001,None,568.6917425430001,None,568.6917425430001,None,583.3586420940001,None,583.3586420940001,None,583.3586420940001,None,583.3586420940001,None,,,,,,,,,,,,,,,,,,,,,,,,,,,,,,,,,,,,,,,,,,,,001,78,2020_Feb_06_0958,spring_faces,3.1.5,60.04732065146866,
condition files/Stage1_1.xlsx,,B1,T2,c,"['c', 'm']","['Clue', 'Monopoly']","[-0.15, 0.5]","[0.15, 0.5]",1,1,,,,,,,,,0,4,4,4,0,1,1,1,,,,,,,,,,,,,,,,,,,,,,,,,,,,,,,,,,,,,,,,,,,,,,,,,,,,,,,585.3082417699998,None,585.3082417699998,None,585.3082417699998,None,m,0,2.438189487999807,586.8422359460001,None,586.8422359460001,None,586.8422359460001,None,589.3415885549994,None,589.3415885549994,None,589.3415885549994,None,589.3415885549994,None,,,,,,,,,,,,,,,,,,,,,,,,,,,,,,,,,,,,,,,,,,,,001,78,2020_Feb_06_0958,spring_faces,3.1.5,60.04732065146866,
condition files/Stage1_1.xlsx,,T1,B1,c,"['c', 'm']","['Clue', 'Monopoly']","[-0.15, 0.5]","[0.15, 0.5]",1,1,,,,,,,,,0,4,4,4,0,2,2,0,,,,,,,,,,,,,,,,,,,,,,,,,,,,,,,,,,,,,,,,,,,,,,,,,,,,,,,591.3081659079999,None,591.3081659079999,None,591.3081659079999,None,c,1,1.9256426269994336,592.8587077679995,None,592.8587077679995,None,592.8587077679995,None,594.8412590179996,None,594.8412590179996,None,594.8412590179996,None,594.8412590179996,None,,,,,,,,,,,,,,,,,,,,,,,,,,,,,,,,,,,,,,,,,,,,001,78,2020_Feb_06_0958,spring_faces,3.1.5,60.04732065146866,
condition files/Stage1_1.xlsx,,B2,T1,m,"['c', 'm']","['Clue', 'Monopoly']","[-0.15, 0.5]","[0.15, 0.5]",1,1,,,,,,,,,0,4,4,4,0,3,3,2,,,,,,,,,,,,,,,,,,,,,,,,,,,,,,,,,,,,,,,,,,,,,,,,,,,,,,,596.8077960999999,None,596.8077960999999,None,596.8077960999999,None,c,0,1.4178665610006647,598.3585041179995,None,598.3585041179995,None,598.3585041179995,None,599.858117791,None,599.858117791,None,599.858117791,None,599.858117791,None,,,,,,,,,,,,,,,,,,,,,,,,,,,,,,,,,,,,,,,,,,,,001,78,2020_Feb_06_0958,spring_faces,3.1.5,60.04732065146866,
condition files/Stage1_1.xlsx,,T3,B4,c,"['c', 'm']","['Clue', 'Monopoly']","[-0.15, 0.5]","[0.15, 0.5]",1,1,,,,,,,,,0,4,4,4,0,4,4,5,,,,,,,,,,,,,,,,,,,,,,,,,,,,,,,,,,,,,,,,,,,,,,,,,,,,,,,601.8074721129997,None,601.8074721129997,None,601.8074721129997,None,c,1,1.4102431290002642,603.3421824759998,None,603.3421824759998,None,603.3421824759998,None,604.8251247539993,None,604.8251247539993,None,604.8251247539993,None,604.8251247539993,None,,,,,,,,,,,,,,,,,,,,,,,,,,,,,,,,,,,,,,,,,,,,001,78,2020_Feb_06_0958,spring_faces,3.1.5,60.04732065146866,
condition files/Stage1_1.xlsx,,B3,T3,c,"['c', 'm']","['Clue', 'Monopoly']","[-0.15, 0.5]","[0.15, 0.5]",1,1,,,,,,,,,0,4,4,4,0,5,5,4,,,,,,,,,,,,,,,,,,,,,,,,,,,,,,,,,,,,,,,,,,,,,,,,,,,,,,,606.7747105829994,None,606.7747105829994,None,606.7747105829994,None,c,1,2.3796715560001758,608.3088085740001,None,608.3088085740001,None,608.3088085740001,None,610.7416469949994,None,610.7416469949994,None,610.7416469949994,None,610.7416469949994,None,,,,,,,,,,,,,,,,,,,,,,,,,,,,,,,,,,,,,,,,,,,,001,78,2020_Feb_06_0958,spring_faces,3.1.5,60.04732065146866,
condition files/Stage1_1.xlsx,,B4,T4,m,"['c', 'm']","['Clue', 'Monopoly']","[-0.15, 0.5]","[0.15, 0.5]",1,1,,,,,,,,,0,4,4,4,0,6,6,7,,,,,,,,,,,,,,,,,,,,,,,,,,,,,,,,,,,,,,,,,,,,,,,,,,,,,,,612.7074772589995,None,612.7074772589995,None,612.7074772589995,None,m,1,1.7906881040007647,614.2417890299994,None,614.2417890299994,None,614.2417890299994,None,616.1081880639995,None,616.1081880639995,None,616.1081880639995,None,616.1081880639995,None,,,,,,,,,,,,,,,,,,,,,,,,,,,,,,,,,,,,,,,,,,,,001,78,2020_Feb_06_0958,spring_faces,3.1.5,60.04732065146866,
condition files/Stage1_1.xlsx,,T2,B2,m,"['c', 'm']","['Clue', 'Monopoly']","[-0.15, 0.5]","[0.15, 0.5]",1,1,,,,,,,,,0,4,4,4,0,7,7,3,,,,,,,,,,,,,,,,,,,,,,,,,,,,,,,,,,,,,,,,,,,,,,,,,,,,,,,618.0577671000001,None,618.0577671000001,None,618.0577671000001,None,m,1,8.361255110999991,619.5911315249996,None,619.5911315249996,None,619.5911315249996,None,628.0081910189992,None,628.0081910189992,None,628.0081910189992,None,628.0081910189992,None,,,,,,,,,,,,,,,,,,,,,,,,,,,,,,,,,,,,,,,,,,,,001,78,2020_Feb_06_0958,spring_faces,3.1.5,60.04732065146866,
condition files/Stage1_2.xlsx,,T1,B2,m,"['c', 'm']","['Clue', 'Monopoly']","[-0.15, 0.5]","[0.15, 0.5]",1,1,,,,,,,,,0,5,5,5,0,0,0,2,,,,,,,,,,,,,,,,,,,,,,,,,,,,,,,,,,,,,,,,,,,,,,,,,,,,,,,629.9919530549996,None,629.9919530549996,None,629.9919530549996,None,c,0,2.5876847700001235,631.524722694,None,631.524722694,None,631.524722694,None,634.1750374879994,None,634.1750374879994,None,634.1750374879994,None,634.1750374879994,None,,,,,,,,,,,,,,,,,,,,,,,,,,,,,,,,,,,,,,,,,,,,001,78,2020_Feb_06_0958,spring_faces,3.1.5,60.04732065146866,
condition files/Stage1_2.xlsx,,T3,B3,c,"['c', 'm']","['Clue', 'Monopoly']","[-0.15, 0.5]","[0.15, 0.5]",1,1,,,,,,,,,0,5,5,5,0,1,1,4,,,,,,,,,,,,,,,,,,,,,,,,,,,,,,,,,,,,,,,,,,,,,,,,,,,,,,,636.141496618,None,636.141496618,None,636.141496618,None,c,1,1.47679529800007,637.6755692999996,None,637.6755692999996,None,637.6755692999996,None,639.2098665129997,None,639.2098665129997,None,639.2098665129997,None,639.2098665129997,None,,,,,,,,,,,,,,,,,,,,,,,,,,,,,,,,,,,,,,,,,,,,001,78,2020_Feb_06_0958,spring_faces,3.1.5,60.04732065146866,
condition files/Stage1_2.xlsx,,T2,B1,c,"['c', 'm']","['Clue', 'Monopoly']","[-0.15, 0.5]","[0.15, 0.5]",1,1,,,,,,,,,0,5,5,5,0,2,2,1,,,,,,,,,,,,,,,,,,,,,,,,,,,,,,,,,,,,,,,,,,,,,,,,,,,,,,,641.1745123739993,None,641.1745123739993,None,641.1745123739993,None,m,0,3.3384630079999624,642.7100174219995,None,642.7100174219995,None,642.7100174219995,None,646.1080326989995,None,646.1080326989995,None,646.1080326989995,None,646.1080326989995,None,,,,,,,,,,,,,,,,,,,,,,,,,,,,,,,,,,,,,,,,,,,,001,78,2020_Feb_06_0958,spring_faces,3.1.5,60.04732065146866,
condition files/Stage1_2.xlsx,,B4,T3,c,"['c', 'm']","['Clue', 'Monopoly']","[-0.15, 0.5]","[0.15, 0.5]",1,1,,,,,,,,,0,5,5,5,0,3,3,5,,,,,,,,,,,,,,,,,,,,,,,,,,,,,,,,,,,,,,,,,,,,,,,,,,,,,,,648.0747146499998,None,648.0747146499998,None,648.0747146499998,None,c,1,1.6876119950002249,649.6088149520001,None,649.6088149520001,None,649.6088149520001,None,651.35817279,None,651.35817279,None,651.35817279,None,651.35817279,None,,,,,,,,,,,,,,,,,,,,,,,,,,,,,,,,,,,,,,,,,,,,001,78,2020_Feb_06_0958,spring_faces,3.1.5,60.04732065146866,
condition files/Stage1_2.xlsx,,B1,T1,c,"['c', 'm']","['Clue', 'Monopoly']","[-0.15, 0.5]","[0.15, 0.5]",1,1,,,,,,,,,0,5,5,5,0,4,4,0,,,,,,,,,,,,,,,,,,,,,,,,,,,,,,,,,,,,,,,,,,,,,,,,,,,,,,,653.3245924949997,None,653.3245924949997,None,653.3245924949997,None,m,0,7.318398723999962,654.8579630739996,None,654.8579630739996,None,654.8579630739996,None,662.2419099749995,None,662.2419099749995,None,662.2419099749995,None,662.2419099749995,None,,,,,,,,,,,,,,,,,,,,,,,,,,,,,,,,,,,,,,,,,,,,001,78,2020_Feb_06_0958,spring_faces,3.1.5,60.04732065146866,
condition files/Stage1_2.xlsx,,B3,T4,m,"['c', 'm']","['Clue', 'Monopoly']","[-0.15, 0.5]","[0.15, 0.5]",1,1,,,,,,,,,0,5,5,5,0,5,5,6,,,,,,,,,,,,,,,,,,,,,,,,,,,,,,,,,,,,,,,,,,,,,,,,,,,,,,,664.2078272449999,None,664.2078272449999,None,664.2078272449999,None,m,1,1.8569056050000654,665.7435805309997,None,665.7435805309997,None,665.7435805309997,None,667.6604731689995,None,667.6604731689995,None,667.6604731689995,None,667.6604731689995,None,,,,,,,,,,,,,,,,,,,,,,,,,,,,,,,,,,,,,,,,,,,,001,78,2020_Feb_06_0958,spring_faces,3.1.5,60.04732065146866,
condition files/Stage1_2.xlsx,,B2,T2,m,"['c', 'm']","['Clue', 'Monopoly']","[-0.15, 0.5]","[0.15, 0.5]",1,1,,,,,,,,,0,5,5,5,0,6,6,3,,,,,,,,,,,,,,,,,,,,,,,,,,,,,,,,,,,,,,,,,,,,,,,,,,,,,,,669.6249489729998,None,669.6249489729998,None,669.6249489729998,None,m,1,2.8097081690002597,671.1587769529997,None,671.1587769529997,None,671.1587769529997,None,674.0249549199998,None,674.0249549199998,None,674.0249549199998,None,674.0249549199998,None,,,,,,,,,,,,,,,,,,,,,,,,,,,,,,,,,,,,,,,,,,,,001,78,2020_Feb_06_0958,spring_faces,3.1.5,60.04732065146866,
condition files/Stage1_2.xlsx,,T4,B4,m,"['c', 'm']","['Clue', 'Monopoly']","[-0.15, 0.5]","[0.15, 0.5]",1,1,,,,,,,,,0,5,5,5,0,7,7,7,,,,,,,,,,,,,,,,,,,,,,,,,,,,,,,,,,,,,,,,,,,,,,,,,,,,,,,675.9913363489995,None,675.9913363489995,None,675.9913363489995,None,m,1,2.2830632040004275,677.5252863609994,None,677.5252863609994,None,677.5252863609994,None,679.8581542269994,None,679.8581542269994,None,679.8581542269994,None,679.8581542269994,None,,,,,,,,,,,,,,,,,,,,,,,,,,,,,,,,,,,,,,,,,,,,001,78,2020_Feb_06_0958,spring_faces,3.1.5,60.04732065146866,
condition files/Stage1_1.xlsx,,B2,T1,m,"['c', 'm']","['Clue', 'Monopoly']","[-0.15, 0.5]","[0.15, 0.5]",1,1,,,,,,,,,0,6,6,6,0,0,0,2,,,,,,,,,,,,,,,,,,,,,,,,,,,,,,,,,,,,,,,,,,,,,,,,,,,,,,,681.8417027319992,None,681.8417027319992,None,681.8417027319992,None,m,1,1.7128259820001404,683.3755883650001,None,683.3755883650001,None,683.3755883650001,None,685.1415843619998,None,685.1415843619998,None,685.1415843619998,None,685.1415843619998,None,,,,,,,,,,,,,,,,,,,,,,,,,,,,,,,,,,,,,,,,,,,,001,78,2020_Feb_06_0958,spring_faces,3.1.5,60.04732065146866,
condition files/Stage1_1.xlsx,,B3,T3,c,"['c', 'm']","['Clue', 'Monopoly']","[-0.15, 0.5]","[0.15, 0.5]",1,1,,,,,,,,,0,6,6,6,0,1,1,4,,,,,,,,,,,,,,,,,,,,,,,,,,,,,,,,,,,,,,,,,,,,,,,,,,,,,,,687.1081600489997,None,687.1081600489997,None,687.1081600489997,None,m,0,3.743161267000687,688.641217677,None,688.641217677,None,688.641217677,None,692.4441315710001,None,692.4441315710001,None,692.4441315710001,None,692.4441315710001,None,,,,,,,,,,,,,,,,,,,,,,,,,,,,,,,,,,,,,,,,,,,,001,78,2020_Feb_06_0958,spring_faces,3.1.5,60.04732065146866,
condition files/Stage1_1.xlsx,,T4,B3,m,"['c', 'm']","['Clue', 'Monopoly']","[-0.15, 0.5]","[0.15, 0.5]",1,1,,,,,,,,,0,6,6,6,0,2,2,6,,,,,,,,,,,,,,,,,,,,,,,,,,,,,,,,,,,,,,,,,,,,,,,,,,,,,,,694.407654435,None,694.407654435,None,694.407654435,None,m,1,1.4992152450004141,695.9411941729995,None,695.9411941729995,None,695.9411941729995,None,697.4927418029993,None,697.4927418029993,None,697.4927418029993,None,697.4927418029993,None,,,,,,,,,,,,,,,,,,,,,,,,,,,,,,,,,,,,,,,,,,,,001,78,2020_Feb_06_0958,spring_faces,3.1.5,60.04732065146866,
condition files/Stage1_1.xlsx,,T3,B4,c,"['c', 'm']","['Clue', 'Monopoly']","[-0.15, 0.5]","[0.15, 0.5]",1,1,,,,,,,,,0,6,6,6,0,3,3,5,,,,,,,,,,,,,,,,,,,,,,,,,,,,,,,,,,,,,,,,,,,,,,,,,,,,,,,699.4582254199995,None,699.4582254199995,None,699.4582254199995,None,c,1,1.1844535449999967,700.9918914579994,None,700.9918914579994,None,700.9918914579994,None,702.2429480269993,None,702.2429480269993,None,702.2429480269993,None,702.2429480269993,None,,,,,,,,,,,,,,,,,,,,,,,,,,,,,,,,,,,,,,,,,,,,001,78,2020_Feb_06_0958,spring_faces,3.1.5,60.04732065146866,
condition files/Stage1_1.xlsx,,T2,B2,m,"['c', 'm']","['Clue', 'Monopoly']","[-0.15, 0.5]","[0.15, 0.5]",1,1,,,,,,,,,0,6,6,6,0,4,4,3,,,,,,,,,,,,,,,,,,,,,,,,,,,,,,,,,,,,,,,,,,,,,,,,,,,,,,,704.2077845209997,None,704.2077845209997,None,704.2077845209997,None,m,1,2.0506108229992606,705.7577856119997,None,705.7577856119997,None,705.7577856119997,None,707.8608107599994,None,707.8608107599994,None,707.8608107599994,None,707.8608107599994,None,,,,,,,,,,,,,,,,,,,,,,,,,,,,,,,,,,,,,,,,,,,,001,78,2020_Feb_06_0958,spring_faces,3.1.5,60.04732065146866,
condition files/Stage1_1.xlsx,,B1,T2,c,"['c', 'm']","['Clue', 'Monopoly']","[-0.15, 0.5]","[0.15, 0.5]",1,1,,,,,,,,,0,6,6,6,0,5,5,1,,,,,,,,,,,,,,,,,,,,,,,,,,,,,,,,,,,,,,,,,,,,,,,,,,,,,,,709.825074591,None,709.825074591,None,709.825074591,None,c,1,2.9456285659998684,711.3747502749993,None,711.3747502749993,None,711.3747502749993,None,714.3750450520001,None,714.3750450520001,None,714.3750450520001,None,714.3750450520001,None,,,,,,,,,,,,,,,,,,,,,,,,,,,,,,,,,,,,,,,,,,,,001,78,2020_Feb_06_0958,spring_faces,3.1.5,60.04732065146866,
condition files/Stage1_1.xlsx,,T1,B1,c,"['c', 'm']","['Clue', 'Monopoly']","[-0.15, 0.5]","[0.15, 0.5]",1,1,,,,,,,,,0,6,6,6,0,6,6,0,,,,,,,,,,,,,,,,,,,,,,,,,,,,,,,,,,,,,,,,,,,,,,,,,,,,,,,716.3411232429999,None,716.3411232429999,None,716.3411232429999,None,c,1,4.71650813999986,717.8918444749997,None,717.8918444749997,None,717.8918444749997,None,722.658300393,None,722.658300393,None,722.658300393,None,722.658300393,None,,,,,,,,,,,,,,,,,,,,,,,,,,,,,,,,,,,,,,,,,,,,001,78,2020_Feb_06_0958,spring_faces,3.1.5,60.04732065146866,
condition files/Stage1_1.xlsx,,B4,T4,m,"['c', 'm']","['Clue', 'Monopoly']","[-0.15, 0.5]","[0.15, 0.5]",1,1,,,,,,,,,0,6,6,6,0,7,7,7,,,,,,,,,,,,,,,,,,,,,,,,,,,,,,,,,,,,,,,,,,,,,,,,,,,,,,,724.6247044209995,None,724.6247044209995,None,724.6247044209995,None,m,1,3.873405532000106,726.1590838069997,None,726.1590838069997,None,726.1590838069997,None,730.0922765320001,None,730.0922765320001,None,730.0922765320001,None,730.0922765320001,None,,,,,,,,,,,,,,,,,,,,,,,,,,,,,,,,,,,,,,,,,,,,001,78,2020_Feb_06_0958,spring_faces,3.1.5,60.04732065146866,
condition files/Stage1_2.xlsx,,B3,T4,m,"['c', 'm']","['Clue', 'Monopoly']","[-0.15, 0.5]","[0.15, 0.5]",1,1,,,,,,,,,0,7,7,7,0,0,0,6,,,,,,,,,,,,,,,,,,,,,,,,,,,,,,,,,,,,,,,,,,,,,,,,,,,,,,,732.0748183709993,None,732.0748183709993,None,732.0748183709993,None,m,1,1.928029902000162,733.6083556969998,None,733.6083556969998,None,733.6083556969998,None,735.5913289249993,None,735.5913289249993,None,735.5913289249993,None,735.5913289249993,None,,,,,,,,,,,,,,,,,,,,,,,,,,,,,,,,,,,,,,,,,,,,001,78,2020_Feb_06_0958,spring_faces,3.1.5,60.04732065146866,
condition files/Stage1_2.xlsx,,T1,B2,m,"['c', 'm']","['Clue', 'Monopoly']","[-0.15, 0.5]","[0.15, 0.5]",1,1,,,,,,,,,0,7,7,7,0,1,1,2,,,,,,,,,,,,,,,,,,,,,,,,,,,,,,,,,,,,,,,,,,,,,,,,,,,,,,,737.5583586579996,None,737.5583586579996,None,737.5583586579996,None,m,1,2.4600303899997016,739.1084403539999,None,739.1084403539999,None,739.1084403539999,None,741.6252769319999,None,741.6252769319999,None,741.6252769319999,None,741.6252769319999,None,,,,,,,,,,,,,,,,,,,,,,,,,,,,,,,,,,,,,,,,,,,,001,78,2020_Feb_06_0958,spring_faces,3.1.5,60.04732065146866,
condition files/Stage1_2.xlsx,,T4,B4,m,"['c', 'm']","['Clue', 'Monopoly']","[-0.15, 0.5]","[0.15, 0.5]",1,1,,,,,,,,,0,7,7,7,0,2,2,7,,,,,,,,,,,,,,,,,,,,,,,,,,,,,,,,,,,,,,,,,,,,,,,,,,,,,,,743.5908282809996,None,743.5908282809996,None,743.5908282809996,None,m,1,1.8668287869995766,745.125545465,None,745.125545465,None,745.125545465,None,747.0582810879996,None,747.0582810879996,None,747.0582810879996,None,747.0582810879996,None,,,,,,,,,,,,,,,,,,,,,,,,,,,,,,,,,,,,,,,,,,,,001,78,2020_Feb_06_0958,spring_faces,3.1.5,60.04732065146866,
condition files/Stage1_2.xlsx,,T2,B1,c,"['c', 'm']","['Clue', 'Monopoly']","[-0.15, 0.5]","[0.15, 0.5]",1,1,,,,,,,,,0,7,7,7,0,3,3,1,,,,,,,,,,,,,,,,,,,,,,,,,,,,,,,,,,,,,,,,,,,,,,,,,,,,,,,749.0247075919997,None,749.0247075919997,None,749.0247075919997,None,c,1,2.3372768549998,750.5751352939997,None,750.5751352939997,None,750.5751352939997,None,752.9773329199998,None,752.9773329199998,None,752.9773329199998,None,752.9773329199998,None,,,,,,,,,,,,,,,,,,,,,,,,,,,,,,,,,,,,,,,,,,,,001,78,2020_Feb_06_0958,spring_faces,3.1.5,60.04732065146866,
condition files/Stage1_2.xlsx,,B4,T3,c,"['c', 'm']","['Clue', 'Monopoly']","[-0.15, 0.5]","[0.15, 0.5]",1,1,,,,,,,,,0,7,7,7,0,4,4,5,,,,,,,,,,,,,,,,,,,,,,,,,,,,,,,,,,,,,,,,,,,,,,,,,,,,,,,754.9418749709994,None,754.9418749709994,None,754.9418749709994,None,c,1,2.069963529999768,756.4744583599995,None,756.4744583599995,None,756.4744583599995,None,758.6078770690001,None,758.6078770690001,None,758.6078770690001,None,758.6078770690001,None,,,,,,,,,,,,,,,,,,,,,,,,,,,,,,,,,,,,,,,,,,,,001,78,2020_Feb_06_0958,spring_faces,3.1.5,60.04732065146866,
condition files/Stage1_2.xlsx,,T3,B3,c,"['c', 'm']","['Clue', 'Monopoly']","[-0.15, 0.5]","[0.15, 0.5]",1,1,,,,,,,,,0,7,7,7,0,5,5,4,,,,,,,,,,,,,,,,,,,,,,,,,,,,,,,,,,,,,,,,,,,,,,,,,,,,,,,760.5741423169993,None,760.5741423169993,None,760.5741423169993,None,m,0,3.091976641000656,762.1084969859994,None,762.1084969859994,None,762.1084969859994,None,765.258666357,None,765.258666357,None,765.258666357,None,765.258666357,None,,,,,,,,,,,,,,,,,,,,,,,,,,,,,,,,,,,,,,,,,,,,001,78,2020_Feb_06_0958,spring_faces,3.1.5,60.04732065146866,
condition files/Stage1_2.xlsx,,B1,T1,c,"['c', 'm']","['Clue', 'Monopoly']","[-0.15, 0.5]","[0.15, 0.5]",1,1,,,,,,,,,0,7,7,7,0,6,6,0,,,,,,,,,,,,,,,,,,,,,,,,,,,,,,,,,,,,,,,,,,,,,,,,,,,,,,,767.2243979979994,None,767.2243979979994,None,767.2243979979994,None,c,1,1.9453127960005077,768.7750789639995,None,768.7750789639995,None,768.7750789639995,None,770.7748671279996,None,770.7748671279996,None,770.7748671279996,None,770.7748671279996,None,,,,,,,,,,,,,,,,,,,,,,,,,,,,,,,,,,,,,,,,,,,,001,78,2020_Feb_06_0958,spring_faces,3.1.5,60.04732065146866,
condition files/Stage1_2.xlsx,,B2,T2,m,"['c', 'm']","['Clue', 'Monopoly']","[-0.15, 0.5]","[0.15, 0.5]",1,1,,,,,,,,,0,7,7,7,0,7,7,3,,,,,,,,,,,,,,,,,,,,,,,,,,,,,,,,,,,,,,,,,,,,,,,,,,,,,,,772.7410106829993,None,772.7410106829993,None,772.7410106829993,None,m,1,1.5493580510001266,774.275057977,None,774.275057977,None,774.275057977,None,775.8754085909995,None,775.8754085909995,None,775.8754085909995,None,775.8754085909995,None,,,,,,,,,,,,,,,,,,,,,,,,,,,,,,,,,,,,,,,,,,,,001,78,2020_Feb_06_0958,spring_faces,3.1.5,60.04732065146866,
condition files/Stage1_1.xlsx,,B3,T3,c,"['c', 'm']","['Clue', 'Monopoly']","[-0.15, 0.5]","[0.15, 0.5]",1,1,,,,,,,,,0,8,8,8,0,0,0,4,,,,,,,,,,,,,,,,,,,,,,,,,,,,,,,,,,,,,,,,,,,,,,,,,,,,,,,777.8583387789995,None,777.8583387789995,None,777.8583387789995,None,c,1,4.272049016999517,779.3924347550001,None,779.3924347550001,None,779.3924347550001,None,783.7266125279994,None,783.7266125279994,None,783.7266125279994,None,783.7266125279994,None,,,,,,,,,,,,,,,,,,,,,,,,,,,,,,,,,,,,,,,,,,,,001,78,2020_Feb_06_0958,spring_faces,3.1.5,60.04732065146866,
condition files/Stage1_1.xlsx,,T3,B4,c,"['c', 'm']","['Clue', 'Monopoly']","[-0.15, 0.5]","[0.15, 0.5]",1,1,,,,,,,,,0,8,8,8,0,1,1,5,,,,,,,,,,,,,,,,,,,,,,,,,,,,,,,,,,,,,,,,,,,,,,,,,,,,,,,785.6913030269998,None,785.6913030269998,None,785.6913030269998,None,c,1,1.3662059759999465,787.2261665759997,None,787.2261665759997,None,787.2261665759997,None,788.6414826089995,None,788.6414826089995,None,788.6414826089995,None,788.6414826089995,None,,,,,,,,,,,,,,,,,,,,,,,,,,,,,,,,,,,,,,,,,,,,001,78,2020_Feb_06_0958,spring_faces,3.1.5,60.04732065146866,
condition files/Stage1_1.xlsx,,T1,B1,c,"['c', 'm']","['Clue', 'Monopoly']","[-0.15, 0.5]","[0.15, 0.5]",1,1,,,,,,,,,0,8,8,8,0,2,2,0,,,,,,,,,,,,,,,,,,,,,,,,,,,,,,,,,,,,,,,,,,,,,,,,,,,,,,,790.6074982279997,None,790.6074982279997,None,790.6074982279997,None,c,1,1.714010729999245,792.1583916059999,None,792.1583916059999,None,792.1583916059999,None,793.9250782459994,None,793.9250782459994,None,793.9250782459994,None,793.9250782459994,None,,,,,,,,,,,,,,,,,,,,,,,,,,,,,,,,,,,,,,,,,,,,001,78,2020_Feb_06_0958,spring_faces,3.1.5,60.04732065146866,
condition files/Stage1_1.xlsx,,T2,B2,m,"['c', 'm']","['Clue', 'Monopoly']","[-0.15, 0.5]","[0.15, 0.5]",1,1,,,,,,,,,0,8,8,8,0,3,3,3,,,,,,,,,,,,,,,,,,,,,,,,,,,,,,,,,,,,,,,,,,,,,,,,,,,,,,,795.8911355069995,None,795.8911355069995,None,795.8911355069995,None,c,0,1.2317114870002115,797.424702845,None,797.424702845,None,797.424702845,None,798.7084833299996,None,798.7084833299996,None,798.7084833299996,None,798.7084833299996,None,,,,,,,,,,,,,,,,,,,,,,,,,,,,,,,,,,,,,,,,,,,,001,78,2020_Feb_06_0958,spring_faces,3.1.5,60.04732065146866,
condition files/Stage1_1.xlsx,,B4,T4,m,"['c', 'm']","['Clue', 'Monopoly']","[-0.15, 0.5]","[0.15, 0.5]",1,1,,,,,,,,,0,8,8,8,0,4,4,7,,,,,,,,,,,,,,,,,,,,,,,,,,,,,,,,,,,,,,,,,,,,,,,,,,,,,,,800.6741882839997,None,800.6741882839997,None,800.6741882839997,None,m,1,2.6233835389994056,802.2250795709997,None,802.2250795709997,None,802.2250795709997,None,804.9080953769999,None,804.9080953769999,None,804.9080953769999,None,804.9080953769999,None,,,,,,,,,,,,,,,,,,,,,,,,,,,,,,,,,,,,,,,,,,,,001,78,2020_Feb_06_0958,spring_faces,3.1.5,60.04732065146866,
condition files/Stage1_1.xlsx,,T4,B3,m,"['c', 'm']","['Clue', 'Monopoly']","[-0.15, 0.5]","[0.15, 0.5]",1,1,,,,,,,,,0,8,8,8,0,5,5,6,,,,,,,,,,,,,,,,,,,,,,,,,,,,,,,,,,,,,,,,,,,,,,,,,,,,,,,806.8748074389996,None,806.8748074389996,None,806.8748074389996,None,m,1,1.320152457000404,808.4082704120001,None,808.4082704120001,None,808.4082704120001,None,809.791722041,None,809.791722041,None,809.791722041,None,809.791722041,None,,,,,,,,,,,,,,,,,,,,,,,,,,,,,,,,,,,,,,,,,,,,001,78,2020_Feb_06_0958,spring_faces,3.1.5,60.04732065146866,
condition files/Stage1_1.xlsx,,B2,T1,m,"['c', 'm']","['Clue', 'Monopoly']","[-0.15, 0.5]","[0.15, 0.5]",1,1,,,,,,,,,0,8,8,8,0,6,6,2,,,,,,,,,,,,,,,,,,,,,,,,,,,,,,,,,,,,,,,,,,,,,,,,,,,,,,,811.7574520999997,None,811.7574520999997,None,811.7574520999997,None,m,1,2.180261069000153,813.2921792950001,None,813.2921792950001,None,813.2921792950001,None,815.5244825079999,None,815.5244825079999,None,815.5244825079999,None,815.5244825079999,None,,,,,,,,,,,,,,,,,,,,,,,,,,,,,,,,,,,,,,,,,,,,001,78,2020_Feb_06_0958,spring_faces,3.1.5,60.04732065146866,
condition files/Stage1_1.xlsx,,B1,T2,c,"['c', 'm']","['Clue', 'Monopoly']","[-0.15, 0.5]","[0.15, 0.5]",1,1,,,,,,,,,0,8,8,8,0,7,7,1,,,,,,,,,,,,,,,,,,,,,,,,,,,,,,,,,,,,,,,,,,,,,,,,,,,,,,,817.4910311999993,None,817.4910311999993,None,817.4910311999993,None,c,1,2.3343803730003856,819.0420199319997,None,819.0420199319997,None,819.0420199319997,None,821.4422560779994,None,821.4422560779994,None,821.4422560779994,None,821.4422560779994,None,,,,,,,,,,,,,,,,,,,,,,,,,,,,,,,,,,,,,,,,,,,,001,78,2020_Feb_06_0958,spring_faces,3.1.5,60.04732065146866,
condition files/Stage1_2.xlsx,,B1,T1,c,"['c', 'm']","['Clue', 'Monopoly']","[-0.15, 0.5]","[0.15, 0.5]",1,1,,,,,,,,,0,9,9,9,0,0,0,0,,,,,,,,,,,,,,,,,,,,,,,,,,,,,,,,,,,,,,,,,,,,,,,,,,,,,,,823.4250539529994,None,823.4250539529994,None,823.4250539529994,None,c,1,2.7857481720002397,824.9586921989994,None,824.9586921989994,None,824.9586921989994,None,827.8084132439999,None,827.8084132439999,None,827.8084132439999,None,827.8084132439999,None,,,,,,,,,,,,,,,,,,,,,,,,,,,,,,,,,,,,,,,,,,,,001,78,2020_Feb_06_0958,spring_faces,3.1.5,60.04732065146866,
condition files/Stage1_2.xlsx,,T1,B2,m,"['c', 'm']","['Clue', 'Monopoly']","[-0.15, 0.5]","[0.15, 0.5]",1,1,,,,,,,,,0,9,9,9,0,1,1,2,,,,,,,,,,,,,,,,,,,,,,,,,,,,,,,,,,,,,,,,,,,,,,,,,,,,,,,829.7747185569997,None,829.7747185569997,None,829.7747185569997,None,m,1,2.117059917000006,831.3073537999999,None,831.3073537999999,None,831.3073537999999,None,833.49175062,None,833.49175062,None,833.49175062,None,833.49175062,None,,,,,,,,,,,,,,,,,,,,,,,,,,,,,,,,,,,,,,,,,,,,001,78,2020_Feb_06_0958,spring_faces,3.1.5,60.04732065146866,
condition files/Stage1_2.xlsx,,B3,T4,m,"['c', 'm']","['Clue', 'Monopoly']","[-0.15, 0.5]","[0.15, 0.5]",1,1,,,,,,,,,0,9,9,9,0,2,2,6,,,,,,,,,,,,,,,,,,,,,,,,,,,,,,,,,,,,,,,,,,,,,,,,,,,,,,,835.4413691679993,None,835.4413691679993,None,835.4413691679993,None,m,1,1.5852176460002738,836.9751658899995,None,836.9751658899995,None,836.9751658899995,None,838.6244994640001,None,838.6244994640001,None,838.6244994640001,None,838.6244994640001,None,,,,,,,,,,,,,,,,,,,,,,,,,,,,,,,,,,,,,,,,,,,,001,78,2020_Feb_06_0958,spring_faces,3.1.5,60.04732065146866,
condition files/Stage1_2.xlsx,,T3,B3,c,"['c', 'm']","['Clue', 'Monopoly']","[-0.15, 0.5]","[0.15, 0.5]",1,1,,,,,,,,,0,9,9,9,0,3,3,4,,,,,,,,,,,,,,,,,,,,,,,,,,,,,,,,,,,,,,,,,,,,,,,,,,,,,,,840.5913984230001,None,840.5913984230001,None,840.5913984230001,None,c,1,2.8661747569994986,842.1261849859993,None,842.1261849859993,None,842.1261849859993,None,845.0590886069995,None,845.0590886069995,None,845.0590886069995,None,845.0590886069995,None,,,,,,,,,,,,,,,,,,,,,,,,,,,,,,,,,,,,,,,,,,,,001,78,2020_Feb_06_0958,spring_faces,3.1.5,60.04732065146866,
condition files/Stage1_2.xlsx,,T4,B4,m,"['c', 'm']","['Clue', 'Monopoly']","[-0.15, 0.5]","[0.15, 0.5]",1,1,,,,,,,,,0,9,9,9,0,4,4,7,,,,,,,,,,,,,,,,,,,,,,,,,,,,,,,,,,,,,,,,,,,,,,,,,,,,,,,847.0246034949996,None,847.0246034949996,None,847.0246034949996,None,m,1,5.649805541000205,848.5745906920001,None,848.5745906920001,None,848.5745906920001,None,854.2743567769994,None,854.2743567769994,None,854.2743567769994,None,854.2743567769994,None,,,,,,,,,,,,,,,,,,,,,,,,,,,,,,,,,,,,,,,,,,,,001,78,2020_Feb_06_0958,spring_faces,3.1.5,60.04732065146866,
condition files/Stage1_2.xlsx,,T2,B1,c,"['c', 'm']","['Clue', 'Monopoly']","[-0.15, 0.5]","[0.15, 0.5]",1,1,,,,,,,,,0,9,9,9,0,5,5,1,,,,,,,,,,,,,,,,,,,,,,,,,,,,,,,,,,,,,,,,,,,,,,,,,,,,,,,856.241284357,None,856.241284357,None,856.241284357,None,c,1,1.4726877459997922,857.7917875659996,None,857.7917875659996,None,857.7917875659996,None,859.341787112,None,859.341787112,None,859.341787112,None,859.341787112,None,,,,,,,,,,,,,,,,,,,,,,,,,,,,,,,,,,,,,,,,,,,,001,78,2020_Feb_06_0958,spring_faces,3.1.5,60.04732065146866,
condition files/Stage1_2.xlsx,,B4,T3,c,"['c', 'm']","['Clue', 'Monopoly']","[-0.15, 0.5]","[0.15, 0.5]",1,1,,,,,,,,,0,9,9,9,0,6,6,5,,,,,,,,,,,,,,,,,,,,,,,,,,,,,,,,,,,,,,,,,,,,,,,,,,,,,,,861.2911599700001,None,861.2911599700001,None,861.2911599700001,None,c,1,3.557453658000668,862.8269028139994,None,862.8269028139994,None,862.8269028139994,None,866.4415094189999,None,866.4415094189999,None,866.4415094189999,None,866.4415094189999,None,,,,,,,,,,,,,,,,,,,,,,,,,,,,,,,,,,,,,,,,,,,,001,78,2020_Feb_06_0958,spring_faces,3.1.5,60.04732065146866,
condition files/Stage1_2.xlsx,,B2,T2,m,"['c', 'm']","['Clue', 'Monopoly']","[-0.15, 0.5]","[0.15, 0.5]",1,1,,,,,,,,,0,9,9,9,0,7,7,3,,,,,,,,,,,,,,,,,,,,,,,,,,,,,,,,,,,,,,,,,,,,,,,,,,,,,,,868.40807365,None,868.40807365,None,868.40807365,None,m,1,2.4902666510006384,869.9422226500001,None,869.9422226500001,None,869.9422226500001,None,872.4907037319999,None,872.4907037319999,None,872.4907037319999,None,872.4907037319999,None,,,,,,,,,,,,,,,,,,,,,,,,,,,,,,,,,,,,,,,,,,,,001,78,2020_Feb_06_0958,spring_faces,3.1.5,60.04732065146866,
condition files/Stage1_1.xlsx,,B3,T3,c,"['c', 'm']","['Clue', 'Monopoly']","[-0.15, 0.5]","[0.15, 0.5]",1,1,,,,,,,,,0,10,10,10,0,0,0,4,,,,,,,,,,,,,,,,,,,,,,,,,,,,,,,,,,,,,,,,,,,,,,,,,,,,,,,874.4747177219997,None,874.4747177219997,None,874.4747177219997,None,c,1,1.8965473459993518,876.0078816360001,None,876.0078816360001,None,876.0078816360001,None,877.9748398429992,None,877.9748398429992,None,877.9748398429992,None,877.9748398429992,None,,,,,,,,,,,,,,,,,,,,,,,,,,,,,,,,,,,,,,,,,,,,001,78,2020_Feb_06_0958,spring_faces,3.1.5,60.04732065146866,
condition files/Stage1_1.xlsx,,T2,B2,m,"['c', 'm']","['Clue', 'Monopoly']","[-0.15, 0.5]","[0.15, 0.5]",1,1,,,,,,,,,0,10,10,10,0,1,1,3,,,,,,,,,,,,,,,,,,,,,,,,,,,,,,,,,,,,,,,,,,,,,,,,,,,,,,,879.9252325540001,None,879.9252325540001,None,879.9252325540001,None,m,1,2.5732376799996928,881.4752312999999,None,881.4752312999999,None,881.4752312999999,None,884.1095369340001,None,884.1095369340001,None,884.1095369340001,None,884.1095369340001,None,,,,,,,,,,,,,,,,,,,,,,,,,,,,,,,,,,,,,,,,,,,,001,78,2020_Feb_06_0958,spring_faces,3.1.5,60.04732065146866,
condition files/Stage1_1.xlsx,,T1,B1,c,"['c', 'm']","['Clue', 'Monopoly']","[-0.15, 0.5]","[0.15, 0.5]",1,1,,,,,,,,,0,10,10,10,0,2,2,0,,,,,,,,,,,,,,,,,,,,,,,,,,,,,,,,,,,,,,,,,,,,,,,,,,,,,,,886.0744015350001,None,886.0744015350001,None,886.0744015350001,None,c,1,2.7587942320005823,887.6096968209995,None,887.6096968209995,None,887.6096968209995,None,890.4418725729993,None,890.4418725729993,None,890.4418725729993,None,890.4418725729993,None,,,,,,,,,,,,,,,,,,,,,,,,,,,,,,,,,,,,,,,,,,,,001,78,2020_Feb_06_0958,spring_faces,3.1.5,60.04732065146866,
condition files/Stage1_1.xlsx,,B4,T4,m,"['c', 'm']","['Clue', 'Monopoly']","[-0.15, 0.5]","[0.15, 0.5]",1,1,,,,,,,,,0,10,10,10,0,3,3,7,,,,,,,,,,,,,,,,,,,,,,,,,,,,,,,,,,,,,,,,,,,,,,,,,,,,,,,892.3908908650001,None,892.3908908650001,None,892.3908908650001,None,m,1,8.5382235269999,893.9261537839993,None,893.9261537839993,None,893.9261537839993,None,902.5263780509995,None,902.5263780509995,None,902.5263780509995,None,902.5263780509995,None,,,,,,,,,,,,,,,,,,,,,,,,,,,,,,,,,,,,,,,,,,,,001,78,2020_Feb_06_0958,spring_faces,3.1.5,60.04732065146866,
condition files/Stage1_1.xlsx,,T4,B3,m,"['c', 'm']","['Clue', 'Monopoly']","[-0.15, 0.5]","[0.15, 0.5]",1,1,,,,,,,,,0,10,10,10,0,4,4,6,,,,,,,,,,,,,,,,,,,,,,,,,,,,,,,,,,,,,,,,,,,,,,,,,,,,,,,904.4914322629993,None,904.4914322629993,None,904.4914322629993,None,m,1,1.654431934999593,906.0260382420001,None,906.0260382420001,None,906.0260382420001,None,907.7417247650001,None,907.7417247650001,None,907.7417247650001,None,907.7417247650001,None,,,,,,,,,,,,,,,,,,,,,,,,,,,,,,,,,,,,,,,,,,,,001,78,2020_Feb_06_0958,spring_faces,3.1.5,60.04732065146866,
condition files/Stage1_1.xlsx,,B2,T1,m,"['c', 'm']","['Clue', 'Monopoly']","[-0.15, 0.5]","[0.15, 0.5]",1,1,,,,,,,,,0,10,10,10,0,5,5,2,,,,,,,,,,,,,,,,,,,,,,,,,,,,,,,,,,,,,,,,,,,,,,,,,,,,,,,909.7081320389998,None,909.7081320389998,None,909.7081320389998,None,m,1,2.1022377979998055,911.2421898140001,None,911.2421898140001,None,911.2421898140001,None,913.4084203899993,None,913.4084203899993,None,913.4084203899993,None,913.4084203899993,None,,,,,,,,,,,,,,,,,,,,,,,,,,,,,,,,,,,,,,,,,,,,001,78,2020_Feb_06_0958,spring_faces,3.1.5,60.04732065146866,
condition files/Stage1_1.xlsx,,T3,B4,c,"['c', 'm']","['Clue', 'Monopoly']","[-0.15, 0.5]","[0.15, 0.5]",1,1,,,,,,,,,0,10,10,10,0,6,6,5,,,,,,,,,,,,,,,,,,,,,,,,,,,,,,,,,,,,,,,,,,,,,,,,,,,,,,,915.3749541389998,None,915.3749541389998,None,915.3749541389998,None,c,1,1.9565363129995603,916.9079381739994,None,916.9079381739994,None,916.9079381739994,None,918.9269357309995,None,918.9269357309995,None,918.9269357309995,None,918.9269357309995,None,,,,,,,,,,,,,,,,,,,,,,,,,,,,,,,,,,,,,,,,,,,,001,78,2020_Feb_06_0958,spring_faces,3.1.5,60.04732065146866,
condition files/Stage1_1.xlsx,,B1,T2,c,"['c', 'm']","['Clue', 'Monopoly']","[-0.15, 0.5]","[0.15, 0.5]",1,1,,,,,,,,,0,10,10,10,0,7,7,1,,,,,,,,,,,,,,,,,,,,,,,,,,,,,,,,,,,,,,,,,,,,,,,,,,,,,,,920.8909214529995,None,920.8909214529995,None,920.8909214529995,None,c,1,1.6696566359996723,922.4267341239993,None,922.4267341239993,None,922.4267341239993,None,924.1583441779994,None,924.1583441779994,None,924.1583441779994,None,924.1583441779994,None,,,,,,,,,,,,,,,,,,,,,,,,,,,,,,,,,,,,,,,,,,,,001,78,2020_Feb_06_0958,spring_faces,3.1.5,60.04732065146866,
condition files/Stage1_2.xlsx,,B3,T4,m,"['c', 'm']","['Clue', 'Monopoly']","[-0.15, 0.5]","[0.15, 0.5]",1,1,,,,,,,,,0,11,11,11,0,0,0,6,,,,,,,,,,,,,,,,,,,,,,,,,,,,,,,,,,,,,,,,,,,,,,,,,,,,,,,926.1411977499993,None,926.1411977499993,None,926.1411977499993,None,m,1,0.8687559689997215,927.6916681929997,None,927.6916681929997,None,927.6916681929997,None,928.6273786209995,None,928.6273786209995,None,928.6273786209995,None,928.6273786209995,None,,,,,,,,,,,,,,,,,,,,,,,,,,,,,,,,,,,,,,,,,,,,001,78,2020_Feb_06_0958,spring_faces,3.1.5,60.04732065146866,
condition files/Stage1_2.xlsx,,T1,B2,m,"['c', 'm']","['Clue', 'Monopoly']","[-0.15, 0.5]","[0.15, 0.5]",1,1,,,,,,,,,0,11,11,11,0,1,1,2,,,,,,,,,,,,,,,,,,,,,,,,,,,,,,,,,,,,,,,,,,,,,,,,,,,,,,,930.591381192,None,930.591381192,None,930.591381192,None,m,1,0.8040690470006666,932.124357699,None,932.124357699,None,932.124357699,None,932.9916890489994,None,932.9916890489994,None,932.9916890489994,None,932.9916890489994,None,,,,,,,,,,,,,,,,,,,,,,,,,,,,,,,,,,,,,,,,,,,,001,78,2020_Feb_06_0958,spring_faces,3.1.5,60.04732065146866,
condition files/Stage1_2.xlsx,,B1,T1,c,"['c', 'm']","['Clue', 'Monopoly']","[-0.15, 0.5]","[0.15, 0.5]",1,1,,,,,,,,,0,11,11,11,0,2,2,0,,,,,,,,,,,,,,,,,,,,,,,,,,,,,,,,,,,,,,,,,,,,,,,,,,,,,,,934.958033379,None,934.958033379,None,934.958033379,None,c,1,0.9491729729998042,936.4912445489999,None,936.4912445489999,None,936.4912445489999,None,937.4934206529997,None,937.4934206529997,None,937.4934206529997,None,937.4934206529997,None,,,,,,,,,,,,,,,,,,,,,,,,,,,,,,,,,,,,,,,,,,,,001,78,2020_Feb_06_0958,spring_faces,3.1.5,60.04732065146866,
condition files/Stage1_2.xlsx,,T2,B1,c,"['c', 'm']","['Clue', 'Monopoly']","[-0.15, 0.5]","[0.15, 0.5]",1,1,,,,,,,,,0,11,11,11,0,3,3,1,,,,,,,,,,,,,,,,,,,,,,,,,,,,,,,,,,,,,,,,,,,,,,,,,,,,,,,939.457518704,None,939.457518704,None,939.457518704,None,c,1,0.9911915450002198,940.9931723199998,None,940.9931723199998,None,940.9931723199998,None,942.0410254509998,None,942.0410254509998,None,942.0410254509998,None,942.0410254509998,None,,,,,,,,,,,,,,,,,,,,,,,,,,,,,,,,,,,,,,,,,,,,001,78,2020_Feb_06_0958,spring_faces,3.1.5,60.04732065146866,
condition files/Stage1_2.xlsx,,B2,T2,m,"['c', 'm']","['Clue', 'Monopoly']","[-0.15, 0.5]","[0.15, 0.5]",1,1,,,,,,,,,0,11,11,11,0,4,4,3,,,,,,,,,,,,,,,,,,,,,,,,,,,,,,,,,,,,,,,,,,,,,,,,,,,,,,,944.0081413889993,None,944.0081413889993,None,944.0081413889993,None,m,1,1.2414466189993618,945.5429170269999,None,945.5429170269999,None,945.5429170269999,None,946.8415932429998,None,946.8415932429998,None,946.8415932429998,None,946.8415932429998,None,,,,,,,,,,,,,,,,,,,,,,,,,,,,,,,,,,,,,,,,,,,,001,78,2020_Feb_06_0958,spring_faces,3.1.5,60.04732065146866,
condition files/Stage1_2.xlsx,,T4,B4,m,"['c', 'm']","['Clue', 'Monopoly']","[-0.15, 0.5]","[0.15, 0.5]",1,1,,,,,,,,,0,11,11,11,0,5,5,7,,,,,,,,,,,,,,,,,,,,,,,,,,,,,,,,,,,,,,,,,,,,,,,,,,,,,,,948.8080944419999,None,948.8080944419999,None,948.8080944419999,None,m,1,3.945737372999247,950.3426396689993,None,950.3426396689993,None,950.3426396689993,None,954.3415537889996,None,954.3415537889996,None,954.3415537889996,None,954.3415537889996,None,,,,,,,,,,,,,,,,,,,,,,,,,,,,,,,,,,,,,,,,,,,,001,78,2020_Feb_06_0958,spring_faces,3.1.5,60.04732065146866,
condition files/Stage1_2.xlsx,,T3,B3,c,"['c', 'm']","['Clue', 'Monopoly']","[-0.15, 0.5]","[0.15, 0.5]",1,1,,,,,,,,,0,11,11,11,0,6,6,4,,,,,,,,,,,,,,,,,,,,,,,,,,,,,,,,,,,,,,,,,,,,,,,,,,,,,,,956.3081512149993,None,956.3081512149993,None,956.3081512149993,None,c,1,2.2872286800002257,957.8412027079994,None,957.8412027079994,None,957.8412027079994,None,960.1932111309998,None,960.1932111309998,None,960.1932111309998,None,960.1932111309998,None,,,,,,,,,,,,,,,,,,,,,,,,,,,,,,,,,,,,,,,,,,,,001,78,2020_Feb_06_0958,spring_faces,3.1.5,60.04732065146866,
condition files/Stage1_2.xlsx,,B4,T3,c,"['c', 'm']","['Clue', 'Monopoly']","[-0.15, 0.5]","[0.15, 0.5]",1,1,,,,,,,,,0,11,11,11,0,7,7,5,,,,,,,,,,,,,,,,,,,,,,,,,,,,,,,,,,,,,,,,,,,,,,,,,,,,,,,962.1575971769998,None,962.1575971769998,None,962.1575971769998,None,c,1,1.125025241000003,963.6914639809993,None,963.6914639809993,None,963.6914639809993,None,964.8746584719993,None,964.8746584719993,None,964.8746584719993,None,964.8746584719993,None,,,,,,,,,,,,,,,,,,,,,,,,,,,,,,,,,,,,,,,,,,,,001,78,2020_Feb_06_0958,spring_faces,3.1.5,60.04732065146866,
,,,,,,,,,,,,,,,,,,,,,,,,,,,,,,,,,,,,,,,,,,,,,,,,,,,,,,,,,,,,,,,,,,,,,,,,,,,,,,,,,,,,,,,,,,,,,,,,,,,,,,,,,,,,,,,,966.8582292639994,None,space,4.174228810999921,971.8582700689994,None,,,,,,,,,,,,,,,,,,,,,,,,,,,,,,001,78,2020_Feb_06_0958,spring_faces,3.1.5,60.04732065146866,
condition files/Stage2_1.xlsx,,T3,B3,s,"['s', 'r']","['Stratego', 'Risk']","[-0.15, 0.5]","[0.15, 0.5]",1,1,,,,,,,,,,,,,,,,,0,0,0,0,0,0,0,4,,,,,,,,,,,,,,,,,,,,,,,,,,,,,,,,,,,,,,,,,,,,,,,976.091270934,None,976.091270934,None,976.091270934,None,s,1,1.3042044899993925,977.6082214359994,None,977.6082214359994,None,977.6082214359994,None,978.9743857289996,None,978.9743857289996,None,978.9743857289996,None,978.9743857289996,None,,,,,,,,,,,,,,,971.8582700689994,None,,,,,,,,,,,,,,,,,,,,,,,,,,,,001,78,2020_Feb_06_0958,spring_faces,3.1.5,60.04732065146866,
condition files/Stage2_1.xlsx,,B4,T4,r,"['s', 'r']","['Stratego', 'Risk']","[-0.15, 0.5]","[0.15, 0.5]",1,1,,,,,,,,,,,,,,,,,0,0,0,0,0,1,1,5,,,,,,,,,,,,,,,,,,,,,,,,,,,,,,,,,,,,,,,,,,,,,,,980.9415220199999,None,980.9415220199999,None,980.9415220199999,None,r,1,1.796966447000159,982.4754515239993,None,982.4754515239993,None,982.4754515239993,None,984.3256088079997,None,984.3256088079997,None,984.3256088079997,None,984.3256088079997,None,,,,,,,,,,,,,,,,,,,,,,,,,,,,,,,,,,,,,,,,,,,,001,78,2020_Feb_06_0958,spring_faces,3.1.5,60.04732065146866,
condition files/Stage2_1.xlsx,,T1,B1,s,"['s', 'r']","['Stratego', 'Risk']","[-0.15, 0.5]","[0.15, 0.5]",1,1,,,,,,,,,,,,,,,,,0,0,0,0,0,2,2,2,,,,,,,,,,,,,,,,,,,,,,,,,,,,,,,,,,,,,,,,,,,,,,,986.2912089000001,None,986.2912089000001,None,986.2912089000001,None,s,1,1.6453531389997806,987.8270645049997,None,987.8270645049997,None,987.8270645049997,None,989.5249739649998,None,989.5249739649998,None,989.5249739649998,None,989.5249739649998,None,,,,,,,,,,,,,,,,,,,,,,,,,,,,,,,,,,,,,,,,,,,,001,78,2020_Feb_06_0958,spring_faces,3.1.5,60.04732065146866,
condition files/Stage2_1.xlsx,,B6,T6,r,"['s', 'r']","['Stratego', 'Risk']","[-0.15, 0.5]","[0.15, 0.5]",1,1,,,,,,,,,,,,,,,,,0,0,0,0,0,3,3,1,,,,,,,,,,,,,,,,,,,,,,,,,,,,,,,,,,,,,,,,,,,,,,,991.4914644629998,None,991.4914644629998,None,991.4914644629998,None,r,1,1.9181974090006406,993.0262306289997,None,993.0262306289997,None,993.0262306289997,None,995.0084027429994,None,995.0084027429994,None,995.0084027429994,None,995.0084027429994,None,,,,,,,,,,,,,,,,,,,,,,,,,,,,,,,,,,,,,,,,,,,,001,78,2020_Feb_06_0958,spring_faces,3.1.5,60.04732065146866,
condition files/Stage2_1.xlsx,,T5,B5,s,"['s', 'r']","['Stratego', 'Risk']","[-0.15, 0.5]","[0.15, 0.5]",1,1,,,,,,,,,,,,,,,,,0,0,0,0,0,4,4,0,,,,,,,,,,,,,,,,,,,,,,,,,,,,,,,,,,,,,,,,,,,,,,,996.9747963579994,None,996.9747963579994,None,996.9747963579994,None,r,0,1.7633604860002379,998.5250947389995,None,998.5250947389995,None,998.5250947389995,None,1000.3584587579999,None,1000.3584587579999,None,1000.3584587579999,None,1000.3584587579999,None,,,,,,,,,,,,,,,,,,,,,,,,,,,,,,,,,,,,,,,,,,,,001,78,2020_Feb_06_0958,spring_faces,3.1.5,60.04732065146866,
condition files/Stage2_1.xlsx,,B2,T2,r,"['s', 'r']","['Stratego', 'Risk']","[-0.15, 0.5]","[0.15, 0.5]",1,1,,,,,,,,,,,,,,,,,0,0,0,0,0,5,5,3,,,,,,,,,,,,,,,,,,,,,,,,,,,,,,,,,,,,,,,,,,,,,,,1002.3076677409999,None,1002.3076677409999,None,1002.3076677409999,None,s,0,1.6472100549999595,1003.8412023909996,None,1003.8412023909996,None,1003.8412023909996,None,1005.5411191339999,None,1005.5411191339999,None,1005.5411191339999,None,1005.5411191339999,None,,,,,,,,,,,,,,,,,,,,,,,,,,,,,,,,,,,,,,,,,,,,001,78,2020_Feb_06_0958,spring_faces,3.1.5,60.04732065146866,
condition files/Stage2_2.xlsx,,T2,B2,r,"['s', 'r']","['Stratego', 'Risk']","[-0.15, 0.5]","[0.15, 0.5]",1,1,,,,,,,,,,,,,,,,,0,1,1,1,0,0,0,3,,,,,,,,,,,,,,,,,,,,,,,,,,,,,,,,,,,,,,,,,,,,,,,1007.5243697719998,None,1007.5243697719998,None,1007.5243697719998,None,r,1,0.8453171580003982,1009.0590794639993,None,1009.0590794639993,None,1009.0590794639993,None,1009.9584625919997,None,1009.9584625919997,None,1009.9584625919997,None,1009.9584625919997,None,,,,,,,,,,,,,,,,,,,,,,,,,,,,,,,,,,,,,,,,,,,,001,78,2020_Feb_06_0958,spring_faces,3.1.5,60.04732065146866,
condition files/Stage2_2.xlsx,,T4,B4,r,"['s', 'r']","['Stratego', 'Risk']","[-0.15, 0.5]","[0.15, 0.5]",1,1,,,,,,,,,,,,,,,,,0,1,1,1,0,1,1,5,,,,,,,,,,,,,,,,,,,,,,,,,,,,,,,,,,,,,,,,,,,,,,,1011.9246853059994,None,1011.9246853059994,None,1011.9246853059994,None,s,0,1.5487977109996791,1013.4595893879996,None,1013.4595893879996,None,1013.4595893879996,None,1015.0748586539994,None,1015.0748586539994,None,1015.0748586539994,None,1015.0748586539994,None,,,,,,,,,,,,,,,,,,,,,,,,,,,,,,,,,,,,,,,,,,,,001,78,2020_Feb_06_0958,spring_faces,3.1.5,60.04732065146866,
condition files/Stage2_2.xlsx,,T6,B6,r,"['s', 'r']","['Stratego', 'Risk']","[-0.15, 0.5]","[0.15, 0.5]",1,1,,,,,,,,,,,,,,,,,0,1,1,1,0,2,2,1,,,,,,,,,,,,,,,,,,,,,,,,,,,,,,,,,,,,,,,,,,,,,,,1017.0413892249999,None,1017.0413892249999,None,1017.0413892249999,None,s,0,2.5127242369999294,1018.5916807329995,None,1018.5916807329995,None,1018.5916807329995,None,1021.1586891119996,None,1021.1586891119996,None,1021.1586891119996,None,1021.1586891119996,None,,,,,,,,,,,,,,,,,,,,,,,,,,,,,,,,,,,,,,,,,,,,001,78,2020_Feb_06_0958,spring_faces,3.1.5,60.04732065146866,
condition files/Stage2_2.xlsx,,B1,T1,s,"['s', 'r']","['Stratego', 'Risk']","[-0.15, 0.5]","[0.15, 0.5]",1,1,,,,,,,,,,,,,,,,,0,1,1,1,0,3,3,2,,,,,,,,,,,,,,,,,,,,,,,,,,,,,,,,,,,,,,,,,,,,,,,1023.1246930389998,None,1023.1246930389998,None,1023.1246930389998,None,s,1,1.869342979999601,1024.6750715529997,None,1024.6750715529997,None,1024.6750715529997,None,1026.610308661,None,1026.610308661,None,1026.610308661,None,1026.610308661,None,,,,,,,,,,,,,,,,,,,,,,,,,,,,,,,,,,,,,,,,,,,,001,78,2020_Feb_06_0958,spring_faces,3.1.5,60.04732065146866,
condition files/Stage2_2.xlsx,,B3,T3,s,"['s', 'r']","['Stratego', 'Risk']","[-0.15, 0.5]","[0.15, 0.5]",1,1,,,,,,,,,,,,,,,,,0,1,1,1,0,4,4,4,,,,,,,,,,,,,,,,,,,,,,,,,,,,,,,,,,,,,,,,,,,,,,,1028.5750134009995,None,1028.5750134009995,None,1028.5750134009995,None,s,1,7.31715092200011,1030.1072684,None,1030.1072684,None,1030.1072684,None,1037.4749173619994,None,1037.4749173619994,None,1037.4749173619994,None,1037.4749173619994,None,,,,,,,,,,,,,,,,,,,,,,,,,,,,,,,,,,,,,,,,,,,,001,78,2020_Feb_06_0958,spring_faces,3.1.5,60.04732065146866,
condition files/Stage2_2.xlsx,,B5,T5,s,"['s', 'r']","['Stratego', 'Risk']","[-0.15, 0.5]","[0.15, 0.5]",1,1,,,,,,,,,,,,,,,,,0,1,1,1,0,5,5,0,,,,,,,,,,,,,,,,,,,,,,,,,,,,,,,,,,,,,,,,,,,,,,,1039.4413535519998,None,1039.4413535519998,None,1039.4413535519998,None,r,0,1.728545092000786,1040.9918217449995,None,1040.9918217449995,None,1040.9918217449995,None,1042.7748219300001,None,1042.7748219300001,None,1042.7748219300001,None,1042.7748219300001,None,,,,,,,,,,,,,,,,,,,,,,,,,,,,,,,,,,,,,,,,,,,,001,78,2020_Feb_06_0958,spring_faces,3.1.5,60.04732065146866,
condition files/Stage2_1.xlsx,,B2,T2,r,"['s', 'r']","['Stratego', 'Risk']","[-0.15, 0.5]","[0.15, 0.5]",1,1,,,,,,,,,,,,,,,,,0,2,2,2,0,0,0,3,,,,,,,,,,,,,,,,,,,,,,,,,,,,,,,,,,,,,,,,,,,,,,,1044.7578382249994,None,1044.7578382249994,None,1044.7578382249994,None,r,1,1.5316197110005305,1046.2928044009996,None,1046.2928044009996,None,1046.2928044009996,None,1047.875746957,None,1047.875746957,None,1047.875746957,None,1047.875746957,None,,,,,,,,,,,,,,,,,,,,,,,,,,,,,,,,,,,,,,,,,,,,001,78,2020_Feb_06_0958,spring_faces,3.1.5,60.04732065146866,
condition files/Stage2_1.xlsx,,T1,B1,s,"['s', 'r']","['Stratego', 'Risk']","[-0.15, 0.5]","[0.15, 0.5]",1,1,,,,,,,,,,,,,,,,,0,2,2,2,0,1,1,2,,,,,,,,,,,,,,,,,,,,,,,,,,,,,,,,,,,,,,,,,,,,,,,1049.8409912859997,None,1049.8409912859997,None,1049.8409912859997,None,r,0,0.9444438350001292,1051.3759363729996,None,1051.3759363729996,None,1051.3759363729996,None,1052.3762893969997,None,1052.3762893969997,None,1052.3762893969997,None,1052.3762893969997,None,,,,,,,,,,,,,,,,,,,,,,,,,,,,,,,,,,,,,,,,,,,,001,78,2020_Feb_06_0958,spring_faces,3.1.5,60.04732065146866,
condition files/Stage2_1.xlsx,,B4,T4,r,"['s', 'r']","['Stratego', 'Risk']","[-0.15, 0.5]","[0.15, 0.5]",1,1,,,,,,,,,,,,,,,,,0,2,2,2,0,2,2,5,,,,,,,,,,,,,,,,,,,,,,,,,,,,,,,,,,,,,,,,,,,,,,,1054.3416096559995,None,1054.3416096559995,None,1054.3416096559995,None,r,1,1.325446233000548,1055.8750543019996,None,1055.8750543019996,None,1055.8750543019996,None,1057.2592605459995,None,1057.2592605459995,None,1057.2592605459995,None,1057.2592605459995,None,,,,,,,,,,,,,,,,,,,,,,,,,,,,,,,,,,,,,,,,,,,,001,78,2020_Feb_06_0958,spring_faces,3.1.5,60.04732065146866,
condition files/Stage2_1.xlsx,,B6,T6,r,"['s', 'r']","['Stratego', 'Risk']","[-0.15, 0.5]","[0.15, 0.5]",1,1,,,,,,,,,,,,,,,,,0,2,2,2,0,3,3,1,,,,,,,,,,,,,,,,,,,,,,,,,,,,,,,,,,,,,,,,,,,,,,,1059.224568832,None,1059.224568832,None,1059.224568832,None,s,0,1.928719892999652,1060.759695578,None,1060.759695578,None,1060.759695578,None,1062.7420587699999,None,1062.7420587699999,None,1062.7420587699999,None,1062.7420587699999,None,,,,,,,,,,,,,,,,,,,,,,,,,,,,,,,,,,,,,,,,,,,,001,78,2020_Feb_06_0958,spring_faces,3.1.5,60.04732065146866,
condition files/Stage2_1.xlsx,,T5,B5,s,"['s', 'r']","['Stratego', 'Risk']","[-0.15, 0.5]","[0.15, 0.5]",1,1,,,,,,,,,,,,,,,,,0,2,2,2,0,4,4,0,,,,,,,,,,,,,,,,,,,,,,,,,,,,,,,,,,,,,,,,,,,,,,,1064.7078671009995,None,1064.7078671009995,None,1064.7078671009995,None,s,1,1.4859950860000026,1066.2584146589998,None,1066.2584146589998,None,1066.2584146589998,None,1067.8085689419995,None,1067.8085689419995,None,1067.8085689419995,None,1067.8085689419995,None,,,,,,,,,,,,,,,,,,,,,,,,,,,,,,,,,,,,,,,,,,,,001,78,2020_Feb_06_0958,spring_faces,3.1.5,60.04732065146866,
condition files/Stage2_1.xlsx,,T3,B3,s,"['s', 'r']","['Stratego', 'Risk']","[-0.15, 0.5]","[0.15, 0.5]",1,1,,,,,,,,,,,,,,,,,0,2,2,2,0,5,5,4,,,,,,,,,,,,,,,,,,,,,,,,,,,,,,,,,,,,,,,,,,,,,,,1069.7751580679997,None,1069.7751580679997,None,1069.7751580679997,None,s,1,3.172168056999908,1071.308240288,None,1071.308240288,None,1071.308240288,None,1074.5414880989993,None,1074.5414880989993,None,1074.5414880989993,None,1074.5414880989993,None,,,,,,,,,,,,,,,,,,,,,,,,,,,,,,,,,,,,,,,,,,,,001,78,2020_Feb_06_0958,spring_faces,3.1.5,60.04732065146866,
condition files/Stage2_2.xlsx,,T6,B6,r,"['s', 'r']","['Stratego', 'Risk']","[-0.15, 0.5]","[0.15, 0.5]",1,1,,,,,,,,,,,,,,,,,0,3,3,3,0,0,0,1,,,,,,,,,,,,,,,,,,,,,,,,,,,,,,,,,,,,,,,,,,,,,,,1076.5251780339995,None,1076.5251780339995,None,1076.5251780339995,None,r,1,1.0120705010003803,1078.060359141,None,1078.060359141,None,1078.060359141,None,1079.1415577809994,None,1079.1415577809994,None,1079.1415577809994,None,1079.1415577809994,None,,,,,,,,,,,,,,,,,,,,,,,,,,,,,,,,,,,,,,,,,,,,001,78,2020_Feb_06_0958,spring_faces,3.1.5,60.04732065146866,
condition files/Stage2_2.xlsx,,B3,T3,s,"['s', 'r']","['Stratego', 'Risk']","[-0.15, 0.5]","[0.15, 0.5]",1,1,,,,,,,,,,,,,,,,,0,3,3,3,0,1,1,4,,,,,,,,,,,,,,,,,,,,,,,,,,,,,,,,,,,,,,,,,,,,,,,1081.0914442829999,None,1081.0914442829999,None,1081.0914442829999,None,r,0,4.623620941999434,1082.6248631009994,None,1082.6248631009994,None,1082.6248631009994,None,1087.3081579729997,None,1087.3081579729997,None,1087.3081579729997,None,1087.3081579729997,None,,,,,,,,,,,,,,,,,,,,,,,,,,,,,,,,,,,,,,,,,,,,001,78,2020_Feb_06_0958,spring_faces,3.1.5,60.04732065146866,
condition files/Stage2_2.xlsx,,T2,B2,r,"['s', 'r']","['Stratego', 'Risk']","[-0.15, 0.5]","[0.15, 0.5]",1,1,,,,,,,,,,,,,,,,,0,3,3,3,0,2,2,3,,,,,,,,,,,,,,,,,,,,,,,,,,,,,,,,,,,,,,,,,,,,,,,1089.2750671929998,None,1089.2750671929998,None,1089.2750671929998,None,r,1,0.9830555930002447,1090.8093157849999,None,1090.8093157849999,None,1090.8093157849999,None,1091.858454006,None,1091.858454006,None,1091.858454006,None,1091.858454006,None,,,,,,,,,,,,,,,,,,,,,,,,,,,,,,,,,,,,,,,,,,,,001,78,2020_Feb_06_0958,spring_faces,3.1.5,60.04732065146866,
condition files/Stage2_2.xlsx,,B1,T1,s,"['s', 'r']","['Stratego', 'Risk']","[-0.15, 0.5]","[0.15, 0.5]",1,1,,,,,,,,,,,,,,,,,0,3,3,3,0,3,3,2,,,,,,,,,,,,,,,,,,,,,,,,,,,,,,,,,,,,,,,,,,,,,,,1093.8247324619997,None,1093.8247324619997,None,1093.8247324619997,None,s,1,1.5054025159997764,1095.3750185259996,None,1095.3750185259996,None,1095.3750185259996,None,1096.9430631979994,None,1096.9430631979994,None,1096.9430631979994,None,1096.9430631979994,None,,,,,,,,,,,,,,,,,,,,,,,,,,,,,,,,,,,,,,,,,,,,001,78,2020_Feb_06_0958,spring_faces,3.1.5,60.04732065146866,
condition files/Stage2_2.xlsx,,B5,T5,s,"['s', 'r']","['Stratego', 'Risk']","[-0.15, 0.5]","[0.15, 0.5]",1,1,,,,,,,,,,,,,,,,,0,3,3,3,0,4,4,0,,,,,,,,,,,,,,,,,,,,,,,,,,,,,,,,,,,,,,,,,,,,,,,1098.907469404,None,1098.907469404,None,1098.907469404,None,s,1,1.029788648000249,1100.4586105529997,None,1100.4586105529997,None,1100.4586105529997,None,1101.5417637539995,None,1101.5417637539995,None,1101.5417637539995,None,1101.5417637539995,None,,,,,,,,,,,,,,,,,,,,,,,,,,,,,,,,,,,,,,,,,,,,001,78,2020_Feb_06_0958,spring_faces,3.1.5,60.04732065146866,
condition files/Stage2_2.xlsx,,T4,B4,r,"['s', 'r']","['Stratego', 'Risk']","[-0.15, 0.5]","[0.15, 0.5]",1,1,,,,,,,,,,,,,,,,,0,3,3,3,0,5,5,5,,,,,,,,,,,,,,,,,,,,,,,,,,,,,,,,,,,,,,,,,,,,,,,1103.5083126589998,None,1103.5083126589998,None,1103.5083126589998,None,r,1,0.7174483889994008,1105.0429475869996,None,1105.0429475869996,None,1105.0429475869996,None,1105.8259631539995,None,1105.8259631539995,None,1105.8259631539995,None,1105.8259631539995,None,,,,,,,,,,,,,,,,,,,,,,,,,,,,,,,,,,,,,,,,,,,,001,78,2020_Feb_06_0958,spring_faces,3.1.5,60.04732065146866,
condition files/Stage2_1.xlsx,,T5,B5,s,"['s', 'r']","['Stratego', 'Risk']","[-0.15, 0.5]","[0.15, 0.5]",1,1,,,,,,,,,,,,,,,,,0,4,4,4,0,0,0,0,,,,,,,,,,,,,,,,,,,,,,,,,,,,,,,,,,,,,,,,,,,,,,,1107.8083476450001,None,1107.8083476450001,None,1107.8083476450001,None,s,1,0.9145052699996086,1109.3579081089993,None,1109.3579081089993,None,1109.3579081089993,None,1110.3417971109993,None,1110.3417971109993,None,1110.3417971109993,None,1110.3417971109993,None,,,,,,,,,,,,,,,,,,,,,,,,,,,,,,,,,,,,,,,,,,,,001,78,2020_Feb_06_0958,spring_faces,3.1.5,60.04732065146866,
condition files/Stage2_1.xlsx,,T3,B3,s,"['s', 'r']","['Stratego', 'Risk']","[-0.15, 0.5]","[0.15, 0.5]",1,1,,,,,,,,,,,,,,,,,0,4,4,4,0,1,1,4,,,,,,,,,,,,,,,,,,,,,,,,,,,,,,,,,,,,,,,,,,,,,,,1112.2913879319995,None,1112.2913879319995,None,1112.2913879319995,None,s,1,1.1824478560001808,1113.8419544689996,None,1113.8419544689996,None,1113.8419544689996,None,1115.07507197,None,1115.07507197,None,1115.07507197,None,1115.07507197,None,,,,,,,,,,,,,,,,,,,,,,,,,,,,,,,,,,,,,,,,,,,,001,78,2020_Feb_06_0958,spring_faces,3.1.5,60.04732065146866,
condition files/Stage2_1.xlsx,,B6,T6,r,"['s', 'r']","['Stratego', 'Risk']","[-0.15, 0.5]","[0.15, 0.5]",1,1,,,,,,,,,,,,,,,,,0,4,4,4,0,2,2,1,,,,,,,,,,,,,,,,,,,,,,,,,,,,,,,,,,,,,,,,,,,,,,,1117.0414255839996,None,1117.0414255839996,None,1117.0414255839996,None,r,1,1.040665491999789,1118.5918048959993,None,1118.5918048959993,None,1118.5918048959993,None,1119.7077457179994,None,1119.7077457179994,None,1119.7077457179994,None,1119.7077457179994,None,,,,,,,,,,,,,,,,,,,,,,,,,,,,,,,,,,,,,,,,,,,,001,78,2020_Feb_06_0958,spring_faces,3.1.5,60.04732065146866,
condition files/Stage2_1.xlsx,,T1,B1,s,"['s', 'r']","['Stratego', 'Risk']","[-0.15, 0.5]","[0.15, 0.5]",1,1,,,,,,,,,,,,,,,,,0,4,4,4,0,3,3,2,,,,,,,,,,,,,,,,,,,,,,,,,,,,,,,,,,,,,,,,,,,,,,,1121.6576054769994,None,1121.6576054769994,None,1121.6576054769994,None,s,1,1.6392545520002386,1123.193243007,None,1123.193243007,None,1123.193243007,None,1124.9084538139996,None,1124.9084538139996,None,1124.9084538139996,None,1124.9084538139996,None,,,,,,,,,,,,,,,,,,,,,,,,,,,,,,,,,,,,,,,,,,,,001,78,2020_Feb_06_0958,spring_faces,3.1.5,60.04732065146866,
