condsFile,subStage,cue1,cue2,correct,responseKeys,responseNames,cue1Position,cue2Position,cue1Opacity,cue2Opacity,stageLoop0.thisRepN,stageLoop0.thisTrialN,stageLoop0.thisN,stageLoop0.thisIndex,blockLoop0.thisRepN,blockLoop0.thisTrialN,blockLoop0.thisN,blockLoop0.thisIndex,stage1Loop.thisRepN,stage1Loop.thisTrialN,stage1Loop.thisN,stage1Loop.thisIndex,blockLoop1.thisRepN,blockLoop1.thisTrialN,blockLoop1.thisN,blockLoop1.thisIndex,stage2Loop.thisRepN,stage2Loop.thisTrialN,stage2Loop.thisN,stage2Loop.thisIndex,blockLoop2.thisRepN,blockLoop2.thisTrialN,blockLoop2.thisN,blockLoop2.thisIndex,testLoop.thisRepN,testLoop.thisTrialN,testLoop.thisN,testLoop.thisIndex,blockLoopTest.thisRepN,blockLoopTest.thisTrialN,blockLoopTest.thisN,blockLoopTest.thisIndex,cuePics,id_instr_text.started,id_instr_text.stopped,space_to_continue_2.started,space_to_continue_2.stopped,end_instructions_resp_3.keys,end_instructions_resp_3.rt,end_instructions_resp_3.started,end_instructions_resp_3.stopped,id_input_instr.started,id_input_instr.stopped,id_input_rect.started,id_input_rect.stopped,id_input_resp.keys,id_input_resp.rt,id_input_resp.started,id_input_resp.stopped,sonaID,id_input_text.started,id_input_text.stopped,final_text.started,final_text.stopped,instructions.started,instructions.stopped,end_instructions_resp.keys,end_instructions_resp.rt,end_instructions_resp.started,end_instructions_resp.stopped,space_to_continue.started,space_to_continue.stopped,instructions_stage0.started,instructions_stage0.stopped,end_instructions_resp_stage0.keys,end_instructions_resp_stage0.rt,end_instructions_resp_stage0.started,end_instructions_resp_stage0.stopped,space_to_continue_stage0.started,space_to_continue_stage0.stopped,text.started,text.stopped,resp_text1.started,resp_text1.stopped,resp_text2.started,resp_text2.stopped,trial_resp.keys,trial_resp.corr,trial_resp.rt,trial_resp.started,trial_resp.stopped,cue1Image.started,cue1Image.stopped,cue2Image.started,cue2Image.stopped,cue1Image_fb.started,cue1Image_fb.stopped,cue2Image_fb.started,cue2Image_fb.stopped,fb_text_answer.started,fb_text_answer.stopped,feedback_image.started,feedback_image.stopped,instructions_stage1.started,instructions_stage1.stopped,end_instructions_resp_stage1.keys,end_instructions_resp_stage1.rt,end_instructions_resp_stage1.started,end_instructions_resp_stage1.stopped,space_to_continue_stage1.started,space_to_continue_stage1.stopped,instructions_2.started,instructions_2.stopped,end_instructions_resp_2.keys,end_instructions_resp_2.rt,end_instructions_resp_2.started,end_instructions_resp_2.stopped,press_space_to_continue_stage2.started,press_space_to_continue_stage2.stopped,instructions_testStage1.started,instructions_testStage1.stopped,end_instructions_resp_test1.keys,end_instructions_resp_test1.rt,end_instructions_resp_test1.started,end_instructions_resp_test1.stopped,press_space_to_continue_test1.started,press_space_to_continue_test1.stopped,cue1Image_testChoice.started,cue1Image_testChoice.stopped,cue2Image_testChoice.started,cue2Image_testChoice.stopped,test_resp.keys,test_resp.corr,test_resp.rt,test_resp.started,test_resp.stopped,cue1Image_testConf.started,cue1Image_testConf.stopped,cue2Image_testConf.started,cue2Image_testConf.stopped,conf_reminder.started,conf_reminder.stopped,conf_rating.response,conf_rating.rt,conf_rating.started,conf_rating.stopped,session,participant,date,expName,psychopyVersion,frameRate,
,,,,,,,,,,,,,,,,,,,,,,,,,,,,,,,,,,,,,,,,,,,"{'none': 'pictures/20M_AN_C.png', 'alpha': 'pictures/SHINEd_pepper.png', 'beta': 'pictures/SHINEd_melon.png', 'theta': 'pictures/SHINEd_pear.png', 'phi': 'pictures/SHINEd_apple.png', 'T1': 'pictures/31M_AN_C.png', 'T2': 'pictures/32M_AN_C.png', 'T3': 'pictures/34M_AN_C.png', 'T4': 'pictures/26M_AN_C.png', 'T5': 'pictures/37M_AN_C.png', 'T6': 'pictures/36M_AN_C.png', 'B1': 'pictures/38M_NE_C.png', 'B2': 'pictures/20M_NE_C.png', 'B3': 'pictures/23M_NE_C.png', 'B4': 'pictures/25M_NE_C.png', 'B5': 'pictures/33M_NE_C.png', 'B6': 'pictures/22M_NE_C.png'}",20.896570423000412,None,25.879655769000237,None,space,17.01220368199938,25.879655769000237,None,,,,,,,,,,,,,,,,,,,,,,,,,,,,,,,,,,,,,,,,,,,,,,,,,,,,,,,,,,,,,,,,,,,,,,,,,,,,,,,,,,,,,,,,,,,,,,,,001,80,2020_Feb_06_1022,spring_faces,3.1.5,59.94823949103981,
,,,,,,,,,,,,,,,,,,,,,,,,,,,,,,,,,,,,,,,,,,,,,,,,,,,,43.26356806900003,None,43.26356806900003,None,"['0', '4', '1', '4', 'm', 'i', 't', 'r', 'h', '0', '4', '1', '4', 'm', 'i', 't', 'r', 'h', 'backspace', '0', '4', '1', '4', 'm', 'i', 't', 'r', 'h']","[15.244303630000104, 16.98836226000003, 17.228337341000042, 17.48429034900073, 23.72432507100075, 24.604358764000608, 27.132333575000303, 27.27641261900044, 27.51635879600053, 37.37234424400049, 37.48431615000027, 37.94832877299996, 38.06030838700008, 38.908408998000596, 39.03634940500069, 39.32441372700032, 39.48428602000058, 39.836348165000345, 43.24441118100003, 47.116285951000464, 47.38834957000017, 47.612342618000184, 47.86833728700003, 49.020353563000754, 49.24432946500019, 50.63633881700025, 50.78033440600029, 50.940410948000135]",43.26356806900003,None,,,,,,,,,,,,,,,,,,,,,,,,,,,,,,,,,,,,,,,,,,,,,,,,,,,,,,,,,,,,,,,,,,,,,,,,,,,,,,,,,,,,,,,,001,80,2020_Feb_06_1022,spring_faces,3.1.5,59.94823949103981,
,,,,,,,,,,,,,,,,,,,,,,,,,,,,,,,,,,,,,,,,,,,,,,,,,,,,,,,,,,,,0414mitrh,43.26356806900003,None,43.26356806900003,None,99.27975906200027,None,space,9.764050385999326,104.27985273700051,None,,,,,,,,,,,,,,,,,,,,,,,,,,,,,,,,,,,,,,,,,,,,,,,,,,,,,,,,,,,,,,,,,,,,,,,,,,,,,001,80,2020_Feb_06_1022,spring_faces,3.1.5,59.94823949103981,
,,,,,,,,,,,,,,,,,,,,,,,,,,,,,,,,,,,,,,,,,,,,,,,,,,,,,,,,,,,,,,,,,,,,,,,104.27985273700051,None,114.07988519500032,None,space,12.084179092999875,119.0796769790004,None,,,,,,,,,,,,,,,,,,,,,,,,,,,,,,,,,,,,,,,,,,,,,,,,,,,,,,,,,,,,,,,,,,,,,001,80,2020_Feb_06_1022,spring_faces,3.1.5,59.94823949103981,
condition files/Stage0a.xlsx,0a,alpha,none,h,"['h', 'g']","['Chess', 'Go']","[0, 0.5]","[0, 0]",1,0,0,0,0,0,0,0,0,0,,,,,,,,,,,,,,,,,,,,,,,,,,,,,,,,,,,,,,,,,,,,,,,,,,,,,,,,,,,,,119.0796769790004,None,131.2303435519998,None,131.2303435519998,None,131.2303435519998,None,h,1,1.438658244999715,132.8131938860006,None,132.8131938860006,None,132.8131938860006,None,134.33011824500045,None,134.33011824500045,None,134.33011824500045,None,134.33011824500045,None,,,,,,,,,,,,,,,,,,,,,,,,,,,,,,,,,,,,,,,,,,,,001,80,2020_Feb_06_1022,spring_faces,3.1.5,59.94823949103981,
condition files/Stage0a.xlsx,0a,beta,none,g,"['h', 'g']","['Chess', 'Go']","[0, 0.5]","[0, 0]",1,0,0,0,0,0,0,1,1,1,,,,,,,,,,,,,,,,,,,,,,,,,,,,,,,,,,,,,,,,,,,,,,,,,,,,,,,,,,,,,,,136.27968053299992,None,136.27968053299992,None,136.27968053299992,None,g,1,0.869858533000297,137.83003766599995,None,137.83003766599995,None,137.83003766599995,None,138.7635603380004,None,138.7635603380004,None,138.7635603380004,None,138.7635603380004,None,,,,,,,,,,,,,,,,,,,,,,,,,,,,,,,,,,,,,,,,,,,,001,80,2020_Feb_06_1022,spring_faces,3.1.5,59.94823949103981,
condition files/Stage0a.xlsx,0a,alpha,none,h,"['h', 'g']","['Chess', 'Go']","[0, 0.5]","[0, 0]",1,0,0,1,1,1,0,0,0,0,,,,,,,,,,,,,,,,,,,,,,,,,,,,,,,,,,,,,,,,,,,,,,,,,,,,,,,,,,,,,,,140.74680310800068,None,140.74680310800068,None,140.74680310800068,None,h,1,0.6444216480003888,142.26343632200042,None,142.26343632200042,None,142.26343632200042,None,142.96310155799983,None,142.96310155799983,None,142.96310155799983,None,142.96310155799983,None,,,,,,,,,,,,,,,,,,,,,,,,,,,,,,,,,,,,,,,,,,,,001,80,2020_Feb_06_1022,spring_faces,3.1.5,59.94823949103981,
condition files/Stage0a.xlsx,0a,beta,none,g,"['h', 'g']","['Chess', 'Go']","[0, 0.5]","[0, 0]",1,0,0,1,1,1,0,1,1,1,,,,,,,,,,,,,,,,,,,,,,,,,,,,,,,,,,,,,,,,,,,,,,,,,,,,,,,,,,,,,,,144.92933076200006,None,144.92933076200006,None,144.92933076200006,None,g,1,0.284529231000306,146.46333511800003,None,146.46333511800003,None,146.46333511800003,None,146.81261930500023,None,146.81261930500023,None,146.81261930500023,None,146.81261930500023,None,,,,,,,,,,,,,,,,,,,,,,,,,,,,,,,,,,,,,,,,,,,,001,80,2020_Feb_06_1022,spring_faces,3.1.5,59.94823949103981,
condition files/Stage0a.xlsx,0a,alpha,none,h,"['h', 'g']","['Chess', 'Go']","[0, 0.5]","[0, 0]",1,0,0,2,2,2,0,0,0,0,,,,,,,,,,,,,,,,,,,,,,,,,,,,,,,,,,,,,,,,,,,,,,,,,,,,,,,,,,,,,,,148.79661084500003,None,148.79661084500003,None,148.79661084500003,None,h,1,0.46635040499950264,150.32954806599992,None,150.32954806599992,None,150.32954806599992,None,150.84612824800024,None,150.84612824800024,None,150.84612824800024,None,150.84612824800024,None,,,,,,,,,,,,,,,,,,,,,,,,,,,,,,,,,,,,,,,,,,,,001,80,2020_Feb_06_1022,spring_faces,3.1.5,59.94823949103981,
condition files/Stage0a.xlsx,0a,beta,none,g,"['h', 'g']","['Chess', 'Go']","[0, 0.5]","[0, 0]",1,0,0,2,2,2,0,1,1,1,,,,,,,,,,,,,,,,,,,,,,,,,,,,,,,,,,,,,,,,,,,,,,,,,,,,,,,,,,,,,,,152.813305959,None,152.813305959,None,152.813305959,None,g,1,0.30506781300027797,154.34683211100037,None,154.34683211100037,None,154.34683211100037,None,154.7127116440006,None,154.7127116440006,None,154.7127116440006,None,154.7127116440006,None,,,,,,,,,,,,,,,,,,,,,,,,,,,,,,,,,,,,,,,,,,,,001,80,2020_Feb_06_1022,spring_faces,3.1.5,59.94823949103981,
condition files/Stage0a.xlsx,0a,alpha,none,h,"['h', 'g']","['Chess', 'Go']","[0, 0.5]","[0, 0]",1,0,0,3,3,3,0,0,0,0,,,,,,,,,,,,,,,,,,,,,,,,,,,,,,,,,,,,,,,,,,,,,,,,,,,,,,,,,,,,,,,156.69618593999985,None,156.69618593999985,None,156.69618593999985,None,h,1,0.3419899400005306,158.22998083499988,None,158.22998083499988,None,158.22998083499988,None,158.63024153300012,None,158.63024153300012,None,158.63024153300012,None,158.63024153300012,None,,,,,,,,,,,,,,,,,,,,,,,,,,,,,,,,,,,,,,,,,,,,001,80,2020_Feb_06_1022,spring_faces,3.1.5,59.94823949103981,
condition files/Stage0a.xlsx,0a,beta,none,g,"['h', 'g']","['Chess', 'Go']","[0, 0.5]","[0, 0]",1,0,0,3,3,3,0,1,1,1,,,,,,,,,,,,,,,,,,,,,,,,,,,,,,,,,,,,,,,,,,,,,,,,,,,,,,,,,,,,,,,160.5959798490003,None,160.5959798490003,None,160.5959798490003,None,g,1,0.3936540590002551,162.13024320100067,None,162.13024320100067,None,162.13024320100067,None,162.57973874800064,None,162.57973874800064,None,162.57973874800064,None,162.57973874800064,None,,,,,,,,,,,,,,,,,,,,,,,,,,,,,,,,,,,,,,,,,,,,001,80,2020_Feb_06_1022,spring_faces,3.1.5,59.94823949103981,
condition files/Stage0a.xlsx,0a,beta,none,g,"['h', 'g']","['Chess', 'Go']","[0, 0.5]","[0, 0]",1,0,0,4,4,4,0,0,0,1,,,,,,,,,,,,,,,,,,,,,,,,,,,,,,,,,,,,,,,,,,,,,,,,,,,,,,,,,,,,,,,164.56344539900056,None,164.56344539900056,None,164.56344539900056,None,h,0,0.33139271199979703,166.09650586099997,None,166.09650586099997,None,166.09650586099997,None,166.47948940400056,None,166.47948940400056,None,166.47948940400056,None,166.47948940400056,None,,,,,,,,,,,,,,,,,,,,,,,,,,,,,,,,,,,,,,,,,,,,001,80,2020_Feb_06_1022,spring_faces,3.1.5,59.94823949103981,
condition files/Stage0a.xlsx,0a,alpha,none,h,"['h', 'g']","['Chess', 'Go']","[0, 0.5]","[0, 0]",1,0,0,4,4,4,0,1,1,0,,,,,,,,,,,,,,,,,,,,,,,,,,,,,,,,,,,,,,,,,,,,,,,,,,,,,,,,,,,,,,,168.44627068499994,None,168.44627068499994,None,168.44627068499994,None,h,1,0.3843684029998258,169.97949777400027,None,169.97949777400027,None,169.97949777400027,None,170.42937532700034,None,170.42937532700034,None,170.42937532700034,None,170.42937532700034,None,,,,,,,,,,,,,,,,,,,,,,,,,,,,,,,,,,,,,,,,,,,,001,80,2020_Feb_06_1022,spring_faces,3.1.5,59.94823949103981,
condition files/Stage0a.xlsx,0a,alpha,none,h,"['h', 'g']","['Chess', 'Go']","[0, 0.5]","[0, 0]",1,0,0,5,5,5,0,0,0,0,,,,,,,,,,,,,,,,,,,,,,,,,,,,,,,,,,,,,,,,,,,,,,,,,,,,,,,,,,,,,,,172.41282081900044,None,172.41282081900044,None,172.41282081900044,None,h,1,0.6099731809999867,173.94593206399986,None,173.94593206399986,None,173.94593206399986,None,174.61327374900065,None,174.61327374900065,None,174.61327374900065,None,174.61327374900065,None,,,,,,,,,,,,,,,,,,,,,,,,,,,,,,,,,,,,,,,,,,,,001,80,2020_Feb_06_1022,spring_faces,3.1.5,59.94823949103981,
condition files/Stage0a.xlsx,0a,beta,none,g,"['h', 'g']","['Chess', 'Go']","[0, 0.5]","[0, 0]",1,0,0,5,5,5,0,1,1,1,,,,,,,,,,,,,,,,,,,,,,,,,,,,,,,,,,,,,,,,,,,,,,,,,,,,,,,,,,,,,,,176.57954923099987,None,176.57954923099987,None,176.57954923099987,None,g,1,0.4106965070004662,178.11321119200056,None,178.11321119200056,None,178.11321119200056,None,178.57936816600068,None,178.57936816600068,None,178.57936816600068,None,178.57936816600068,None,,,,,,,,,,,,,,,,,,,,,,,,,,,,,,,,,,,,,,,,,,,,001,80,2020_Feb_06_1022,spring_faces,3.1.5,59.94823949103981,
condition files/Stage0b_1.xlsx,0b,alpha,none,h,"['h', 'g']","['Chess', 'Go']","[-0.15, 0.5]","[0.15, 0.5]",1,0,0,6,6,6,0,0,0,0,,,,,,,,,,,,,,,,,,,,,,,,,,,,,,,,,,,,,,,,,,,,,,,,,,,,,,,,,,,,,,,180.56295141400005,None,180.56295141400005,None,180.56295141400005,None,h,1,0.5234172600003149,182.09658103899983,None,182.09658103899983,None,182.09658103899983,None,182.68041144200015,None,182.68041144200015,None,182.68041144200015,None,182.68041144200015,None,,,,,,,,,,,,,,,,,,,,,,,,,,,,,,,,,,,,,,,,,,,,001,80,2020_Feb_06_1022,spring_faces,3.1.5,59.94823949103981,
condition files/Stage0b_1.xlsx,0b,none,beta,g,"['h', 'g']","['Chess', 'Go']","[-0.15, 0.5]","[0.15, 0.5]",0,1,0,6,6,6,0,1,1,1,,,,,,,,,,,,,,,,,,,,,,,,,,,,,,,,,,,,,,,,,,,,,,,,,,,,,,,,,,,,,,,184.64616150700022,None,184.64616150700022,None,184.64616150700022,None,g,1,0.5029454369996529,186.196949184,None,186.196949184,None,186.196949184,None,186.78002572700007,None,186.78002572700007,None,186.78002572700007,None,186.78002572700007,None,,,,,,,,,,,,,,,,,,,,,,,,,,,,,,,,,,,,,,,,,,,,001,80,2020_Feb_06_1022,spring_faces,3.1.5,59.94823949103981,
condition files/Stage0b_2.xlsx,0b,beta,none,g,"['h', 'g']","['Chess', 'Go']","[-0.15, 0.5]","[0.15, 0.5]",1,0,0,7,7,7,0,0,0,1,,,,,,,,,,,,,,,,,,,,,,,,,,,,,,,,,,,,,,,,,,,,,,,,,,,,,,,,,,,,,,,188.7463489290003,None,188.7463489290003,None,188.7463489290003,None,g,1,0.5477943589994538,190.29611276600008,None,190.29611276600008,None,190.29611276600008,None,190.89652088599996,None,190.89652088599996,None,190.89652088599996,None,190.89652088599996,None,,,,,,,,,,,,,,,,,,,,,,,,,,,,,,,,,,,,,,,,,,,,001,80,2020_Feb_06_1022,spring_faces,3.1.5,59.94823949103981,
condition files/Stage0b_2.xlsx,0b,none,alpha,h,"['h', 'g']","['Chess', 'Go']","[-0.15, 0.5]","[0.15, 0.5]",0,1,0,7,7,7,0,1,1,0,,,,,,,,,,,,,,,,,,,,,,,,,,,,,,,,,,,,,,,,,,,,,,,,,,,,,,,,,,,,,,,192.86213788900022,None,192.86213788900022,None,192.86213788900022,None,h,1,0.6065333160004229,194.41341481000018,None,194.41341481000018,None,194.41341481000018,None,195.08136525400005,None,195.08136525400005,None,195.08136525400005,None,195.08136525400005,None,,,,,,,,,,,,,,,,,,,,,,,,,,,,,,,,,,,,,,,,,,,,001,80,2020_Feb_06_1022,spring_faces,3.1.5,59.94823949103981,
condition files/Stage0b_1.xlsx,0b,none,beta,g,"['h', 'g']","['Chess', 'Go']","[-0.15, 0.5]","[0.15, 0.5]",0,1,0,8,8,8,0,0,0,1,,,,,,,,,,,,,,,,,,,,,,,,,,,,,,,,,,,,,,,,,,,,,,,,,,,,,,,,,,,,,,,197.06304090100002,None,197.06304090100002,None,197.06304090100002,None,g,1,0.48752616599995235,198.5963998570005,None,198.5963998570005,None,198.5963998570005,None,199.1466352940006,None,199.1466352940006,None,199.1466352940006,None,199.1466352940006,None,,,,,,,,,,,,,,,,,,,,,,,,,,,,,,,,,,,,,,,,,,,,001,80,2020_Feb_06_1022,spring_faces,3.1.5,59.94823949103981,
condition files/Stage0b_1.xlsx,0b,alpha,none,h,"['h', 'g']","['Chess', 'Go']","[-0.15, 0.5]","[0.15, 0.5]",1,0,0,8,8,8,0,1,1,0,,,,,,,,,,,,,,,,,,,,,,,,,,,,,,,,,,,,,,,,,,,,,,,,,,,,,,,,,,,,,,,201.11257002500042,None,201.11257002500042,None,201.11257002500042,None,h,1,0.43197244799921464,202.65192499800014,None,202.65192499800014,None,202.65192499800014,None,203.1505642560005,None,203.1505642560005,None,203.1505642560005,None,203.1505642560005,None,,,,,,,,,,,,,,,,,,,,,,,,,,,,,,,,,,,,,,,,,,,,001,80,2020_Feb_06_1022,spring_faces,3.1.5,59.94823949103981,
condition files/Stage0b_2.xlsx,0b,none,alpha,h,"['h', 'g']","['Chess', 'Go']","[-0.15, 0.5]","[0.15, 0.5]",0,1,0,9,9,9,0,0,0,0,,,,,,,,,,,,,,,,,,,,,,,,,,,,,,,,,,,,,,,,,,,,,,,,,,,,,,,,,,,,,,,205.12987708299988,None,205.12987708299988,None,205.12987708299988,None,h,1,0.48430695600018225,206.6635398870003,None,206.6635398870003,None,206.6635398870003,None,207.21300191200044,None,207.21300191200044,None,207.21300191200044,None,207.21300191200044,None,,,,,,,,,,,,,,,,,,,,,,,,,,,,,,,,,,,,,,,,,,,,001,80,2020_Feb_06_1022,spring_faces,3.1.5,59.94823949103981,
condition files/Stage0b_2.xlsx,0b,beta,none,g,"['h', 'g']","['Chess', 'Go']","[-0.15, 0.5]","[0.15, 0.5]",1,0,0,9,9,9,0,1,1,1,,,,,,,,,,,,,,,,,,,,,,,,,,,,,,,,,,,,,,,,,,,,,,,,,,,,,,,,,,,,,,,209.17954174100032,None,209.17954174100032,None,209.17954174100032,None,g,1,0.43448067999997875,210.7133748310007,None,210.7133748310007,None,210.7133748310007,None,211.21272399100053,None,211.21272399100053,None,211.21272399100053,None,211.21272399100053,None,,,,,,,,,,,,,,,,,,,,,,,,,,,,,,,,,,,,,,,,,,,,001,80,2020_Feb_06_1022,spring_faces,3.1.5,59.94823949103981,
condition files/Stage0b_1.xlsx,0b,alpha,none,h,"['h', 'g']","['Chess', 'Go']","[-0.15, 0.5]","[0.15, 0.5]",1,0,0,10,10,10,0,0,0,0,,,,,,,,,,,,,,,,,,,,,,,,,,,,,,,,,,,,,,,,,,,,,,,,,,,,,,,,,,,,,,,213.19653607800046,None,213.19653607800046,None,213.19653607800046,None,h,1,0.32170384299934085,214.73021054299988,None,214.73021054299988,None,214.73021054299988,None,215.11297423399992,None,215.11297423399992,None,215.11297423399992,None,215.11297423399992,None,,,,,,,,,,,,,,,,,,,,,,,,,,,,,,,,,,,,,,,,,,,,001,80,2020_Feb_06_1022,spring_faces,3.1.5,59.94823949103981,
condition files/Stage0b_1.xlsx,0b,none,beta,g,"['h', 'g']","['Chess', 'Go']","[-0.15, 0.5]","[0.15, 0.5]",0,1,0,10,10,10,0,1,1,1,,,,,,,,,,,,,,,,,,,,,,,,,,,,,,,,,,,,,,,,,,,,,,,,,,,,,,,,,,,,,,,217.07873622399984,None,217.07873622399984,None,217.07873622399984,None,g,1,0.6939582860004521,218.62990714100033,None,218.62990714100033,None,218.62990714100033,None,219.3821805839998,None,219.3821805839998,None,219.3821805839998,None,219.3821805839998,None,,,,,,,,,,,,,,,,,,,,,,,,,,,,,,,,,,,,,,,,,,,,001,80,2020_Feb_06_1022,spring_faces,3.1.5,59.94823949103981,
condition files/Stage0b_2.xlsx,0b,none,alpha,h,"['h', 'g']","['Chess', 'Go']","[-0.15, 0.5]","[0.15, 0.5]",0,1,0,11,11,11,0,0,0,0,,,,,,,,,,,,,,,,,,,,,,,,,,,,,,,,,,,,,,,,,,,,,,,,,,,,,,,,,,,,,,,221.3632937399998,None,221.3632937399998,None,221.3632937399998,None,h,1,0.5552522139996654,222.89665205300025,None,222.89665205300025,None,222.89665205300025,None,223.51340637200065,None,223.51340637200065,None,223.51340637200065,None,223.51340637200065,None,,,,,,,,,,,,,,,,,,,,,,,,,,,,,,,,,,,,,,,,,,,,001,80,2020_Feb_06_1022,spring_faces,3.1.5,59.94823949103981,
condition files/Stage0b_2.xlsx,0b,beta,none,g,"['h', 'g']","['Chess', 'Go']","[-0.15, 0.5]","[0.15, 0.5]",1,0,0,11,11,11,0,1,1,1,,,,,,,,,,,,,,,,,,,,,,,,,,,,,,,,,,,,,,,,,,,,,,,,,,,,,,,,,,,,,,,225.4797734650001,None,225.4797734650001,None,225.4797734650001,None,g,1,0.3266107089993966,227.02922820799995,None,227.02922820799995,None,227.02922820799995,None,227.4148207190001,None,227.4148207190001,None,227.4148207190001,None,227.4148207190001,None,,,,,,,,,,,,,,,,,,,,,,,,,,,,,,,,,,,,,,,,,,,,001,80,2020_Feb_06_1022,spring_faces,3.1.5,59.94823949103981,
condition files/Stage0c_1.xlsx,0c,theta,alpha,h,"['h', 'g']","['Chess', 'Go']","[-0.15, 0.5]","[0.15, 0.5]",1,1,0,12,12,12,0,0,0,0,,,,,,,,,,,,,,,,,,,,,,,,,,,,,,,,,,,,,,,,,,,,,,,,,,,,,,,,,,,,,,,229.39660338900012,None,229.39660338900012,None,229.39660338900012,None,h,1,1.3380273719994875,230.92989150799986,None,230.92989150799986,None,230.92989150799986,None,232.3297335289999,None,232.3297335289999,None,232.3297335289999,None,232.3297335289999,None,,,,,,,,,,,,,,,,,,,,,,,,,,,,,,,,,,,,,,,,,,,,001,80,2020_Feb_06_1022,spring_faces,3.1.5,59.94823949103981,
condition files/Stage0c_1.xlsx,0c,beta,theta,g,"['h', 'g']","['Chess', 'Go']","[-0.15, 0.5]","[0.15, 0.5]",1,1,0,12,12,12,0,1,1,2,,,,,,,,,,,,,,,,,,,,,,,,,,,,,,,,,,,,,,,,,,,,,,,,,,,,,,,,,,,,,,,234.29623556200022,None,234.29623556200022,None,234.29623556200022,None,g,1,0.9497875220004062,235.8300852829998,None,235.8300852829998,None,235.8300852829998,None,236.8301085359999,None,236.8301085359999,None,236.8301085359999,None,236.8301085359999,None,,,,,,,,,,,,,,,,,,,,,,,,,,,,,,,,,,,,,,,,,,,,001,80,2020_Feb_06_1022,spring_faces,3.1.5,59.94823949103981,
condition files/Stage0c_1.xlsx,0c,phi,beta,g,"['h', 'g']","['Chess', 'Go']","[-0.15, 0.5]","[0.15, 0.5]",1,1,0,12,12,12,0,2,2,3,,,,,,,,,,,,,,,,,,,,,,,,,,,,,,,,,,,,,,,,,,,,,,,,,,,,,,,,,,,,,,,238.7960306619998,None,238.7960306619998,None,238.7960306619998,None,g,1,0.929846281999744,240.33013814800051,None,240.33013814800051,None,240.33013814800051,None,241.3133036600002,None,241.3133036600002,None,241.3133036600002,None,241.3133036600002,None,,,,,,,,,,,,,,,,,,,,,,,,,,,,,,,,,,,,,,,,,,,,001,80,2020_Feb_06_1022,spring_faces,3.1.5,59.94823949103981,
condition files/Stage0c_1.xlsx,0c,alpha,phi,h,"['h', 'g']","['Chess', 'Go']","[-0.15, 0.5]","[0.15, 0.5]",1,1,0,12,12,12,0,3,3,1,,,,,,,,,,,,,,,,,,,,,,,,,,,,,,,,,,,,,,,,,,,,,,,,,,,,,,,,,,,,,,,243.27969124500032,None,243.27969124500032,None,243.27969124500032,None,h,1,0.5591305150001062,244.81283449300008,None,244.81283449300008,None,244.81283449300008,None,245.42981177000001,None,245.42981177000001,None,245.42981177000001,None,245.42981177000001,None,,,,,,,,,,,,,,,,,,,,,,,,,,,,,,,,,,,,,,,,,,,,001,80,2020_Feb_06_1022,spring_faces,3.1.5,59.94823949103981,
condition files/Stage0c_2.xlsx,0c,theta,beta,g,"['h', 'g']","['Chess', 'Go']","[-0.15, 0.5]","[0.15, 0.5]",1,1,0,13,13,13,0,0,0,2,,,,,,,,,,,,,,,,,,,,,,,,,,,,,,,,,,,,,,,,,,,,,,,,,,,,,,,,,,,,,,,247.4133460490002,None,247.4133460490002,None,247.4133460490002,None,g,1,0.809797945000355,248.94607436200022,None,248.94607436200022,None,248.94607436200022,None,249.81325075600034,None,249.81325075600034,None,249.81325075600034,None,249.81325075600034,None,,,,,,,,,,,,,,,,,,,,,,,,,,,,,,,,,,,,,,,,,,,,001,80,2020_Feb_06_1022,spring_faces,3.1.5,59.94823949103981,
condition files/Stage0c_2.xlsx,0c,alpha,theta,h,"['h', 'g']","['Chess', 'Go']","[-0.15, 0.5]","[0.15, 0.5]",1,1,0,13,13,13,0,1,1,0,,,,,,,,,,,,,,,,,,,,,,,,,,,,,,,,,,,,,,,,,,,,,,,,,,,,,,,,,,,,,,,251.77885900300043,None,251.77885900300043,None,251.77885900300043,None,h,1,0.4589094359998853,253.31305414500002,None,253.31305414500002,None,253.31305414500002,None,253.82991690900053,None,253.82991690900053,None,253.82991690900053,None,253.82991690900053,None,,,,,,,,,,,,,,,,,,,,,,,,,,,,,,,,,,,,,,,,,,,,001,80,2020_Feb_06_1022,spring_faces,3.1.5,59.94823949103981,
condition files/Stage0c_2.xlsx,0c,beta,phi,g,"['h', 'g']","['Chess', 'Go']","[-0.15, 0.5]","[0.15, 0.5]",1,1,0,13,13,13,0,2,2,3,,,,,,,,,,,,,,,,,,,,,,,,,,,,,,,,,,,,,,,,,,,,,,,,,,,,,,,,,,,,,,,255.7963749190003,None,255.7963749190003,None,255.7963749190003,None,g,1,0.49049831699994684,257.32939063400045,None,257.32939063400045,None,257.32939063400045,None,257.87947961700047,None,257.87947961700047,None,257.87947961700047,None,257.87947961700047,None,,,,,,,,,,,,,,,,,,,,,,,,,,,,,,,,,,,,,,,,,,,,001,80,2020_Feb_06_1022,spring_faces,3.1.5,59.94823949103981,
condition files/Stage0c_2.xlsx,0c,phi,alpha,h,"['h', 'g']","['Chess', 'Go']","[-0.15, 0.5]","[0.15, 0.5]",1,1,0,13,13,13,0,3,3,1,,,,,,,,,,,,,,,,,,,,,,,,,,,,,,,,,,,,,,,,,,,,,,,,,,,,,,,,,,,,,,,259.845858359,None,259.845858359,None,259.845858359,None,h,1,0.42413877000035427,261.3798254180001,None,261.3798254180001,None,261.3798254180001,None,261.8631563580002,None,261.8631563580002,None,261.8631563580002,None,261.8631563580002,None,,,,,,,,,,,,,,,,,,,,,,,,,,,,,,,,,,,,,,,,,,,,001,80,2020_Feb_06_1022,spring_faces,3.1.5,59.94823949103981,
condition files/Stage0c_1.xlsx,0c,beta,theta,g,"['h', 'g']","['Chess', 'Go']","[-0.15, 0.5]","[0.15, 0.5]",1,1,0,14,14,14,0,0,0,2,,,,,,,,,,,,,,,,,,,,,,,,,,,,,,,,,,,,,,,,,,,,,,,,,,,,,,,,,,,,,,,263.8465312260005,None,263.8465312260005,None,263.8465312260005,None,g,1,0.5521694930002923,265.3797390460004,None,265.3797390460004,None,265.3797390460004,None,265.9964118550006,None,265.9964118550006,None,265.9964118550006,None,265.9964118550006,None,,,,,,,,,,,,,,,,,,,,,,,,,,,,,,,,,,,,,,,,,,,,001,80,2020_Feb_06_1022,spring_faces,3.1.5,59.94823949103981,
condition files/Stage0c_1.xlsx,0c,alpha,phi,h,"['h', 'g']","['Chess', 'Go']","[-0.15, 0.5]","[0.15, 0.5]",1,1,0,14,14,14,0,1,1,1,,,,,,,,,,,,,,,,,,,,,,,,,,,,,,,,,,,,,,,,,,,,,,,,,,,,,,,,,,,,,,,267.962914834,None,267.962914834,None,267.962914834,None,h,1,0.7235336889998507,269.49635926000065,None,269.49635926000065,None,269.49635926000065,None,270.27986892900026,None,270.27986892900026,None,270.27986892900026,None,270.27986892900026,None,,,,,,,,,,,,,,,,,,,,,,,,,,,,,,,,,,,,,,,,,,,,001,80,2020_Feb_06_1022,spring_faces,3.1.5,59.94823949103981,
condition files/Stage0c_1.xlsx,0c,phi,beta,g,"['h', 'g']","['Chess', 'Go']","[-0.15, 0.5]","[0.15, 0.5]",1,1,0,14,14,14,0,2,2,3,,,,,,,,,,,,,,,,,,,,,,,,,,,,,,,,,,,,,,,,,,,,,,,,,,,,,,,,,,,,,,,272.24630139200053,None,272.24630139200053,None,272.24630139200053,None,h,0,0.6641963359998044,273.7796818020006,None,273.7796818020006,None,273.7796818020006,None,274.49643044300046,None,274.49643044300046,None,274.49643044300046,None,274.49643044300046,None,,,,,,,,,,,,,,,,,,,,,,,,,,,,,,,,,,,,,,,,,,,,001,80,2020_Feb_06_1022,spring_faces,3.1.5,59.94823949103981,
condition files/Stage0c_1.xlsx,0c,theta,alpha,h,"['h', 'g']","['Chess', 'Go']","[-0.15, 0.5]","[0.15, 0.5]",1,1,0,14,14,14,0,3,3,0,,,,,,,,,,,,,,,,,,,,,,,,,,,,,,,,,,,,,,,,,,,,,,,,,,,,,,,,,,,,,,,276.46292617200015,None,276.46292617200015,None,276.46292617200015,None,h,1,0.5275061969996386,277.99639696099985,None,277.99639696099985,None,277.99639696099985,None,278.57971745600025,None,278.57971745600025,None,278.57971745600025,None,278.57971745600025,None,,,,,,,,,,,,,,,,,,,,,,,,,,,,,,,,,,,,,,,,,,,,001,80,2020_Feb_06_1022,spring_faces,3.1.5,59.94823949103981,
condition files/Stage0c_2.xlsx,0c,beta,phi,g,"['h', 'g']","['Chess', 'Go']","[-0.15, 0.5]","[0.15, 0.5]",1,1,0,15,15,15,0,0,0,3,,,,,,,,,,,,,,,,,,,,,,,,,,,,,,,,,,,,,,,,,,,,,,,,,,,,,,,,,,,,,,,280.5634774320006,None,280.5634774320006,None,280.5634774320006,None,g,1,0.4760886929998378,282.09588551900015,None,282.09588551900015,None,282.09588551900015,None,282.62952995200067,None,282.62952995200067,None,282.62952995200067,None,282.62952995200067,None,,,,,,,,,,,,,,,,,,,,,,,,,,,,,,,,,,,,,,,,,,,,001,80,2020_Feb_06_1022,spring_faces,3.1.5,59.94823949103981,
condition files/Stage0c_2.xlsx,0c,alpha,theta,h,"['h', 'g']","['Chess', 'Go']","[-0.15, 0.5]","[0.15, 0.5]",1,1,0,15,15,15,0,1,1,0,,,,,,,,,,,,,,,,,,,,,,,,,,,,,,,,,,,,,,,,,,,,,,,,,,,,,,,,,,,,,,,284.5954952279999,None,284.5954952279999,None,284.5954952279999,None,h,1,0.6344146860001274,286.1294526540005,None,286.1294526540005,None,286.1294526540005,None,286.81593270600024,None,286.81593270600024,None,286.81593270600024,None,286.81593270600024,None,,,,,,,,,,,,,,,,,,,,,,,,,,,,,,,,,,,,,,,,,,,,001,80,2020_Feb_06_1022,spring_faces,3.1.5,59.94823949103981,
condition files/Stage0c_2.xlsx,0c,theta,beta,g,"['h', 'g']","['Chess', 'Go']","[-0.15, 0.5]","[0.15, 0.5]",1,1,0,15,15,15,0,2,2,2,,,,,,,,,,,,,,,,,,,,,,,,,,,,,,,,,,,,,,,,,,,,,,,,,,,,,,,,,,,,,,,288.79614365199996,None,288.79614365199996,None,288.79614365199996,None,g,1,0.9946485370001028,290.3292308650007,None,290.3292308650007,None,290.3292308650007,None,291.37975652300065,None,291.37975652300065,None,291.37975652300065,None,291.37975652300065,None,,,,,,,,,,,,,,,,,,,,,,,,,,,,,,,,,,,,,,,,,,,,001,80,2020_Feb_06_1022,spring_faces,3.1.5,59.94823949103981,
condition files/Stage0c_2.xlsx,0c,phi,alpha,h,"['h', 'g']","['Chess', 'Go']","[-0.15, 0.5]","[0.15, 0.5]",1,1,0,15,15,15,0,3,3,1,,,,,,,,,,,,,,,,,,,,,,,,,,,,,,,,,,,,,,,,,,,,,,,,,,,,,,,,,,,,,,,293.34572660699996,None,293.34572660699996,None,293.34572660699996,None,h,1,0.4759429680007088,294.87991950500054,None,294.87991950500054,None,294.87991950500054,None,295.41287128100066,None,295.41287128100066,None,295.41287128100066,None,295.41287128100066,None,,,,,,,,,,,,,,,,,,,,,,,,,,,,,,,,,,,,,,,,,,,,001,80,2020_Feb_06_1022,spring_faces,3.1.5,59.94823949103981,
condition files/Stage0c_1.xlsx,0c,phi,beta,g,"['h', 'g']","['Chess', 'Go']","[-0.15, 0.5]","[0.15, 0.5]",1,1,0,16,16,16,0,0,0,3,,,,,,,,,,,,,,,,,,,,,,,,,,,,,,,,,,,,,,,,,,,,,,,,,,,,,,,,,,,,,,,297.3968700060004,None,297.3968700060004,None,297.3968700060004,None,g,1,0.5541344339999341,298.9297806630002,None,298.9297806630002,None,298.9297806630002,None,299.5465134740007,None,299.5465134740007,None,299.5465134740007,None,299.5465134740007,None,,,,,,,,,,,,,,,,,,,,,,,,,,,,,,,,,,,,,,,,,,,,001,80,2020_Feb_06_1022,spring_faces,3.1.5,59.94823949103981,
condition files/Stage0c_1.xlsx,0c,alpha,phi,h,"['h', 'g']","['Chess', 'Go']","[-0.15, 0.5]","[0.15, 0.5]",1,1,0,16,16,16,0,1,1,1,,,,,,,,,,,,,,,,,,,,,,,,,,,,,,,,,,,,,,,,,,,,,,,,,,,,,,,,,,,,,,,301.5129040410002,None,301.5129040410002,None,301.5129040410002,None,h,1,0.5975285829999848,303.04636534400015,None,303.04636534400015,None,303.04636534400015,None,303.69665538000027,None,303.69665538000027,None,303.69665538000027,None,303.69665538000027,None,,,,,,,,,,,,,,,,,,,,,,,,,,,,,,,,,,,,,,,,,,,,001,80,2020_Feb_06_1022,spring_faces,3.1.5,59.94823949103981,
condition files/Stage0c_1.xlsx,0c,theta,alpha,h,"['h', 'g']","['Chess', 'Go']","[-0.15, 0.5]","[0.15, 0.5]",1,1,0,16,16,16,0,2,2,0,,,,,,,,,,,,,,,,,,,,,,,,,,,,,,,,,,,,,,,,,,,,,,,,,,,,,,,,,,,,,,,305.66285485000026,None,305.66285485000026,None,305.66285485000026,None,h,1,0.9111894659999962,307.19663763100016,None,307.19663763100016,None,307.19663763100016,None,308.14628541799993,None,308.14628541799993,None,308.14628541799993,None,308.14628541799993,None,,,,,,,,,,,,,,,,,,,,,,,,,,,,,,,,,,,,,,,,,,,,001,80,2020_Feb_06_1022,spring_faces,3.1.5,59.94823949103981,
condition files/Stage0c_1.xlsx,0c,beta,theta,g,"['h', 'g']","['Chess', 'Go']","[-0.15, 0.5]","[0.15, 0.5]",1,1,0,16,16,16,0,3,3,2,,,,,,,,,,,,,,,,,,,,,,,,,,,,,,,,,,,,,,,,,,,,,,,,,,,,,,,,,,,,,,,310.12980899800004,None,310.12980899800004,None,310.12980899800004,None,g,1,0.637085850999938,311.6628178680003,None,311.6628178680003,None,311.6628178680003,None,312.3633360980002,None,312.3633360980002,None,312.3633360980002,None,312.3633360980002,None,,,,,,,,,,,,,,,,,,,,,,,,,,,,,,,,,,,,,,,,,,,,001,80,2020_Feb_06_1022,spring_faces,3.1.5,59.94823949103981,
condition files/Stage0c_2.xlsx,0c,phi,alpha,h,"['h', 'g']","['Chess', 'Go']","[-0.15, 0.5]","[0.15, 0.5]",1,1,0,17,17,17,0,0,0,1,,,,,,,,,,,,,,,,,,,,,,,,,,,,,,,,,,,,,,,,,,,,,,,,,,,,,,,,,,,,,,,314.3461988270001,None,314.3461988270001,None,314.3461988270001,None,h,1,0.6278821129999415,315.8799753829999,None,315.8799753829999,None,315.8799753829999,None,316.56359672000053,None,316.56359672000053,None,316.56359672000053,None,316.56359672000053,None,,,,,,,,,,,,,,,,,,,,,,,,,,,,,,,,,,,,,,,,,,,,001,80,2020_Feb_06_1022,spring_faces,3.1.5,59.94823949103981,
condition files/Stage0c_2.xlsx,0c,beta,phi,g,"['h', 'g']","['Chess', 'Go']","[-0.15, 0.5]","[0.15, 0.5]",1,1,0,17,17,17,0,1,1,3,,,,,,,,,,,,,,,,,,,,,,,,,,,,,,,,,,,,,,,,,,,,,,,,,,,,,,,,,,,,,,,318.5292827760004,None,318.5292827760004,None,318.5292827760004,None,g,1,1.4367538699998477,320.06319287800034,None,320.06319287800034,None,320.06319287800034,None,321.56327053400037,None,321.56327053400037,None,321.56327053400037,None,321.56327053400037,None,,,,,,,,,,,,,,,,,,,,,,,,,,,,,,,,,,,,,,,,,,,,001,80,2020_Feb_06_1022,spring_faces,3.1.5,59.94823949103981,
condition files/Stage0c_2.xlsx,0c,theta,beta,g,"['h', 'g']","['Chess', 'Go']","[-0.15, 0.5]","[0.15, 0.5]",1,1,0,17,17,17,0,2,2,2,,,,,,,,,,,,,,,,,,,,,,,,,,,,,,,,,,,,,,,,,,,,,,,,,,,,,,,,,,,,,,,323.5296183999999,None,323.5296183999999,None,323.5296183999999,None,g,1,0.7570130800004335,325.06287744400015,None,325.06287744400015,None,325.06287744400015,None,325.86479091900037,None,325.86479091900037,None,325.86479091900037,None,325.86479091900037,None,,,,,,,,,,,,,,,,,,,,,,,,,,,,,,,,,,,,,,,,,,,,001,80,2020_Feb_06_1022,spring_faces,3.1.5,59.94823949103981,
condition files/Stage0c_2.xlsx,0c,alpha,theta,h,"['h', 'g']","['Chess', 'Go']","[-0.15, 0.5]","[0.15, 0.5]",1,1,0,17,17,17,0,3,3,0,,,,,,,,,,,,,,,,,,,,,,,,,,,,,,,,,,,,,,,,,,,,,,,,,,,,,,,,,,,,,,,327.8476585799999,None,327.8476585799999,None,327.8476585799999,None,h,1,0.6318533889998434,329.3800334480002,None,329.3800334480002,None,329.3800334480002,None,330.06276368,None,330.06276368,None,330.06276368,None,330.06276368,None,,,,,,,,,,,,,,,,,,,,,,,,,,,,,,,,,,,,,,,,,,,,001,80,2020_Feb_06_1022,spring_faces,3.1.5,59.94823949103981,
,,,,,,,,,,,,,,,,,,,,,,,,,,,,,,,,,,,,,,,,,,,,,,,,,,,,,,,,,,,,,,,,,,,,,,,,,,,,,,,,,,,,,,,,,,,,,,,,,,,,,,,,332.04588860700005,None,space,3.141610359999504,337.0463761360006,None,,,,,,,,,,,,,,,,,,,,,,,,,,,,,,,,,,,,,,001,80,2020_Feb_06_1022,spring_faces,3.1.5,59.94823949103981,
condition files/Stage1_1.xlsx,,T2,B2,m,"['c', 'm']","['Clue', 'Monopoly']","[-0.15, 0.5]","[0.15, 0.5]",1,1,,,,,,,,,0,0,0,0,0,0,0,3,,,,,,,,,,,,,,,,,,,,,,,,,,,,,,,,,,,,,,,,,,,,,,,,,,,,,,,340.2466146320003,None,340.2466146320003,None,340.2466146320003,None,c,0,1.8145137299998169,341.82938439100053,None,341.82938439100053,None,341.82938439100053,None,343.7135618170005,None,343.7135618170005,None,343.7135618170005,None,343.7135618170005,None,,,,,,,337.0463761360006,None,,,,,,,,,,,,,,,,,,,,,,,,,,,,,,,,,,,,001,80,2020_Feb_06_1022,spring_faces,3.1.5,59.94823949103981,
condition files/Stage1_1.xlsx,,T4,B3,m,"['c', 'm']","['Clue', 'Monopoly']","[-0.15, 0.5]","[0.15, 0.5]",1,1,,,,,,,,,0,0,0,0,0,1,1,6,,,,,,,,,,,,,,,,,,,,,,,,,,,,,,,,,,,,,,,,,,,,,,,,,,,,,,,345.6628838610004,None,345.6628838610004,None,345.6628838610004,None,m,1,1.0557361170003787,347.1961940250003,None,347.1961940250003,None,347.1961940250003,None,348.3132365370002,None,348.3132365370002,None,348.3132365370002,None,348.3132365370002,None,,,,,,,,,,,,,,,,,,,,,,,,,,,,,,,,,,,,,,,,,,,,001,80,2020_Feb_06_1022,spring_faces,3.1.5,59.94823949103981,
condition files/Stage1_1.xlsx,,T1,B1,c,"['c', 'm']","['Clue', 'Monopoly']","[-0.15, 0.5]","[0.15, 0.5]",1,1,,,,,,,,,0,0,0,0,0,2,2,0,,,,,,,,,,,,,,,,,,,,,,,,,,,,,,,,,,,,,,,,,,,,,,,,,,,,,,,350.27996870600055,None,350.27996870600055,None,350.27996870600055,None,c,1,0.789121573000557,351.8148715610005,None,351.8148715610005,None,351.8148715610005,None,352.6627732730003,None,352.6627732730003,None,352.6627732730003,None,352.6627732730003,None,,,,,,,,,,,,,,,,,,,,,,,,,,,,,,,,,,,,,,,,,,,,001,80,2020_Feb_06_1022,spring_faces,3.1.5,59.94823949103981,
condition files/Stage1_1.xlsx,,B2,T1,m,"['c', 'm']","['Clue', 'Monopoly']","[-0.15, 0.5]","[0.15, 0.5]",1,1,,,,,,,,,0,0,0,0,0,3,3,2,,,,,,,,,,,,,,,,,,,,,,,,,,,,,,,,,,,,,,,,,,,,,,,,,,,,,,,354.629678538,None,354.629678538,None,354.629678538,None,c,0,0.6477716079998572,356.16413618500064,None,356.16413618500064,None,356.16413618500064,None,356.86530702800064,None,356.86530702800064,None,356.86530702800064,None,356.86530702800064,None,,,,,,,,,,,,,,,,,,,,,,,,,,,,,,,,,,,,,,,,,,,,001,80,2020_Feb_06_1022,spring_faces,3.1.5,59.94823949103981,
condition files/Stage1_1.xlsx,,B4,T4,m,"['c', 'm']","['Clue', 'Monopoly']","[-0.15, 0.5]","[0.15, 0.5]",1,1,,,,,,,,,0,0,0,0,0,4,4,7,,,,,,,,,,,,,,,,,,,,,,,,,,,,,,,,,,,,,,,,,,,,,,,,,,,,,,,358.82967960099995,None,358.82967960099995,None,358.82967960099995,None,c,0,1.0399805060005747,360.37998260600034,None,360.37998260600034,None,360.37998260600034,None,361.47915115400065,None,361.47915115400065,None,361.47915115400065,None,361.47915115400065,None,,,,,,,,,,,,,,,,,,,,,,,,,,,,,,,,,,,,,,,,,,,,001,80,2020_Feb_06_1022,spring_faces,3.1.5,59.94823949103981,
condition files/Stage1_1.xlsx,,T3,B4,c,"['c', 'm']","['Clue', 'Monopoly']","[-0.15, 0.5]","[0.15, 0.5]",1,1,,,,,,,,,0,0,0,0,0,5,5,5,,,,,,,,,,,,,,,,,,,,,,,,,,,,,,,,,,,,,,,,,,,,,,,,,,,,,,,363.44639647500026,None,363.44639647500026,None,363.44639647500026,None,m,0,1.654711340999711,364.98126870099986,None,364.98126870099986,None,364.98126870099986,None,366.69909084400024,None,366.69909084400024,None,366.69909084400024,None,366.69909084400024,None,,,,,,,,,,,,,,,,,,,,,,,,,,,,,,,,,,,,,,,,,,,,001,80,2020_Feb_06_1022,spring_faces,3.1.5,59.94823949103981,
condition files/Stage1_1.xlsx,,B1,T2,c,"['c', 'm']","['Clue', 'Monopoly']","[-0.15, 0.5]","[0.15, 0.5]",1,1,,,,,,,,,0,0,0,0,0,6,6,1,,,,,,,,,,,,,,,,,,,,,,,,,,,,,,,,,,,,,,,,,,,,,,,,,,,,,,,368.6626499660006,None,368.6626499660006,None,368.6626499660006,None,m,0,1.1917485520007176,370.19624026100064,None,370.19624026100064,None,370.19624026100064,None,371.44697807400007,None,371.44697807400007,None,371.44697807400007,None,371.44697807400007,None,,,,,,,,,,,,,,,,,,,,,,,,,,,,,,,,,,,,,,,,,,,,001,80,2020_Feb_06_1022,spring_faces,3.1.5,59.94823949103981,
condition files/Stage1_1.xlsx,,B3,T3,c,"['c', 'm']","['Clue', 'Monopoly']","[-0.15, 0.5]","[0.15, 0.5]",1,1,,,,,,,,,0,0,0,0,0,7,7,4,,,,,,,,,,,,,,,,,,,,,,,,,,,,,,,,,,,,,,,,,,,,,,,,,,,,,,,373.4128957970006,None,373.4128957970006,None,373.4128957970006,None,m,0,0.6636850160002723,374.94821355800013,None,374.94821355800013,None,374.94821355800013,None,375.6628605650003,None,375.6628605650003,None,375.6628605650003,None,375.6628605650003,None,,,,,,,,,,,,,,,,,,,,,,,,,,,,,,,,,,,,,,,,,,,,001,80,2020_Feb_06_1022,spring_faces,3.1.5,59.94823949103981,
condition files/Stage1_2.xlsx,,T4,B4,m,"['c', 'm']","['Clue', 'Monopoly']","[-0.15, 0.5]","[0.15, 0.5]",1,1,,,,,,,,,0,1,1,1,0,0,0,7,,,,,,,,,,,,,,,,,,,,,,,,,,,,,,,,,,,,,,,,,,,,,,,,,,,,,,,377.6459434970002,None,377.6459434970002,None,377.6459434970002,None,m,1,1.1186940349998622,379.1812285570004,None,379.1812285570004,None,379.1812285570004,None,380.37997576399994,None,380.37997576399994,None,380.37997576399994,None,380.37997576399994,None,,,,,,,,,,,,,,,,,,,,,,,,,,,,,,,,,,,,,,,,,,,,001,80,2020_Feb_06_1022,spring_faces,3.1.5,59.94823949103981,
condition files/Stage1_2.xlsx,,B2,T2,m,"['c', 'm']","['Clue', 'Monopoly']","[-0.15, 0.5]","[0.15, 0.5]",1,1,,,,,,,,,0,1,1,1,0,1,1,3,,,,,,,,,,,,,,,,,,,,,,,,,,,,,,,,,,,,,,,,,,,,,,,,,,,,,,,382.32951557900014,None,382.32951557900014,None,382.32951557900014,None,m,1,1.461211894000371,383.86268225799995,None,383.86268225799995,None,383.86268225799995,None,385.37982744800047,None,385.37982744800047,None,385.37982744800047,None,385.37982744800047,None,,,,,,,,,,,,,,,,,,,,,,,,,,,,,,,,,,,,,,,,,,,,001,80,2020_Feb_06_1022,spring_faces,3.1.5,59.94823949103981,
condition files/Stage1_2.xlsx,,B3,T4,m,"['c', 'm']","['Clue', 'Monopoly']","[-0.15, 0.5]","[0.15, 0.5]",1,1,,,,,,,,,0,1,1,1,0,2,2,6,,,,,,,,,,,,,,,,,,,,,,,,,,,,,,,,,,,,,,,,,,,,,,,,,,,,,,,387.34585939499993,None,387.34585939499993,None,387.34585939499993,None,m,1,0.7620533079998495,388.8818469730004,None,388.8818469730004,None,388.8818469730004,None,389.6958145710005,None,389.6958145710005,None,389.6958145710005,None,389.6958145710005,None,,,,,,,,,,,,,,,,,,,,,,,,,,,,,,,,,,,,,,,,,,,,001,80,2020_Feb_06_1022,spring_faces,3.1.5,59.94823949103981,
condition files/Stage1_2.xlsx,,T1,B2,m,"['c', 'm']","['Clue', 'Monopoly']","[-0.15, 0.5]","[0.15, 0.5]",1,1,,,,,,,,,0,1,1,1,0,3,3,2,,,,,,,,,,,,,,,,,,,,,,,,,,,,,,,,,,,,,,,,,,,,,,,,,,,,,,,391.6625962850003,None,391.6625962850003,None,391.6625962850003,None,m,1,2.6382265590000316,393.1977487720005,None,393.1977487720005,None,393.1977487720005,None,395.896097885,None,395.896097885,None,395.896097885,None,395.896097885,None,,,,,,,,,,,,,,,,,,,,,,,,,,,,,,,,,,,,,,,,,,,,001,80,2020_Feb_06_1022,spring_faces,3.1.5,59.94823949103981,
condition files/Stage1_2.xlsx,,T2,B1,c,"['c', 'm']","['Clue', 'Monopoly']","[-0.15, 0.5]","[0.15, 0.5]",1,1,,,,,,,,,0,1,1,1,0,4,4,1,,,,,,,,,,,,,,,,,,,,,,,,,,,,,,,,,,,,,,,,,,,,,,,,,,,,,,,397.86298306200024,None,397.86298306200024,None,397.86298306200024,None,c,1,0.9830847759994867,399.3967758100007,None,399.3967758100007,None,399.3967758100007,None,400.44725391000065,None,400.44725391000065,None,400.44725391000065,None,400.44725391000065,None,,,,,,,,,,,,,,,,,,,,,,,,,,,,,,,,,,,,,,,,,,,,001,80,2020_Feb_06_1022,spring_faces,3.1.5,59.94823949103981,
condition files/Stage1_2.xlsx,,B1,T1,c,"['c', 'm']","['Clue', 'Monopoly']","[-0.15, 0.5]","[0.15, 0.5]",1,1,,,,,,,,,0,1,1,1,0,5,5,0,,,,,,,,,,,,,,,,,,,,,,,,,,,,,,,,,,,,,,,,,,,,,,,,,,,,,,,402.41230472700045,None,402.41230472700045,None,402.41230472700045,None,c,1,0.8977961139999024,403.94611551600065,None,403.94611551600065,None,403.94611551600065,None,404.89651949700055,None,404.89651949700055,None,404.89651949700055,None,404.89651949700055,None,,,,,,,,,,,,,,,,,,,,,,,,,,,,,,,,,,,,,,,,,,,,001,80,2020_Feb_06_1022,spring_faces,3.1.5,59.94823949103981,
condition files/Stage1_2.xlsx,,T3,B3,c,"['c', 'm']","['Clue', 'Monopoly']","[-0.15, 0.5]","[0.15, 0.5]",1,1,,,,,,,,,0,1,1,1,0,6,6,4,,,,,,,,,,,,,,,,,,,,,,,,,,,,,,,,,,,,,,,,,,,,,,,,,,,,,,,406.8629782420003,None,406.8629782420003,None,406.8629782420003,None,c,1,1.5669411499993657,408.3969332830002,None,408.3969332830002,None,408.3969332830002,None,410.0301685889999,None,410.0301685889999,None,410.0301685889999,None,410.0301685889999,None,,,,,,,,,,,,,,,,,,,,,,,,,,,,,,,,,,,,,,,,,,,,001,80,2020_Feb_06_1022,spring_faces,3.1.5,59.94823949103981,
condition files/Stage1_2.xlsx,,B4,T3,c,"['c', 'm']","['Clue', 'Monopoly']","[-0.15, 0.5]","[0.15, 0.5]",1,1,,,,,,,,,0,1,1,1,0,7,7,5,,,,,,,,,,,,,,,,,,,,,,,,,,,,,,,,,,,,,,,,,,,,,,,,,,,,,,,411.9962444840003,None,411.9962444840003,None,411.9962444840003,None,c,1,0.690051900999606,413.545923957,None,413.545923957,None,413.545923957,None,414.2968725589999,None,414.2968725589999,None,414.2968725589999,None,414.2968725589999,None,,,,,,,,,,,,,,,,,,,,,,,,,,,,,,,,,,,,,,,,,,,,001,80,2020_Feb_06_1022,spring_faces,3.1.5,59.94823949103981,
condition files/Stage1_1.xlsx,,B3,T3,c,"['c', 'm']","['Clue', 'Monopoly']","[-0.15, 0.5]","[0.15, 0.5]",1,1,,,,,,,,,0,2,2,2,0,0,0,4,,,,,,,,,,,,,,,,,,,,,,,,,,,,,,,,,,,,,,,,,,,,,,,,,,,,,,,416.27961482499995,None,416.27961482499995,None,416.27961482499995,None,c,1,0.757898718999968,417.81410210300055,None,417.81410210300055,None,417.81410210300055,None,418.62959666200004,None,418.62959666200004,None,418.62959666200004,None,418.62959666200004,None,,,,,,,,,,,,,,,,,,,,,,,,,,,,,,,,,,,,,,,,,,,,001,80,2020_Feb_06_1022,spring_faces,3.1.5,59.94823949103981,
condition files/Stage1_1.xlsx,,B1,T2,c,"['c', 'm']","['Clue', 'Monopoly']","[-0.15, 0.5]","[0.15, 0.5]",1,1,,,,,,,,,0,2,2,2,0,1,1,1,,,,,,,,,,,,,,,,,,,,,,,,,,,,,,,,,,,,,,,,,,,,,,,,,,,,,,,420.5960210990006,None,420.5960210990006,None,420.5960210990006,None,m,0,0.8096890870001516,422.1302919480004,None,422.1302919480004,None,422.1302919480004,None,422.99656888700065,None,422.99656888700065,None,422.99656888700065,None,422.99656888700065,None,,,,,,,,,,,,,,,,,,,,,,,,,,,,,,,,,,,,,,,,,,,,001,80,2020_Feb_06_1022,spring_faces,3.1.5,59.94823949103981,
condition files/Stage1_1.xlsx,,T2,B2,m,"['c', 'm']","['Clue', 'Monopoly']","[-0.15, 0.5]","[0.15, 0.5]",1,1,,,,,,,,,0,2,2,2,0,2,2,3,,,,,,,,,,,,,,,,,,,,,,,,,,,,,,,,,,,,,,,,,,,,,,,,,,,,,,,424.9625428010004,None,424.9625428010004,None,424.9625428010004,None,c,0,1.0505148510001163,426.49739536800007,None,426.49739536800007,None,426.49739536800007,None,427.6156813030002,None,427.6156813030002,None,427.6156813030002,None,427.6156813030002,None,,,,,,,,,,,,,,,,,,,,,,,,,,,,,,,,,,,,,,,,,,,,001,80,2020_Feb_06_1022,spring_faces,3.1.5,59.94823949103981,
condition files/Stage1_1.xlsx,,B4,T4,m,"['c', 'm']","['Clue', 'Monopoly']","[-0.15, 0.5]","[0.15, 0.5]",1,1,,,,,,,,,0,2,2,2,0,3,3,7,,,,,,,,,,,,,,,,,,,,,,,,,,,,,,,,,,,,,,,,,,,,,,,,,,,,,,,429.5789988209999,None,429.5789988209999,None,429.5789988209999,None,m,1,0.6419464030004747,431.13001963399984,None,431.13001963399984,None,431.13001963399984,None,431.8294568330002,None,431.8294568330002,None,431.8294568330002,None,431.8294568330002,None,,,,,,,,,,,,,,,,,,,,,,,,,,,,,,,,,,,,,,,,,,,,001,80,2020_Feb_06_1022,spring_faces,3.1.5,59.94823949103981,
condition files/Stage1_1.xlsx,,T1,B1,c,"['c', 'm']","['Clue', 'Monopoly']","[-0.15, 0.5]","[0.15, 0.5]",1,1,,,,,,,,,0,2,2,2,0,4,4,0,,,,,,,,,,,,,,,,,,,,,,,,,,,,,,,,,,,,,,,,,,,,,,,,,,,,,,,433.79629131300044,None,433.79629131300044,None,433.79629131300044,None,c,1,0.7624056610002299,435.32950228900063,None,435.32950228900063,None,435.32950228900063,None,436.1454639120002,None,436.1454639120002,None,436.1454639120002,None,436.1454639120002,None,,,,,,,,,,,,,,,,,,,,,,,,,,,,,,,,,,,,,,,,,,,,001,80,2020_Feb_06_1022,spring_faces,3.1.5,59.94823949103981,
condition files/Stage1_1.xlsx,,T4,B3,m,"['c', 'm']","['Clue', 'Monopoly']","[-0.15, 0.5]","[0.15, 0.5]",1,1,,,,,,,,,0,2,2,2,0,5,5,6,,,,,,,,,,,,,,,,,,,,,,,,,,,,,,,,,,,,,,,,,,,,,,,,,,,,,,,438.1126701940002,None,438.1126701940002,None,438.1126701940002,None,m,1,0.8292710320001788,439.64665396500004,None,439.64665396500004,None,439.64665396500004,None,440.5312580870004,None,440.5312580870004,None,440.5312580870004,None,440.5312580870004,None,,,,,,,,,,,,,,,,,,,,,,,,,,,,,,,,,,,,,,,,,,,,001,80,2020_Feb_06_1022,spring_faces,3.1.5,59.94823949103981,
condition files/Stage1_1.xlsx,,T3,B4,c,"['c', 'm']","['Clue', 'Monopoly']","[-0.15, 0.5]","[0.15, 0.5]",1,1,,,,,,,,,0,2,2,2,0,6,6,5,,,,,,,,,,,,,,,,,,,,,,,,,,,,,,,,,,,,,,,,,,,,,,,,,,,,,,,442.49559370800034,None,442.49559370800034,None,442.49559370800034,None,c,1,0.636697728999934,444.0312307969998,None,444.0312307969998,None,444.0312307969998,None,444.73068721600066,None,444.73068721600066,None,444.73068721600066,None,444.73068721600066,None,,,,,,,,,,,,,,,,,,,,,,,,,,,,,,,,,,,,,,,,,,,,001,80,2020_Feb_06_1022,spring_faces,3.1.5,59.94823949103981,
condition files/Stage1_1.xlsx,,B2,T1,m,"['c', 'm']","['Clue', 'Monopoly']","[-0.15, 0.5]","[0.15, 0.5]",1,1,,,,,,,,,0,2,2,2,0,7,7,2,,,,,,,,,,,,,,,,,,,,,,,,,,,,,,,,,,,,,,,,,,,,,,,,,,,,,,,446.696225445,None,446.696225445,None,446.696225445,None,c,0,1.9747778450000624,448.2291982229999,None,448.2291982229999,None,448.2291982229999,None,450.2629878260004,None,450.2629878260004,None,450.2629878260004,None,450.2629878260004,None,,,,,,,,,,,,,,,,,,,,,,,,,,,,,,,,,,,,,,,,,,,,001,80,2020_Feb_06_1022,spring_faces,3.1.5,59.94823949103981,
condition files/Stage1_2.xlsx,,T3,B3,c,"['c', 'm']","['Clue', 'Monopoly']","[-0.15, 0.5]","[0.15, 0.5]",1,1,,,,,,,,,0,3,3,3,0,0,0,4,,,,,,,,,,,,,,,,,,,,,,,,,,,,,,,,,,,,,,,,,,,,,,,,,,,,,,,452.2461005040004,None,452.2461005040004,None,452.2461005040004,None,c,1,0.8877094620002026,453.79620905200045,None,453.79620905200045,None,453.79620905200045,None,454.74611034400004,None,454.74611034400004,None,454.74611034400004,None,454.74611034400004,None,,,,,,,,,,,,,,,,,,,,,,,,,,,,,,,,,,,,,,,,,,,,001,80,2020_Feb_06_1022,spring_faces,3.1.5,59.94823949103981,
condition files/Stage1_2.xlsx,,T2,B1,c,"['c', 'm']","['Clue', 'Monopoly']","[-0.15, 0.5]","[0.15, 0.5]",1,1,,,,,,,,,0,3,3,3,0,1,1,1,,,,,,,,,,,,,,,,,,,,,,,,,,,,,,,,,,,,,,,,,,,,,,,,,,,,,,,456.71285497900044,None,456.71285497900044,None,456.71285497900044,None,m,0,0.8538356030003342,458.24609177,None,458.24609177,None,458.24609177,None,459.16267684800005,None,459.16267684800005,None,459.16267684800005,None,459.16267684800005,None,,,,,,,,,,,,,,,,,,,,,,,,,,,,,,,,,,,,,,,,,,,,001,80,2020_Feb_06_1022,spring_faces,3.1.5,59.94823949103981,
condition files/Stage1_2.xlsx,,B2,T2,m,"['c', 'm']","['Clue', 'Monopoly']","[-0.15, 0.5]","[0.15, 0.5]",1,1,,,,,,,,,0,3,3,3,0,2,2,3,,,,,,,,,,,,,,,,,,,,,,,,,,,,,,,,,,,,,,,,,,,,,,,,,,,,,,,461.12956957500046,None,461.12956957500046,None,461.12956957500046,None,m,1,0.6115743069995005,462.66433674400014,None,462.66433674400014,None,462.66433674400014,None,463.3459228600004,None,463.3459228600004,None,463.3459228600004,None,463.3459228600004,None,,,,,,,,,,,,,,,,,,,,,,,,,,,,,,,,,,,,,,,,,,,,001,80,2020_Feb_06_1022,spring_faces,3.1.5,59.94823949103981,
condition files/Stage1_2.xlsx,,B3,T4,m,"['c', 'm']","['Clue', 'Monopoly']","[-0.15, 0.5]","[0.15, 0.5]",1,1,,,,,,,,,0,3,3,3,0,3,3,6,,,,,,,,,,,,,,,,,,,,,,,,,,,,,,,,,,,,,,,,,,,,,,,,,,,,,,,465.29634866500055,None,465.29634866500055,None,465.29634866500055,None,m,1,0.6517556990002049,466.8321708630001,None,466.8321708630001,None,466.8321708630001,None,467.54648968200036,None,467.54648968200036,None,467.54648968200036,None,467.54648968200036,None,,,,,,,,,,,,,,,,,,,,,,,,,,,,,,,,,,,,,,,,,,,,001,80,2020_Feb_06_1022,spring_faces,3.1.5,59.94823949103981,
condition files/Stage1_2.xlsx,,B1,T1,c,"['c', 'm']","['Clue', 'Monopoly']","[-0.15, 0.5]","[0.15, 0.5]",1,1,,,,,,,,,0,3,3,3,0,4,4,0,,,,,,,,,,,,,,,,,,,,,,,,,,,,,,,,,,,,,,,,,,,,,,,,,,,,,,,469.5128448380001,None,469.5128448380001,None,469.5128448380001,None,c,1,1.3159246830000484,471.04794137000044,None,471.04794137000044,None,471.04794137000044,None,472.4323624190001,None,472.4323624190001,None,472.4323624190001,None,472.4323624190001,None,,,,,,,,,,,,,,,,,,,,,,,,,,,,,,,,,,,,,,,,,,,,001,80,2020_Feb_06_1022,spring_faces,3.1.5,59.94823949103981,
condition files/Stage1_2.xlsx,,B4,T3,c,"['c', 'm']","['Clue', 'Monopoly']","[-0.15, 0.5]","[0.15, 0.5]",1,1,,,,,,,,,0,3,3,3,0,5,5,5,,,,,,,,,,,,,,,,,,,,,,,,,,,,,,,,,,,,,,,,,,,,,,,,,,,,,,,474.39585341900056,None,474.39585341900056,None,474.39585341900056,None,c,1,1.41048555100042,475.9294945010006,None,475.9294945010006,None,475.9294945010006,None,477.39655525299986,None,477.39655525299986,None,477.39655525299986,None,477.39655525299986,None,,,,,,,,,,,,,,,,,,,,,,,,,,,,,,,,,,,,,,,,,,,,001,80,2020_Feb_06_1022,spring_faces,3.1.5,59.94823949103981,
condition files/Stage1_2.xlsx,,T4,B4,m,"['c', 'm']","['Clue', 'Monopoly']","[-0.15, 0.5]","[0.15, 0.5]",1,1,,,,,,,,,0,3,3,3,0,6,6,7,,,,,,,,,,,,,,,,,,,,,,,,,,,,,,,,,,,,,,,,,,,,,,,,,,,,,,,479.36292709200006,None,479.36292709200006,None,479.36292709200006,None,m,1,0.7624837339999431,480.8975586480001,None,480.8975586480001,None,480.8975586480001,None,481.72999879500003,None,481.72999879500003,None,481.72999879500003,None,481.72999879500003,None,,,,,,,,,,,,,,,,,,,,,,,,,,,,,,,,,,,,,,,,,,,,001,80,2020_Feb_06_1022,spring_faces,3.1.5,59.94823949103981,
condition files/Stage1_2.xlsx,,T1,B2,m,"['c', 'm']","['Clue', 'Monopoly']","[-0.15, 0.5]","[0.15, 0.5]",1,1,,,,,,,,,0,3,3,3,0,7,7,2,,,,,,,,,,,,,,,,,,,,,,,,,,,,,,,,,,,,,,,,,,,,,,,,,,,,,,,483.6796406880003,None,483.6796406880003,None,483.6796406880003,None,c,0,1.1987561010000718,485.2131379270004,None,485.2131379270004,None,485.2131379270004,None,486.4632328710004,None,486.4632328710004,None,486.4632328710004,None,486.4632328710004,None,,,,,,,,,,,,,,,,,,,,,,,,,,,,,,,,,,,,,,,,,,,,001,80,2020_Feb_06_1022,spring_faces,3.1.5,59.94823949103981,
condition files/Stage1_1.xlsx,,B3,T3,c,"['c', 'm']","['Clue', 'Monopoly']","[-0.15, 0.5]","[0.15, 0.5]",1,1,,,,,,,,,0,4,4,4,0,0,0,4,,,,,,,,,,,,,,,,,,,,,,,,,,,,,,,,,,,,,,,,,,,,,,,,,,,,,,,488.4468156040002,None,488.4468156040002,None,488.4468156040002,None,c,1,1.0731451619994914,489.9787731960005,None,489.9787731960005,None,489.9787731960005,None,491.12979896900015,None,491.12979896900015,None,491.12979896900015,None,491.12979896900015,None,,,,,,,,,,,,,,,,,,,,,,,,,,,,,,,,,,,,,,,,,,,,001,80,2020_Feb_06_1022,spring_faces,3.1.5,59.94823949103981,
condition files/Stage1_1.xlsx,,B4,T4,m,"['c', 'm']","['Clue', 'Monopoly']","[-0.15, 0.5]","[0.15, 0.5]",1,1,,,,,,,,,0,4,4,4,0,1,1,7,,,,,,,,,,,,,,,,,,,,,,,,,,,,,,,,,,,,,,,,,,,,,,,,,,,,,,,493.07896530000016,None,493.07896530000016,None,493.07896530000016,None,m,1,1.2058995140005209,494.614077532,None,494.614077532,None,494.614077532,None,495.8964479570004,None,495.8964479570004,None,495.8964479570004,None,495.8964479570004,None,,,,,,,,,,,,,,,,,,,,,,,,,,,,,,,,,,,,,,,,,,,,001,80,2020_Feb_06_1022,spring_faces,3.1.5,59.94823949103981,
condition files/Stage1_1.xlsx,,T3,B4,c,"['c', 'm']","['Clue', 'Monopoly']","[-0.15, 0.5]","[0.15, 0.5]",1,1,,,,,,,,,0,4,4,4,0,2,2,5,,,,,,,,,,,,,,,,,,,,,,,,,,,,,,,,,,,,,,,,,,,,,,,,,,,,,,,497.84625752400007,None,497.84625752400007,None,497.84625752400007,None,c,1,0.7273272720003661,499.39653495400034,None,499.39653495400034,None,499.39653495400034,None,500.18006424600026,None,500.18006424600026,None,500.18006424600026,None,500.18006424600026,None,,,,,,,,,,,,,,,,,,,,,,,,,,,,,,,,,,,,,,,,,,,,001,80,2020_Feb_06_1022,spring_faces,3.1.5,59.94823949103981,
condition files/Stage1_1.xlsx,,T1,B1,c,"['c', 'm']","['Clue', 'Monopoly']","[-0.15, 0.5]","[0.15, 0.5]",1,1,,,,,,,,,0,4,4,4,0,3,3,0,,,,,,,,,,,,,,,,,,,,,,,,,,,,,,,,,,,,,,,,,,,,,,,,,,,,,,,502.145962306,None,502.145962306,None,502.145962306,None,c,1,1.0202947819998371,503.6796242110004,None,503.6796242110004,None,503.6796242110004,None,504.76323647000027,None,504.76323647000027,None,504.76323647000027,None,504.76323647000027,None,,,,,,,,,,,,,,,,,,,,,,,,,,,,,,,,,,,,,,,,,,,,001,80,2020_Feb_06_1022,spring_faces,3.1.5,59.94823949103981,
condition files/Stage1_1.xlsx,,T2,B2,m,"['c', 'm']","['Clue', 'Monopoly']","[-0.15, 0.5]","[0.15, 0.5]",1,1,,,,,,,,,0,4,4,4,0,4,4,3,,,,,,,,,,,,,,,,,,,,,,,,,,,,,,,,,,,,,,,,,,,,,,,,,,,,,,,506.7295852840007,None,506.7295852840007,None,506.7295852840007,None,c,0,1.797219137999491,508.2626153330002,None,508.2626153330002,None,508.2626153330002,None,510.1140458609998,None,510.1140458609998,None,510.1140458609998,None,510.1140458609998,None,,,,,,,,,,,,,,,,,,,,,,,,,,,,,,,,,,,,,,,,,,,,001,80,2020_Feb_06_1022,spring_faces,3.1.5,59.94823949103981,
condition files/Stage1_1.xlsx,,B1,T2,c,"['c', 'm']","['Clue', 'Monopoly']","[-0.15, 0.5]","[0.15, 0.5]",1,1,,,,,,,,,0,4,4,4,0,5,5,1,,,,,,,,,,,,,,,,,,,,,,,,,,,,,,,,,,,,,,,,,,,,,,,,,,,,,,,512.0794764040002,None,512.0794764040002,None,512.0794764040002,None,c,1,0.7511526420003065,513.6127413410004,None,513.6127413410004,None,513.6127413410004,None,514.4299507570004,None,514.4299507570004,None,514.4299507570004,None,514.4299507570004,None,,,,,,,,,,,,,,,,,,,,,,,,,,,,,,,,,,,,,,,,,,,,001,80,2020_Feb_06_1022,spring_faces,3.1.5,59.94823949103981,
condition files/Stage1_1.xlsx,,T4,B3,m,"['c', 'm']","['Clue', 'Monopoly']","[-0.15, 0.5]","[0.15, 0.5]",1,1,,,,,,,,,0,4,4,4,0,6,6,6,,,,,,,,,,,,,,,,,,,,,,,,,,,,,,,,,,,,,,,,,,,,,,,,,,,,,,,516.3966489210006,None,516.3966489210006,None,516.3966489210006,None,m,1,0.6735185739998997,517.9304665500003,None,517.9304665500003,None,517.9304665500003,None,518.6634239800005,None,518.6634239800005,None,518.6634239800005,None,518.6634239800005,None,,,,,,,,,,,,,,,,,,,,,,,,,,,,,,,,,,,,,,,,,,,,001,80,2020_Feb_06_1022,spring_faces,3.1.5,59.94823949103981,
condition files/Stage1_1.xlsx,,B2,T1,m,"['c', 'm']","['Clue', 'Monopoly']","[-0.15, 0.5]","[0.15, 0.5]",1,1,,,,,,,,,0,4,4,4,0,7,7,2,,,,,,,,,,,,,,,,,,,,,,,,,,,,,,,,,,,,,,,,,,,,,,,,,,,,,,,520.6299418030003,None,520.6299418030003,None,520.6299418030003,None,m,1,1.080323184000008,522.1635939200005,None,522.1635939200005,None,522.1635939200005,None,523.296603834,None,523.296603834,None,523.296603834,None,523.296603834,None,,,,,,,,,,,,,,,,,,,,,,,,,,,,,,,,,,,,,,,,,,,,001,80,2020_Feb_06_1022,spring_faces,3.1.5,59.94823949103981,
condition files/Stage1_2.xlsx,,T4,B4,m,"['c', 'm']","['Clue', 'Monopoly']","[-0.15, 0.5]","[0.15, 0.5]",1,1,,,,,,,,,0,5,5,5,0,0,0,7,,,,,,,,,,,,,,,,,,,,,,,,,,,,,,,,,,,,,,,,,,,,,,,,,,,,,,,525.2802924100006,None,525.2802924100006,None,525.2802924100006,None,m,1,1.0859142890003568,526.8140123930007,None,526.8140123930007,None,526.8140123930007,None,527.9627013320005,None,527.9627013320005,None,527.9627013320005,None,527.9627013320005,None,,,,,,,,,,,,,,,,,,,,,,,,,,,,,,,,,,,,,,,,,,,,001,80,2020_Feb_06_1022,spring_faces,3.1.5,59.94823949103981,
condition files/Stage1_2.xlsx,,T1,B2,m,"['c', 'm']","['Clue', 'Monopoly']","[-0.15, 0.5]","[0.15, 0.5]",1,1,,,,,,,,,0,5,5,5,0,1,1,2,,,,,,,,,,,,,,,,,,,,,,,,,,,,,,,,,,,,,,,,,,,,,,,,,,,,,,,529.9293776969998,None,529.9293776969998,None,529.9293776969998,None,c,0,1.1572600030003741,531.4627350179999,None,531.4627350179999,None,531.4627350179999,None,532.6803205180004,None,532.6803205180004,None,532.6803205180004,None,532.6803205180004,None,,,,,,,,,,,,,,,,,,,,,,,,,,,,,,,,,,,,,,,,,,,,001,80,2020_Feb_06_1022,spring_faces,3.1.5,59.94823949103981,
condition files/Stage1_2.xlsx,,B4,T3,c,"['c', 'm']","['Clue', 'Monopoly']","[-0.15, 0.5]","[0.15, 0.5]",1,1,,,,,,,,,0,5,5,5,0,2,2,5,,,,,,,,,,,,,,,,,,,,,,,,,,,,,,,,,,,,,,,,,,,,,,,,,,,,,,,534.6459863780001,None,534.6459863780001,None,534.6459863780001,None,c,1,0.9681331280007726,536.1797160289998,None,536.1797160289998,None,536.1797160289998,None,537.212767258,None,537.212767258,None,537.212767258,None,537.212767258,None,,,,,,,,,,,,,,,,,,,,,,,,,,,,,,,,,,,,,,,,,,,,001,80,2020_Feb_06_1022,spring_faces,3.1.5,59.94823949103981,
condition files/Stage1_2.xlsx,,T2,B1,c,"['c', 'm']","['Clue', 'Monopoly']","[-0.15, 0.5]","[0.15, 0.5]",1,1,,,,,,,,,0,5,5,5,0,3,3,1,,,,,,,,,,,,,,,,,,,,,,,,,,,,,,,,,,,,,,,,,,,,,,,,,,,,,,,539.1796846990001,None,539.1796846990001,None,539.1796846990001,None,m,0,2.466722750000372,540.7131354009998,None,540.7131354009998,None,540.7131354009998,None,543.2465697150001,None,543.2465697150001,None,543.2465697150001,None,543.2465697150001,None,,,,,,,,,,,,,,,,,,,,,,,,,,,,,,,,,,,,,,,,,,,,001,80,2020_Feb_06_1022,spring_faces,3.1.5,59.94823949103981,
condition files/Stage1_2.xlsx,,T3,B3,c,"['c', 'm']","['Clue', 'Monopoly']","[-0.15, 0.5]","[0.15, 0.5]",1,1,,,,,,,,,0,5,5,5,0,4,4,4,,,,,,,,,,,,,,,,,,,,,,,,,,,,,,,,,,,,,,,,,,,,,,,,,,,,,,,545.2126648450003,None,545.2126648450003,None,545.2126648450003,None,m,0,0.8336442749996422,546.7462676149999,None,546.7462676149999,None,546.7462676149999,None,547.6296126900006,None,547.6296126900006,None,547.6296126900006,None,547.6296126900006,None,,,,,,,,,,,,,,,,,,,,,,,,,,,,,,,,,,,,,,,,,,,,001,80,2020_Feb_06_1022,spring_faces,3.1.5,59.94823949103981,
condition files/Stage1_2.xlsx,,B2,T2,m,"['c', 'm']","['Clue', 'Monopoly']","[-0.15, 0.5]","[0.15, 0.5]",1,1,,,,,,,,,0,5,5,5,0,5,5,3,,,,,,,,,,,,,,,,,,,,,,,,,,,,,,,,,,,,,,,,,,,,,,,,,,,,,,,549.5961034520005,None,549.5961034520005,None,549.5961034520005,None,m,1,0.9144702909998159,551.129439194,None,551.129439194,None,551.129439194,None,552.096818174,None,552.096818174,None,552.096818174,None,552.096818174,None,,,,,,,,,,,,,,,,,,,,,,,,,,,,,,,,,,,,,,,,,,,,001,80,2020_Feb_06_1022,spring_faces,3.1.5,59.94823949103981,
condition files/Stage1_2.xlsx,,B1,T1,c,"['c', 'm']","['Clue', 'Monopoly']","[-0.15, 0.5]","[0.15, 0.5]",1,1,,,,,,,,,0,5,5,5,0,6,6,0,,,,,,,,,,,,,,,,,,,,,,,,,,,,,,,,,,,,,,,,,,,,,,,,,,,,,,,554.0629438200003,None,554.0629438200003,None,554.0629438200003,None,c,1,1.3116693239999222,555.5961729250002,None,555.5961729250002,None,555.5961729250002,None,556.9623841660004,None,556.9623841660004,None,556.9623841660004,None,556.9623841660004,None,,,,,,,,,,,,,,,,,,,,,,,,,,,,,,,,,,,,,,,,,,,,001,80,2020_Feb_06_1022,spring_faces,3.1.5,59.94823949103981,
condition files/Stage1_2.xlsx,,B3,T4,m,"['c', 'm']","['Clue', 'Monopoly']","[-0.15, 0.5]","[0.15, 0.5]",1,1,,,,,,,,,0,5,5,5,0,7,7,6,,,,,,,,,,,,,,,,,,,,,,,,,,,,,,,,,,,,,,,,,,,,,,,,,,,,,,,558.9297061130001,None,558.9297061130001,None,558.9297061130001,None,m,1,0.8914327829998001,560.464429656,None,560.464429656,None,560.464429656,None,561.414604177,None,561.414604177,None,561.414604177,None,561.414604177,None,,,,,,,,,,,,,,,,,,,,,,,,,,,,,,,,,,,,,,,,,,,,001,80,2020_Feb_06_1022,spring_faces,3.1.5,59.94823949103981,
condition files/Stage1_1.xlsx,,B4,T4,m,"['c', 'm']","['Clue', 'Monopoly']","[-0.15, 0.5]","[0.15, 0.5]",1,1,,,,,,,,,0,6,6,6,0,0,0,7,,,,,,,,,,,,,,,,,,,,,,,,,,,,,,,,,,,,,,,,,,,,,,,,,,,,,,,563.3965233480003,None,563.3965233480003,None,563.3965233480003,None,m,1,0.6642841949997091,564.9316408040004,None,564.9316408040004,None,564.9316408040004,None,565.6461964230002,None,565.6461964230002,None,565.6461964230002,None,565.6461964230002,None,,,,,,,,,,,,,,,,,,,,,,,,,,,,,,,,,,,,,,,,,,,,001,80,2020_Feb_06_1022,spring_faces,3.1.5,59.94823949103981,
condition files/Stage1_1.xlsx,,T3,B4,c,"['c', 'm']","['Clue', 'Monopoly']","[-0.15, 0.5]","[0.15, 0.5]",1,1,,,,,,,,,0,6,6,6,0,1,1,5,,,,,,,,,,,,,,,,,,,,,,,,,,,,,,,,,,,,,,,,,,,,,,,,,,,,,,,567.6122076279999,None,567.6122076279999,None,567.6122076279999,None,m,0,1.1363961430006384,569.1475225109998,None,569.1475225109998,None,569.1475225109998,None,570.3463628590007,None,570.3463628590007,None,570.3463628590007,None,570.3463628590007,None,,,,,,,,,,,,,,,,,,,,,,,,,,,,,,,,,,,,,,,,,,,,001,80,2020_Feb_06_1022,spring_faces,3.1.5,59.94823949103981,
condition files/Stage1_1.xlsx,,B3,T3,c,"['c', 'm']","['Clue', 'Monopoly']","[-0.15, 0.5]","[0.15, 0.5]",1,1,,,,,,,,,0,6,6,6,0,2,2,4,,,,,,,,,,,,,,,,,,,,,,,,,,,,,,,,,,,,,,,,,,,,,,,,,,,,,,,572.3129666490004,None,572.3129666490004,None,572.3129666490004,None,c,1,1.909160998000516,573.8467028599998,None,573.8467028599998,None,573.8467028599998,None,575.8132096850004,None,575.8132096850004,None,575.8132096850004,None,575.8132096850004,None,,,,,,,,,,,,,,,,,,,,,,,,,,,,,,,,,,,,,,,,,,,,001,80,2020_Feb_06_1022,spring_faces,3.1.5,59.94823949103981,
condition files/Stage1_1.xlsx,,T4,B3,m,"['c', 'm']","['Clue', 'Monopoly']","[-0.15, 0.5]","[0.15, 0.5]",1,1,,,,,,,,,0,6,6,6,0,3,3,6,,,,,,,,,,,,,,,,,,,,,,,,,,,,,,,,,,,,,,,,,,,,,,,,,,,,,,,577.7789120060006,None,577.7789120060006,None,577.7789120060006,None,m,1,0.9380928290001975,579.3138504710005,None,579.3138504710005,None,579.3138504710005,None,580.3131283530001,None,580.3131283530001,None,580.3131283530001,None,580.3131283530001,None,,,,,,,,,,,,,,,,,,,,,,,,,,,,,,,,,,,,,,,,,,,,001,80,2020_Feb_06_1022,spring_faces,3.1.5,59.94823949103981,
condition files/Stage1_1.xlsx,,B1,T2,c,"['c', 'm']","['Clue', 'Monopoly']","[-0.15, 0.5]","[0.15, 0.5]",1,1,,,,,,,,,0,6,6,6,0,4,4,1,,,,,,,,,,,,,,,,,,,,,,,,,,,,,,,,,,,,,,,,,,,,,,,,,,,,,,,582.2796667930006,None,582.2796667930006,None,582.2796667930006,None,c,1,1.8461047370001324,583.813722377,None,583.813722377,None,583.813722377,None,585.7128627020002,None,585.7128627020002,None,585.7128627020002,None,585.7128627020002,None,,,,,,,,,,,,,,,,,,,,,,,,,,,,,,,,,,,,,,,,,,,,001,80,2020_Feb_06_1022,spring_faces,3.1.5,59.94823949103981,
condition files/Stage1_1.xlsx,,T2,B2,m,"['c', 'm']","['Clue', 'Monopoly']","[-0.15, 0.5]","[0.15, 0.5]",1,1,,,,,,,,,0,6,6,6,0,5,5,3,,,,,,,,,,,,,,,,,,,,,,,,,,,,,,,,,,,,,,,,,,,,,,,,,,,,,,,587.6798940140006,None,587.6798940140006,None,587.6798940140006,None,m,1,1.2625673470001857,589.2133352090004,None,589.2133352090004,None,589.2133352090004,None,590.5322951190001,None,590.5322951190001,None,590.5322951190001,None,590.5322951190001,None,,,,,,,,,,,,,,,,,,,,,,,,,,,,,,,,,,,,,,,,,,,,001,80,2020_Feb_06_1022,spring_faces,3.1.5,59.94823949103981,
condition files/Stage1_1.xlsx,,B2,T1,m,"['c', 'm']","['Clue', 'Monopoly']","[-0.15, 0.5]","[0.15, 0.5]",1,1,,,,,,,,,0,6,6,6,0,6,6,2,,,,,,,,,,,,,,,,,,,,,,,,,,,,,,,,,,,,,,,,,,,,,,,,,,,,,,,592.4966615160001,None,592.4966615160001,None,592.4966615160001,None,m,1,1.374291586000254,594.0297059049999,None,594.0297059049999,None,594.0297059049999,None,595.4636743810006,None,595.4636743810006,None,595.4636743810006,None,595.4636743810006,None,,,,,,,,,,,,,,,,,,,,,,,,,,,,,,,,,,,,,,,,,,,,001,80,2020_Feb_06_1022,spring_faces,3.1.5,59.94823949103981,
condition files/Stage1_1.xlsx,,T1,B1,c,"['c', 'm']","['Clue', 'Monopoly']","[-0.15, 0.5]","[0.15, 0.5]",1,1,,,,,,,,,0,6,6,6,0,7,7,0,,,,,,,,,,,,,,,,,,,,,,,,,,,,,,,,,,,,,,,,,,,,,,,,,,,,,,,597.4296480410003,None,597.4296480410003,None,597.4296480410003,None,m,0,1.816746098999829,598.9631086509999,None,598.9631086509999,None,598.9631086509999,None,600.8303059090003,None,600.8303059090003,None,600.8303059090003,None,600.8303059090003,None,,,,,,,,,,,,,,,,,,,,,,,,,,,,,,,,,,,,,,,,,,,,001,80,2020_Feb_06_1022,spring_faces,3.1.5,59.94823949103981,
condition files/Stage1_2.xlsx,,T1,B2,m,"['c', 'm']","['Clue', 'Monopoly']","[-0.15, 0.5]","[0.15, 0.5]",1,1,,,,,,,,,0,7,7,7,0,0,0,2,,,,,,,,,,,,,,,,,,,,,,,,,,,,,,,,,,,,,,,,,,,,,,,,,,,,,,,602.8132786440001,None,602.8132786440001,None,602.8132786440001,None,c,0,0.8329159120003169,604.3469539810003,None,604.3469539810003,None,604.3469539810003,None,605.2316620870006,None,605.2316620870006,None,605.2316620870006,None,605.2316620870006,None,,,,,,,,,,,,,,,,,,,,,,,,,,,,,,,,,,,,,,,,,,,,001,80,2020_Feb_06_1022,spring_faces,3.1.5,59.94823949103981,
condition files/Stage1_2.xlsx,,T3,B3,c,"['c', 'm']","['Clue', 'Monopoly']","[-0.15, 0.5]","[0.15, 0.5]",1,1,,,,,,,,,0,7,7,7,0,1,1,4,,,,,,,,,,,,,,,,,,,,,,,,,,,,,,,,,,,,,,,,,,,,,,,,,,,,,,,607.1962410340002,None,607.1962410340002,None,607.1962410340002,None,c,1,0.7210614810001061,608.7468522830004,None,608.7468522830004,None,608.7468522830004,None,609.5290031049999,None,609.5290031049999,None,609.5290031049999,None,609.5290031049999,None,,,,,,,,,,,,,,,,,,,,,,,,,,,,,,,,,,,,,,,,,,,,001,80,2020_Feb_06_1022,spring_faces,3.1.5,59.94823949103981,
condition files/Stage1_2.xlsx,,B4,T3,c,"['c', 'm']","['Clue', 'Monopoly']","[-0.15, 0.5]","[0.15, 0.5]",1,1,,,,,,,,,0,7,7,7,0,2,2,5,,,,,,,,,,,,,,,,,,,,,,,,,,,,,,,,,,,,,,,,,,,,,,,,,,,,,,,611.4961834790001,None,611.4961834790001,None,611.4961834790001,None,c,1,0.9186180480000985,613.0293009790003,None,613.0293009790003,None,613.0293009790003,None,614.0134651380004,None,614.0134651380004,None,614.0134651380004,None,614.0134651380004,None,,,,,,,,,,,,,,,,,,,,,,,,,,,,,,,,,,,,,,,,,,,,001,80,2020_Feb_06_1022,spring_faces,3.1.5,59.94823949103981,
condition files/Stage1_2.xlsx,,B2,T2,m,"['c', 'm']","['Clue', 'Monopoly']","[-0.15, 0.5]","[0.15, 0.5]",1,1,,,,,,,,,0,7,7,7,0,3,3,3,,,,,,,,,,,,,,,,,,,,,,,,,,,,,,,,,,,,,,,,,,,,,,,,,,,,,,,615.9793249150007,None,615.9793249150007,None,615.9793249150007,None,m,1,0.8668011990002924,617.51313269,None,617.51313269,None,617.51313269,None,618.4321578250001,None,618.4321578250001,None,618.4321578250001,None,618.4321578250001,None,,,,,,,,,,,,,,,,,,,,,,,,,,,,,,,,,,,,,,,,,,,,001,80,2020_Feb_06_1022,spring_faces,3.1.5,59.94823949103981,
condition files/Stage1_2.xlsx,,T2,B1,c,"['c', 'm']","['Clue', 'Monopoly']","[-0.15, 0.5]","[0.15, 0.5]",1,1,,,,,,,,,0,7,7,7,0,4,4,1,,,,,,,,,,,,,,,,,,,,,,,,,,,,,,,,,,,,,,,,,,,,,,,,,,,,,,,620.3959187589999,None,620.3959187589999,None,620.3959187589999,None,c,1,0.7866924249992735,621.929233541,None,621.929233541,None,621.929233541,None,622.780117749,None,622.780117749,None,622.780117749,None,622.780117749,None,,,,,,,,,,,,,,,,,,,,,,,,,,,,,,,,,,,,,,,,,,,,001,80,2020_Feb_06_1022,spring_faces,3.1.5,59.94823949103981,
condition files/Stage1_2.xlsx,,B1,T1,c,"['c', 'm']","['Clue', 'Monopoly']","[-0.15, 0.5]","[0.15, 0.5]",1,1,,,,,,,,,0,7,7,7,0,5,5,0,,,,,,,,,,,,,,,,,,,,,,,,,,,,,,,,,,,,,,,,,,,,,,,,,,,,,,,624.7463794109999,None,624.7463794109999,None,624.7463794109999,None,c,1,0.913952328999585,626.2819333090001,None,626.2819333090001,None,626.2819333090001,None,627.2486717749998,None,627.2486717749998,None,627.2486717749998,None,627.2486717749998,None,,,,,,,,,,,,,,,,,,,,,,,,,,,,,,,,,,,,,,,,,,,,001,80,2020_Feb_06_1022,spring_faces,3.1.5,59.94823949103981,
condition files/Stage1_2.xlsx,,B3,T4,m,"['c', 'm']","['Clue', 'Monopoly']","[-0.15, 0.5]","[0.15, 0.5]",1,1,,,,,,,,,0,7,7,7,0,6,6,6,,,,,,,,,,,,,,,,,,,,,,,,,,,,,,,,,,,,,,,,,,,,,,,,,,,,,,,629.212978437,None,629.212978437,None,629.212978437,None,m,1,1.29591649699978,630.7479930879999,None,630.7479930879999,None,630.7479930879999,None,632.1132470419998,None,632.1132470419998,None,632.1132470419998,None,632.1132470419998,None,,,,,,,,,,,,,,,,,,,,,,,,,,,,,,,,,,,,,,,,,,,,001,80,2020_Feb_06_1022,spring_faces,3.1.5,59.94823949103981,
condition files/Stage1_2.xlsx,,T4,B4,m,"['c', 'm']","['Clue', 'Monopoly']","[-0.15, 0.5]","[0.15, 0.5]",1,1,,,,,,,,,0,7,7,7,0,7,7,7,,,,,,,,,,,,,,,,,,,,,,,,,,,,,,,,,,,,,,,,,,,,,,,,,,,,,,,634.06306047,None,634.06306047,None,634.06306047,None,m,1,0.6869881989996429,635.596920084,None,635.596920084,None,635.596920084,None,636.3465608500001,None,636.3465608500001,None,636.3465608500001,None,636.3465608500001,None,,,,,,,,,,,,,,,,,,,,,,,,,,,,,,,,,,,,,,,,,,,,001,80,2020_Feb_06_1022,spring_faces,3.1.5,59.94823949103981,
condition files/Stage1_1.xlsx,,T4,B3,m,"['c', 'm']","['Clue', 'Monopoly']","[-0.15, 0.5]","[0.15, 0.5]",1,1,,,,,,,,,0,8,8,8,0,0,0,6,,,,,,,,,,,,,,,,,,,,,,,,,,,,,,,,,,,,,,,,,,,,,,,,,,,,,,,638.3299456260002,None,638.3299456260002,None,638.3299456260002,None,m,1,0.6132514519995311,639.8626697870004,None,639.8626697870004,None,639.8626697870004,None,640.5295836280002,None,640.5295836280002,None,640.5295836280002,None,640.5295836280002,None,,,,,,,,,,,,,,,,,,,,,,,,,,,,,,,,,,,,,,,,,,,,001,80,2020_Feb_06_1022,spring_faces,3.1.5,59.94823949103981,
condition files/Stage1_1.xlsx,,B1,T2,c,"['c', 'm']","['Clue', 'Monopoly']","[-0.15, 0.5]","[0.15, 0.5]",1,1,,,,,,,,,0,8,8,8,0,1,1,1,,,,,,,,,,,,,,,,,,,,,,,,,,,,,,,,,,,,,,,,,,,,,,,,,,,,,,,642.4961855580004,None,642.4961855580004,None,642.4961855580004,None,c,1,0.7826520449998497,644.0292318500005,None,644.0292318500005,None,644.0292318500005,None,644.8634349560007,None,644.8634349560007,None,644.8634349560007,None,644.8634349560007,None,,,,,,,,,,,,,,,,,,,,,,,,,,,,,,,,,,,,,,,,,,,,001,80,2020_Feb_06_1022,spring_faces,3.1.5,59.94823949103981,
condition files/Stage1_1.xlsx,,T1,B1,c,"['c', 'm']","['Clue', 'Monopoly']","[-0.15, 0.5]","[0.15, 0.5]",1,1,,,,,,,,,0,8,8,8,0,2,2,0,,,,,,,,,,,,,,,,,,,,,,,,,,,,,,,,,,,,,,,,,,,,,,,,,,,,,,,646.829663558,None,646.829663558,None,646.829663558,None,c,1,1.6331716559998313,648.3627290660006,None,648.3627290660006,None,648.3627290660006,None,650.046049523,None,650.046049523,None,650.046049523,None,650.046049523,None,,,,,,,,,,,,,,,,,,,,,,,,,,,,,,,,,,,,,,,,,,,,001,80,2020_Feb_06_1022,spring_faces,3.1.5,59.94823949103981,
condition files/Stage1_1.xlsx,,B2,T1,m,"['c', 'm']","['Clue', 'Monopoly']","[-0.15, 0.5]","[0.15, 0.5]",1,1,,,,,,,,,0,8,8,8,0,3,3,2,,,,,,,,,,,,,,,,,,,,,,,,,,,,,,,,,,,,,,,,,,,,,,,,,,,,,,,652.0130067350001,None,652.0130067350001,None,652.0130067350001,None,m,1,1.761792272999628,653.5461231220006,None,653.5461231220006,None,653.5461231220006,None,655.379930305,None,655.379930305,None,655.379930305,None,655.379930305,None,,,,,,,,,,,,,,,,,,,,,,,,,,,,,,,,,,,,,,,,,,,,001,80,2020_Feb_06_1022,spring_faces,3.1.5,59.94823949103981,
condition files/Stage1_1.xlsx,,B4,T4,m,"['c', 'm']","['Clue', 'Monopoly']","[-0.15, 0.5]","[0.15, 0.5]",1,1,,,,,,,,,0,8,8,8,0,4,4,7,,,,,,,,,,,,,,,,,,,,,,,,,,,,,,,,,,,,,,,,,,,,,,,,,,,,,,,657.3298758780002,None,657.3298758780002,None,657.3298758780002,None,m,1,0.9239737309999327,658.8800020110002,None,658.8800020110002,None,658.8800020110002,None,659.8633556710001,None,659.8633556710001,None,659.8633556710001,None,659.8633556710001,None,,,,,,,,,,,,,,,,,,,,,,,,,,,,,,,,,,,,,,,,,,,,001,80,2020_Feb_06_1022,spring_faces,3.1.5,59.94823949103981,
condition files/Stage1_1.xlsx,,T2,B2,m,"['c', 'm']","['Clue', 'Monopoly']","[-0.15, 0.5]","[0.15, 0.5]",1,1,,,,,,,,,0,8,8,8,0,5,5,3,,,,,,,,,,,,,,,,,,,,,,,,,,,,,,,,,,,,,,,,,,,,,,,,,,,,,,,661.829673968,None,661.829673968,None,661.829673968,None,c,0,1.4649114439998812,663.3630030180002,None,663.3630030180002,None,663.3630030180002,None,664.8794828220007,None,664.8794828220007,None,664.8794828220007,None,664.8794828220007,None,,,,,,,,,,,,,,,,,,,,,,,,,,,,,,,,,,,,,,,,,,,,001,80,2020_Feb_06_1022,spring_faces,3.1.5,59.94823949103981,
condition files/Stage1_1.xlsx,,T3,B4,c,"['c', 'm']","['Clue', 'Monopoly']","[-0.15, 0.5]","[0.15, 0.5]",1,1,,,,,,,,,0,8,8,8,0,6,6,5,,,,,,,,,,,,,,,,,,,,,,,,,,,,,,,,,,,,,,,,,,,,,,,,,,,,,,,666.8456392710004,None,666.8456392710004,None,666.8456392710004,None,m,0,1.8234396899997591,668.3965363540001,None,668.3965363540001,None,668.3965363540001,None,670.296570904,None,670.296570904,None,670.296570904,None,670.296570904,None,,,,,,,,,,,,,,,,,,,,,,,,,,,,,,,,,,,,,,,,,,,,001,80,2020_Feb_06_1022,spring_faces,3.1.5,59.94823949103981,
condition files/Stage1_1.xlsx,,B3,T3,c,"['c', 'm']","['Clue', 'Monopoly']","[-0.15, 0.5]","[0.15, 0.5]",1,1,,,,,,,,,0,8,8,8,0,7,7,4,,,,,,,,,,,,,,,,,,,,,,,,,,,,,,,,,,,,,,,,,,,,,,,,,,,,,,,672.24624709,None,672.24624709,None,672.24624709,None,c,1,0.8408252619992709,673.7791664390006,None,673.7791664390006,None,673.7791664390006,None,674.6799273630004,None,674.6799273630004,None,674.6799273630004,None,674.6799273630004,None,,,,,,,,,,,,,,,,,,,,,,,,,,,,,,,,,,,,,,,,,,,,001,80,2020_Feb_06_1022,spring_faces,3.1.5,59.94823949103981,
condition files/Stage1_2.xlsx,,T1,B2,m,"['c', 'm']","['Clue', 'Monopoly']","[-0.15, 0.5]","[0.15, 0.5]",1,1,,,,,,,,,0,9,9,9,0,0,0,2,,,,,,,,,,,,,,,,,,,,,,,,,,,,,,,,,,,,,,,,,,,,,,,,,,,,,,,676.6630506380006,None,676.6630506380006,None,676.6630506380006,None,m,1,1.063900974999342,678.1960815809998,None,678.1960815809998,None,678.1960815809998,None,679.3136836130006,None,679.3136836130006,None,679.3136836130006,None,679.3136836130006,None,,,,,,,,,,,,,,,,,,,,,,,,,,,,,,,,,,,,,,,,,,,,001,80,2020_Feb_06_1022,spring_faces,3.1.5,59.94823949103981,
condition files/Stage1_2.xlsx,,B4,T3,c,"['c', 'm']","['Clue', 'Monopoly']","[-0.15, 0.5]","[0.15, 0.5]",1,1,,,,,,,,,0,9,9,9,0,1,1,5,,,,,,,,,,,,,,,,,,,,,,,,,,,,,,,,,,,,,,,,,,,,,,,,,,,,,,,681.2794262779998,None,681.2794262779998,None,681.2794262779998,None,c,1,0.7666549139994459,682.8132827500003,None,682.8132827500003,None,682.8132827500003,None,683.6316650420003,None,683.6316650420003,None,683.6316650420003,None,683.6316650420003,None,,,,,,,,,,,,,,,,,,,,,,,,,,,,,,,,,,,,,,,,,,,,001,80,2020_Feb_06_1022,spring_faces,3.1.5,59.94823949103981,
condition files/Stage1_2.xlsx,,T4,B4,m,"['c', 'm']","['Clue', 'Monopoly']","[-0.15, 0.5]","[0.15, 0.5]",1,1,,,,,,,,,0,9,9,9,0,2,2,7,,,,,,,,,,,,,,,,,,,,,,,,,,,,,,,,,,,,,,,,,,,,,,,,,,,,,,,685.595999745,None,685.595999745,None,685.595999745,None,m,1,0.5776414609999847,687.1463255859999,None,687.1463255859999,None,687.1463255859999,None,687.796823224,None,687.796823224,None,687.796823224,None,687.796823224,None,,,,,,,,,,,,,,,,,,,,,,,,,,,,,,,,,,,,,,,,,,,,001,80,2020_Feb_06_1022,spring_faces,3.1.5,59.94823949103981,
condition files/Stage1_2.xlsx,,B1,T1,c,"['c', 'm']","['Clue', 'Monopoly']","[-0.15, 0.5]","[0.15, 0.5]",1,1,,,,,,,,,0,9,9,9,0,3,3,0,,,,,,,,,,,,,,,,,,,,,,,,,,,,,,,,,,,,,,,,,,,,,,,,,,,,,,,689.7462552380002,None,689.7462552380002,None,689.7462552380002,None,c,1,1.193930757999624,691.2819964549999,None,691.2819964549999,None,691.2819964549999,None,692.5307445919998,None,692.5307445919998,None,692.5307445919998,None,692.5307445919998,None,,,,,,,,,,,,,,,,,,,,,,,,,,,,,,,,,,,,,,,,,,,,001,80,2020_Feb_06_1022,spring_faces,3.1.5,59.94823949103981,
condition files/Stage1_2.xlsx,,T3,B3,c,"['c', 'm']","['Clue', 'Monopoly']","[-0.15, 0.5]","[0.15, 0.5]",1,1,,,,,,,,,0,9,9,9,0,4,4,4,,,,,,,,,,,,,,,,,,,,,,,,,,,,,,,,,,,,,,,,,,,,,,,,,,,,,,,694.4963530450004,None,694.4963530450004,None,694.4963530450004,None,m,0,0.7658538050000061,696.0300671770001,None,696.0300671770001,None,696.0300671770001,None,696.8461989380003,None,696.8461989380003,None,696.8461989380003,None,696.8461989380003,None,,,,,,,,,,,,,,,,,,,,,,,,,,,,,,,,,,,,,,,,,,,,001,80,2020_Feb_06_1022,spring_faces,3.1.5,59.94823949103981,
condition files/Stage1_2.xlsx,,T2,B1,c,"['c', 'm']","['Clue', 'Monopoly']","[-0.15, 0.5]","[0.15, 0.5]",1,1,,,,,,,,,0,9,9,9,0,5,5,1,,,,,,,,,,,,,,,,,,,,,,,,,,,,,,,,,,,,,,,,,,,,,,,,,,,,,,,698.8128926930003,None,698.8128926930003,None,698.8128926930003,None,c,1,1.1060319070002151,700.3458798500005,None,700.3458798500005,None,700.3458798500005,None,701.512502564,None,701.512502564,None,701.512502564,None,701.512502564,None,,,,,,,,,,,,,,,,,,,,,,,,,,,,,,,,,,,,,,,,,,,,001,80,2020_Feb_06_1022,spring_faces,3.1.5,59.94823949103981,
condition files/Stage1_2.xlsx,,B3,T4,m,"['c', 'm']","['Clue', 'Monopoly']","[-0.15, 0.5]","[0.15, 0.5]",1,1,,,,,,,,,0,9,9,9,0,6,6,6,,,,,,,,,,,,,,,,,,,,,,,,,,,,,,,,,,,,,,,,,,,,,,,,,,,,,,,703.4796219,None,703.4796219,None,703.4796219,None,m,1,0.6939143299996431,705.0299516929999,None,705.0299516929999,None,705.0299516929999,None,705.78078121,None,705.78078121,None,705.78078121,None,705.78078121,None,,,,,,,,,,,,,,,,,,,,,,,,,,,,,,,,,,,,,,,,,,,,001,80,2020_Feb_06_1022,spring_faces,3.1.5,59.94823949103981,
condition files/Stage1_2.xlsx,,B2,T2,m,"['c', 'm']","['Clue', 'Monopoly']","[-0.15, 0.5]","[0.15, 0.5]",1,1,,,,,,,,,0,9,9,9,0,7,7,3,,,,,,,,,,,,,,,,,,,,,,,,,,,,,,,,,,,,,,,,,,,,,,,,,,,,,,,707.745904847,None,707.745904847,None,707.745904847,None,m,1,1.5643839329995899,709.2795303700004,None,709.2795303700004,None,709.2795303700004,None,710.8962072980003,None,710.8962072980003,None,710.8962072980003,None,710.8962072980003,None,,,,,,,,,,,,,,,,,,,,,,,,,,,,,,,,,,,,,,,,,,,,001,80,2020_Feb_06_1022,spring_faces,3.1.5,59.94823949103981,
condition files/Stage1_1.xlsx,,T3,B4,c,"['c', 'm']","['Clue', 'Monopoly']","[-0.15, 0.5]","[0.15, 0.5]",1,1,,,,,,,,,0,10,10,10,0,0,0,5,,,,,,,,,,,,,,,,,,,,,,,,,,,,,,,,,,,,,,,,,,,,,,,,,,,,,,,712.8796990110004,None,712.8796990110004,None,712.8796990110004,None,c,1,0.7824856130000626,714.4294275920001,None,714.4294275920001,None,714.4294275920001,None,715.2657978050001,None,715.2657978050001,None,715.2657978050001,None,715.2657978050001,None,,,,,,,,,,,,,,,,,,,,,,,,,,,,,,,,,,,,,,,,,,,,001,80,2020_Feb_06_1022,spring_faces,3.1.5,59.94823949103981,
condition files/Stage1_1.xlsx,,T2,B2,m,"['c', 'm']","['Clue', 'Monopoly']","[-0.15, 0.5]","[0.15, 0.5]",1,1,,,,,,,,,0,10,10,10,0,1,1,3,,,,,,,,,,,,,,,,,,,,,,,,,,,,,,,,,,,,,,,,,,,,,,,,,,,,,,,717.2289613880002,None,717.2289613880002,None,717.2289613880002,None,m,1,1.6167853249999098,718.7630919140001,None,718.7630919140001,None,718.7630919140001,None,720.446842073,None,720.446842073,None,720.446842073,None,720.446842073,None,,,,,,,,,,,,,,,,,,,,,,,,,,,,,,,,,,,,,,,,,,,,001,80,2020_Feb_06_1022,spring_faces,3.1.5,59.94823949103981,
condition files/Stage1_1.xlsx,,B4,T4,m,"['c', 'm']","['Clue', 'Monopoly']","[-0.15, 0.5]","[0.15, 0.5]",1,1,,,,,,,,,0,10,10,10,0,2,2,7,,,,,,,,,,,,,,,,,,,,,,,,,,,,,,,,,,,,,,,,,,,,,,,,,,,,,,,722.4129625350006,None,722.4129625350006,None,722.4129625350006,None,m,1,0.7855140649999157,723.9463952599999,None,723.9463952599999,None,723.9463952599999,None,724.7965899310002,None,724.7965899310002,None,724.7965899310002,None,724.7965899310002,None,,,,,,,,,,,,,,,,,,,,,,,,,,,,,,,,,,,,,,,,,,,,001,80,2020_Feb_06_1022,spring_faces,3.1.5,59.94823949103981,
condition files/Stage1_1.xlsx,,B1,T2,c,"['c', 'm']","['Clue', 'Monopoly']","[-0.15, 0.5]","[0.15, 0.5]",1,1,,,,,,,,,0,10,10,10,0,3,3,1,,,,,,,,,,,,,,,,,,,,,,,,,,,,,,,,,,,,,,,,,,,,,,,,,,,,,,,726.7630501680005,None,726.7630501680005,None,726.7630501680005,None,c,1,1.2035340889997315,728.2963980160002,None,728.2963980160002,None,728.2963980160002,None,729.5654659230004,None,729.5654659230004,None,729.5654659230004,None,729.5654659230004,None,,,,,,,,,,,,,,,,,,,,,,,,,,,,,,,,,,,,,,,,,,,,001,80,2020_Feb_06_1022,spring_faces,3.1.5,59.94823949103981,
condition files/Stage1_1.xlsx,,T4,B3,m,"['c', 'm']","['Clue', 'Monopoly']","[-0.15, 0.5]","[0.15, 0.5]",1,1,,,,,,,,,0,10,10,10,0,4,4,6,,,,,,,,,,,,,,,,,,,,,,,,,,,,,,,,,,,,,,,,,,,,,,,,,,,,,,,731.5292770650003,None,731.5292770650003,None,731.5292770650003,None,m,1,0.692698580999604,733.0631863019998,None,733.0631863019998,None,733.0631863019998,None,733.8293023140004,None,733.8293023140004,None,733.8293023140004,None,733.8293023140004,None,,,,,,,,,,,,,,,,,,,,,,,,,,,,,,,,,,,,,,,,,,,,001,80,2020_Feb_06_1022,spring_faces,3.1.5,59.94823949103981,
condition files/Stage1_1.xlsx,,B3,T3,c,"['c', 'm']","['Clue', 'Monopoly']","[-0.15, 0.5]","[0.15, 0.5]",1,1,,,,,,,,,0,10,10,10,0,5,5,4,,,,,,,,,,,,,,,,,,,,,,,,,,,,,,,,,,,,,,,,,,,,,,,,,,,,,,,735.7792878070004,None,735.7792878070004,None,735.7792878070004,None,c,1,1.4191960790003577,737.3127283970007,None,737.3127283970007,None,737.3127283970007,None,738.7966820669999,None,738.7966820669999,None,738.7966820669999,None,738.7966820669999,None,,,,,,,,,,,,,,,,,,,,,,,,,,,,,,,,,,,,,,,,,,,,001,80,2020_Feb_06_1022,spring_faces,3.1.5,59.94823949103981,
condition files/Stage1_1.xlsx,,T1,B1,c,"['c', 'm']","['Clue', 'Monopoly']","[-0.15, 0.5]","[0.15, 0.5]",1,1,,,,,,,,,0,10,10,10,0,6,6,0,,,,,,,,,,,,,,,,,,,,,,,,,,,,,,,,,,,,,,,,,,,,,,,,,,,,,,,740.7628777,None,740.7628777,None,740.7628777,None,c,1,1.203356734999943,742.2965542720003,None,742.2965542720003,None,742.2965542720003,None,743.5632652700006,None,743.5632652700006,None,743.5632652700006,None,743.5632652700006,None,,,,,,,,,,,,,,,,,,,,,,,,,,,,,,,,,,,,,,,,,,,,001,80,2020_Feb_06_1022,spring_faces,3.1.5,59.94823949103981,
condition files/Stage1_1.xlsx,,B2,T1,m,"['c', 'm']","['Clue', 'Monopoly']","[-0.15, 0.5]","[0.15, 0.5]",1,1,,,,,,,,,0,10,10,10,0,7,7,2,,,,,,,,,,,,,,,,,,,,,,,,,,,,,,,,,,,,,,,,,,,,,,,,,,,,,,,745.5292074570007,None,745.5292074570007,None,745.5292074570007,None,m,1,0.9319880390003163,747.0799120339998,None,747.0799120339998,None,747.0799120339998,None,748.0659106200001,None,748.0659106200001,None,748.0659106200001,None,748.0659106200001,None,,,,,,,,,,,,,,,,,,,,,,,,,,,,,,,,,,,,,,,,,,,,001,80,2020_Feb_06_1022,spring_faces,3.1.5,59.94823949103981,
condition files/Stage1_2.xlsx,,T1,B2,m,"['c', 'm']","['Clue', 'Monopoly']","[-0.15, 0.5]","[0.15, 0.5]",1,1,,,,,,,,,0,11,11,11,0,0,0,2,,,,,,,,,,,,,,,,,,,,,,,,,,,,,,,,,,,,,,,,,,,,,,,,,,,,,,,750.046326656,None,750.046326656,None,750.046326656,None,m,1,0.7524556190001022,751.5794875130005,None,751.5794875130005,None,751.5794875130005,None,752.3966048310003,None,752.3966048310003,None,752.3966048310003,None,752.3966048310003,None,,,,,,,,,,,,,,,,,,,,,,,,,,,,,,,,,,,,,,,,,,,,001,80,2020_Feb_06_1022,spring_faces,3.1.5,59.94823949103981,
condition files/Stage1_2.xlsx,,B2,T2,m,"['c', 'm']","['Clue', 'Monopoly']","[-0.15, 0.5]","[0.15, 0.5]",1,1,,,,,,,,,0,11,11,11,0,1,1,3,,,,,,,,,,,,,,,,,,,,,,,,,,,,,,,,,,,,,,,,,,,,,,,,,,,,,,,754.3629476289998,None,754.3629476289998,None,754.3629476289998,None,m,1,1.3313817670004937,755.8965384749999,None,755.8965384749999,None,755.8965384749999,None,757.2798853949998,None,757.2798853949998,None,757.2798853949998,None,757.2798853949998,None,,,,,,,,,,,,,,,,,,,,,,,,,,,,,,,,,,,,,,,,,,,,001,80,2020_Feb_06_1022,spring_faces,3.1.5,59.94823949103981,
condition files/Stage1_2.xlsx,,B4,T3,c,"['c', 'm']","['Clue', 'Monopoly']","[-0.15, 0.5]","[0.15, 0.5]",1,1,,,,,,,,,0,11,11,11,0,2,2,5,,,,,,,,,,,,,,,,,,,,,,,,,,,,,,,,,,,,,,,,,,,,,,,,,,,,,,,759.2463023300006,None,759.2463023300006,None,759.2463023300006,None,c,1,0.7033942180005397,760.7965215470003,None,760.7965215470003,None,760.7965215470003,None,761.5638115790007,None,761.5638115790007,None,761.5638115790007,None,761.5638115790007,None,,,,,,,,,,,,,,,,,,,,,,,,,,,,,,,,,,,,,,,,,,,,001,80,2020_Feb_06_1022,spring_faces,3.1.5,59.94823949103981,
condition files/Stage1_2.xlsx,,B1,T1,c,"['c', 'm']","['Clue', 'Monopoly']","[-0.15, 0.5]","[0.15, 0.5]",1,1,,,,,,,,,0,11,11,11,0,3,3,0,,,,,,,,,,,,,,,,,,,,,,,,,,,,,,,,,,,,,,,,,,,,,,,,,,,,,,,763.5296369150001,None,763.5296369150001,None,763.5296369150001,None,c,1,1.1079258069994466,765.0640697340004,None,765.0640697340004,None,765.0640697340004,None,766.2298524309999,None,766.2298524309999,None,766.2298524309999,None,766.2298524309999,None,,,,,,,,,,,,,,,,,,,,,,,,,,,,,,,,,,,,,,,,,,,,001,80,2020_Feb_06_1022,spring_faces,3.1.5,59.94823949103981,
condition files/Stage1_2.xlsx,,B3,T4,m,"['c', 'm']","['Clue', 'Monopoly']","[-0.15, 0.5]","[0.15, 0.5]",1,1,,,,,,,,,0,11,11,11,0,4,4,6,,,,,,,,,,,,,,,,,,,,,,,,,,,,,,,,,,,,,,,,,,,,,,,,,,,,,,,768.1962814120006,None,768.1962814120006,None,768.1962814120006,None,m,1,0.7139425710001888,769.7460276170004,None,769.7460276170004,None,769.7460276170004,None,770.5300400370006,None,770.5300400370006,None,770.5300400370006,None,770.5300400370006,None,,,,,,,,,,,,,,,,,,,,,,,,,,,,,,,,,,,,,,,,,,,,001,80,2020_Feb_06_1022,spring_faces,3.1.5,59.94823949103981,
condition files/Stage1_2.xlsx,,T3,B3,c,"['c', 'm']","['Clue', 'Monopoly']","[-0.15, 0.5]","[0.15, 0.5]",1,1,,,,,,,,,0,11,11,11,0,5,5,4,,,,,,,,,,,,,,,,,,,,,,,,,,,,,,,,,,,,,,,,,,,,,,,,,,,,,,,772.4789851410005,None,772.4789851410005,None,772.4789851410005,None,c,1,0.6366282070002853,774.0153148520003,None,774.0153148520003,None,774.0153148520003,None,774.713024529,None,774.713024529,None,774.713024529,None,774.713024529,None,,,,,,,,,,,,,,,,,,,,,,,,,,,,,,,,,,,,,,,,,,,,001,80,2020_Feb_06_1022,spring_faces,3.1.5,59.94823949103981,
condition files/Stage1_2.xlsx,,T4,B4,m,"['c', 'm']","['Clue', 'Monopoly']","[-0.15, 0.5]","[0.15, 0.5]",1,1,,,,,,,,,0,11,11,11,0,6,6,7,,,,,,,,,,,,,,,,,,,,,,,,,,,,,,,,,,,,,,,,,,,,,,,,,,,,,,,776.6795473729999,None,776.6795473729999,None,776.6795473729999,None,m,1,0.7101819089994024,778.2137565550001,None,778.2137565550001,None,778.2137565550001,None,778.9965780190005,None,778.9965780190005,None,778.9965780190005,None,778.9965780190005,None,,,,,,,,,,,,,,,,,,,,,,,,,,,,,,,,,,,,,,,,,,,,001,80,2020_Feb_06_1022,spring_faces,3.1.5,59.94823949103981,
condition files/Stage1_2.xlsx,,T2,B1,c,"['c', 'm']","['Clue', 'Monopoly']","[-0.15, 0.5]","[0.15, 0.5]",1,1,,,,,,,,,0,11,11,11,0,7,7,1,,,,,,,,,,,,,,,,,,,,,,,,,,,,,,,,,,,,,,,,,,,,,,,,,,,,,,,780.9463366030004,None,780.9463366030004,None,780.9463366030004,None,c,1,0.6365453150001485,782.4793883060001,None,782.4793883060001,None,782.4793883060001,None,783.1970256220002,None,783.1970256220002,None,783.1970256220002,None,783.1970256220002,None,,,,,,,,,,,,,,,,,,,,,,,,,,,,,,,,,,,,,,,,,,,,001,80,2020_Feb_06_1022,spring_faces,3.1.5,59.94823949103981,
,,,,,,,,,,,,,,,,,,,,,,,,,,,,,,,,,,,,,,,,,,,,,,,,,,,,,,,,,,,,,,,,,,,,,,,,,,,,,,,,,,,,,,,,,,,,,,,,,,,,,,,,,,,,,,,,785.1636559510007,None,space,6.248845033999714,790.1630619719999,None,,,,,,,,,,,,,,,,,,,,,,,,,,,,,,001,80,2020_Feb_06_1022,spring_faces,3.1.5,59.94823949103981,
condition files/Stage2_1.xlsx,,B4,T4,r,"['s', 'r']","['Stratego', 'Risk']","[-0.15, 0.5]","[0.15, 0.5]",1,1,,,,,,,,,,,,,,,,,0,0,0,0,0,0,0,5,,,,,,,,,,,,,,,,,,,,,,,,,,,,,,,,,,,,,,,,,,,,,,,796.4631632030005,None,796.4631632030005,None,796.4631632030005,None,r,1,1.7110750239999106,797.9967814080001,None,797.9967814080001,None,797.9967814080001,None,799.7645987659998,None,799.7645987659998,None,799.7645987659998,None,799.7645987659998,None,,,,,,,,,,,,,,,790.1630619719999,None,,,,,,,,,,,,,,,,,,,,,,,,,,,,001,80,2020_Feb_06_1022,spring_faces,3.1.5,59.94823949103981,
condition files/Stage2_1.xlsx,,B2,T2,r,"['s', 'r']","['Stratego', 'Risk']","[-0.15, 0.5]","[0.15, 0.5]",1,1,,,,,,,,,,,,,,,,,0,0,0,0,0,1,1,3,,,,,,,,,,,,,,,,,,,,,,,,,,,,,,,,,,,,,,,,,,,,,,,801.7293457300002,None,801.7293457300002,None,801.7293457300002,None,s,0,0.6512417120002283,803.2647373099999,None,803.2647373099999,None,803.2647373099999,None,803.9793825280003,None,803.9793825280003,None,803.9793825280003,None,803.9793825280003,None,,,,,,,,,,,,,,,,,,,,,,,,,,,,,,,,,,,,,,,,,,,,001,80,2020_Feb_06_1022,spring_faces,3.1.5,59.94823949103981,
condition files/Stage2_1.xlsx,,T3,B3,s,"['s', 'r']","['Stratego', 'Risk']","[-0.15, 0.5]","[0.15, 0.5]",1,1,,,,,,,,,,,,,,,,,0,0,0,0,0,2,2,4,,,,,,,,,,,,,,,,,,,,,,,,,,,,,,,,,,,,,,,,,,,,,,,805.9462413000001,None,805.9462413000001,None,805.9462413000001,None,r,0,0.8032255449998047,807.4966873580006,None,807.4966873580006,None,807.4966873580006,None,808.3655256920001,None,808.3655256920001,None,808.3655256920001,None,808.3655256920001,None,,,,,,,,,,,,,,,,,,,,,,,,,,,,,,,,,,,,,,,,,,,,001,80,2020_Feb_06_1022,spring_faces,3.1.5,59.94823949103981,
condition files/Stage2_1.xlsx,,T5,B5,s,"['s', 'r']","['Stratego', 'Risk']","[-0.15, 0.5]","[0.15, 0.5]",1,1,,,,,,,,,,,,,,,,,0,0,0,0,0,3,3,0,,,,,,,,,,,,,,,,,,,,,,,,,,,,,,,,,,,,,,,,,,,,,,,810.329500668,None,810.329500668,None,810.329500668,None,r,0,0.9329026670002349,811.8630560870006,None,811.8630560870006,None,811.8630560870006,None,812.8467193860006,None,812.8467193860006,None,812.8467193860006,None,812.8467193860006,None,,,,,,,,,,,,,,,,,,,,,,,,,,,,,,,,,,,,,,,,,,,,001,80,2020_Feb_06_1022,spring_faces,3.1.5,59.94823949103981,
condition files/Stage2_1.xlsx,,B6,T6,r,"['s', 'r']","['Stratego', 'Risk']","[-0.15, 0.5]","[0.15, 0.5]",1,1,,,,,,,,,,,,,,,,,0,0,0,0,0,4,4,1,,,,,,,,,,,,,,,,,,,,,,,,,,,,,,,,,,,,,,,,,,,,,,,814.8127356180003,None,814.8127356180003,None,814.8127356180003,None,s,0,1.3775231180006813,816.3464131660003,None,816.3464131660003,None,816.3464131660003,None,817.7813921020006,None,817.7813921020006,None,817.7813921020006,None,817.7813921020006,None,,,,,,,,,,,,,,,,,,,,,,,,,,,,,,,,,,,,,,,,,,,,001,80,2020_Feb_06_1022,spring_faces,3.1.5,59.94823949103981,
condition files/Stage2_1.xlsx,,T1,B1,s,"['s', 'r']","['Stratego', 'Risk']","[-0.15, 0.5]","[0.15, 0.5]",1,1,,,,,,,,,,,,,,,,,0,0,0,0,0,5,5,2,,,,,,,,,,,,,,,,,,,,,,,,,,,,,,,,,,,,,,,,,,,,,,,819.7461787880002,None,819.7461787880002,None,819.7461787880002,None,s,1,0.7962211410003874,821.2797005130005,None,821.2797005130005,None,821.2797005130005,None,822.1466249230007,None,822.1466249230007,None,822.1466249230007,None,822.1466249230007,None,,,,,,,,,,,,,,,,,,,,,,,,,,,,,,,,,,,,,,,,,,,,001,80,2020_Feb_06_1022,spring_faces,3.1.5,59.94823949103981,
condition files/Stage2_2.xlsx,,T6,B6,r,"['s', 'r']","['Stratego', 'Risk']","[-0.15, 0.5]","[0.15, 0.5]",1,1,,,,,,,,,,,,,,,,,0,1,1,1,0,0,0,1,,,,,,,,,,,,,,,,,,,,,,,,,,,,,,,,,,,,,,,,,,,,,,,824.113229607,None,824.113229607,None,824.113229607,None,r,1,0.8278902319998451,825.6479820280001,None,825.6479820280001,None,825.6479820280001,None,826.5297622070002,None,826.5297622070002,None,826.5297622070002,None,826.5297622070002,None,,,,,,,,,,,,,,,,,,,,,,,,,,,,,,,,,,,,,,,,,,,,001,80,2020_Feb_06_1022,spring_faces,3.1.5,59.94823949103981,
condition files/Stage2_2.xlsx,,T4,B4,r,"['s', 'r']","['Stratego', 'Risk']","[-0.15, 0.5]","[0.15, 0.5]",1,1,,,,,,,,,,,,,,,,,0,1,1,1,0,1,1,5,,,,,,,,,,,,,,,,,,,,,,,,,,,,,,,,,,,,,,,,,,,,,,,828.4962454890001,None,828.4962454890001,None,828.4962454890001,None,s,0,0.9260927360001006,830.0297803500007,None,830.0297803500007,None,830.0297803500007,None,831.0128839910003,None,831.0128839910003,None,831.0128839910003,None,831.0128839910003,None,,,,,,,,,,,,,,,,,,,,,,,,,,,,,,,,,,,,,,,,,,,,001,80,2020_Feb_06_1022,spring_faces,3.1.5,59.94823949103981,
condition files/Stage2_2.xlsx,,B1,T1,s,"['s', 'r']","['Stratego', 'Risk']","[-0.15, 0.5]","[0.15, 0.5]",1,1,,,,,,,,,,,,,,,,,0,1,1,1,0,2,2,2,,,,,,,,,,,,,,,,,,,,,,,,,,,,,,,,,,,,,,,,,,,,,,,832.9795742730003,None,832.9795742730003,None,832.9795742730003,None,r,0,0.8727475000005143,834.5152546850004,None,834.5152546850004,None,834.5152546850004,None,835.4464677490005,None,835.4464677490005,None,835.4464677490005,None,835.4464677490005,None,,,,,,,,,,,,,,,,,,,,,,,,,,,,,,,,,,,,,,,,,,,,001,80,2020_Feb_06_1022,spring_faces,3.1.5,59.94823949103981,
condition files/Stage2_2.xlsx,,B3,T3,s,"['s', 'r']","['Stratego', 'Risk']","[-0.15, 0.5]","[0.15, 0.5]",1,1,,,,,,,,,,,,,,,,,0,1,1,1,0,3,3,4,,,,,,,,,,,,,,,,,,,,,,,,,,,,,,,,,,,,,,,,,,,,,,,837.4124249639999,None,837.4124249639999,None,837.4124249639999,None,r,0,1.4004960319998645,838.963358121,None,838.963358121,None,838.963358121,None,840.4295698830001,None,840.4295698830001,None,840.4295698830001,None,840.4295698830001,None,,,,,,,,,,,,,,,,,,,,,,,,,,,,,,,,,,,,,,,,,,,,001,80,2020_Feb_06_1022,spring_faces,3.1.5,59.94823949103981,
condition files/Stage2_2.xlsx,,T2,B2,r,"['s', 'r']","['Stratego', 'Risk']","[-0.15, 0.5]","[0.15, 0.5]",1,1,,,,,,,,,,,,,,,,,0,1,1,1,0,4,4,3,,,,,,,,,,,,,,,,,,,,,,,,,,,,,,,,,,,,,,,,,,,,,,,842.3960004139999,None,842.3960004139999,None,842.3960004139999,None,r,1,0.770132755999839,843.9298012509998,None,843.9298012509998,None,843.9298012509998,None,844.7626877170005,None,844.7626877170005,None,844.7626877170005,None,844.7626877170005,None,,,,,,,,,,,,,,,,,,,,,,,,,,,,,,,,,,,,,,,,,,,,001,80,2020_Feb_06_1022,spring_faces,3.1.5,59.94823949103981,
condition files/Stage2_2.xlsx,,B5,T5,s,"['s', 'r']","['Stratego', 'Risk']","[-0.15, 0.5]","[0.15, 0.5]",1,1,,,,,,,,,,,,,,,,,0,1,1,1,0,5,5,0,,,,,,,,,,,,,,,,,,,,,,,,,,,,,,,,,,,,,,,,,,,,,,,846.7291119890006,None,846.7291119890006,None,846.7291119890006,None,r,0,0.9816155199996501,848.2623061170007,None,848.2623061170007,None,848.2623061170007,None,849.3134931350005,None,849.3134931350005,None,849.3134931350005,None,849.3134931350005,None,,,,,,,,,,,,,,,,,,,,,,,,,,,,,,,,,,,,,,,,,,,,001,80,2020_Feb_06_1022,spring_faces,3.1.5,59.94823949103981,
condition files/Stage2_1.xlsx,,T1,B1,s,"['s', 'r']","['Stratego', 'Risk']","[-0.15, 0.5]","[0.15, 0.5]",1,1,,,,,,,,,,,,,,,,,0,2,2,2,0,0,0,2,,,,,,,,,,,,,,,,,,,,,,,,,,,,,,,,,,,,,,,,,,,,,,,851.279698116,None,851.279698116,None,851.279698116,None,r,0,0.9264713259999553,852.8135559100001,None,852.8135559100001,None,852.8135559100001,None,853.7968293760005,None,853.7968293760005,None,853.7968293760005,None,853.7968293760005,None,,,,,,,,,,,,,,,,,,,,,,,,,,,,,,,,,,,,,,,,,,,,001,80,2020_Feb_06_1022,spring_faces,3.1.5,59.94823949103981,
condition files/Stage2_1.xlsx,,B6,T6,r,"['s', 'r']","['Stratego', 'Risk']","[-0.15, 0.5]","[0.15, 0.5]",1,1,,,,,,,,,,,,,,,,,0,2,2,2,0,1,1,1,,,,,,,,,,,,,,,,,,,,,,,,,,,,,,,,,,,,,,,,,,,,,,,855.7625521999998,None,855.7625521999998,None,855.7625521999998,None,r,1,1.6745455849995778,857.2974452300004,None,857.2974452300004,None,857.2974452300004,None,859.0297503820002,None,859.0297503820002,None,859.0297503820002,None,859.0297503820002,None,,,,,,,,,,,,,,,,,,,,,,,,,,,,,,,,,,,,,,,,,,,,001,80,2020_Feb_06_1022,spring_faces,3.1.5,59.94823949103981,
condition files/Stage2_1.xlsx,,T3,B3,s,"['s', 'r']","['Stratego', 'Risk']","[-0.15, 0.5]","[0.15, 0.5]",1,1,,,,,,,,,,,,,,,,,0,2,2,2,0,2,2,4,,,,,,,,,,,,,,,,,,,,,,,,,,,,,,,,,,,,,,,,,,,,,,,860.9963042970003,None,860.9963042970003,None,860.9963042970003,None,s,1,0.9379821670008823,862.5299480600006,None,862.5299480600006,None,862.5299480600006,None,863.5306577700003,None,863.5306577700003,None,863.5306577700003,None,863.5306577700003,None,,,,,,,,,,,,,,,,,,,,,,,,,,,,,,,,,,,,,,,,,,,,001,80,2020_Feb_06_1022,spring_faces,3.1.5,59.94823949103981,
condition files/Stage2_1.xlsx,,B4,T4,r,"['s', 'r']","['Stratego', 'Risk']","[-0.15, 0.5]","[0.15, 0.5]",1,1,,,,,,,,,,,,,,,,,0,2,2,2,0,3,3,5,,,,,,,,,,,,,,,,,,,,,,,,,,,,,,,,,,,,,,,,,,,,,,,865.4963799000006,None,865.4963799000006,None,865.4963799000006,None,s,0,1.6053118049994737,867.0306877840003,None,867.0306877840003,None,867.0306877840003,None,868.6965117050004,None,868.6965117050004,None,868.6965117050004,None,868.6965117050004,None,,,,,,,,,,,,,,,,,,,,,,,,,,,,,,,,,,,,,,,,,,,,001,80,2020_Feb_06_1022,spring_faces,3.1.5,59.94823949103981,
condition files/Stage2_1.xlsx,,T5,B5,s,"['s', 'r']","['Stratego', 'Risk']","[-0.15, 0.5]","[0.15, 0.5]",1,1,,,,,,,,,,,,,,,,,0,2,2,2,0,4,4,0,,,,,,,,,,,,,,,,,,,,,,,,,,,,,,,,,,,,,,,,,,,,,,,870.663013114,None,870.663013114,None,870.663013114,None,r,0,0.6955521230001978,872.1963512729999,None,872.1963512729999,None,872.1963512729999,None,872.9487850240002,None,872.9487850240002,None,872.9487850240002,None,872.9487850240002,None,,,,,,,,,,,,,,,,,,,,,,,,,,,,,,,,,,,,,,,,,,,,001,80,2020_Feb_06_1022,spring_faces,3.1.5,59.94823949103981,
condition files/Stage2_1.xlsx,,B2,T2,r,"['s', 'r']","['Stratego', 'Risk']","[-0.15, 0.5]","[0.15, 0.5]",1,1,,,,,,,,,,,,,,,,,0,2,2,2,0,5,5,3,,,,,,,,,,,,,,,,,,,,,,,,,,,,,,,,,,,,,,,,,,,,,,,874.9129066980004,None,874.9129066980004,None,874.9129066980004,None,s,0,0.6205521589999989,876.4633661090002,None,876.4633661090002,None,876.4633661090002,None,877.1470784339999,None,877.1470784339999,None,877.1470784339999,None,877.1470784339999,None,,,,,,,,,,,,,,,,,,,,,,,,,,,,,,,,,,,,,,,,,,,,001,80,2020_Feb_06_1022,spring_faces,3.1.5,59.94823949103981,
condition files/Stage2_2.xlsx,,B1,T1,s,"['s', 'r']","['Stratego', 'Risk']","[-0.15, 0.5]","[0.15, 0.5]",1,1,,,,,,,,,,,,,,,,,0,3,3,3,0,0,0,2,,,,,,,,,,,,,,,,,,,,,,,,,,,,,,,,,,,,,,,,,,,,,,,879.1295848210002,None,879.1295848210002,None,879.1295848210002,None,s,1,1.3493257849995643,880.6626042340004,None,880.6626042340004,None,880.6626042340004,None,882.0641691780002,None,882.0641691780002,None,882.0641691780002,None,882.0641691780002,None,,,,,,,,,,,,,,,,,,,,,,,,,,,,,,,,,,,,,,,,,,,,001,80,2020_Feb_06_1022,spring_faces,3.1.5,59.94823949103981,
condition files/Stage2_2.xlsx,,T2,B2,r,"['s', 'r']","['Stratego', 'Risk']","[-0.15, 0.5]","[0.15, 0.5]",1,1,,,,,,,,,,,,,,,,,0,3,3,3,0,1,1,3,,,,,,,,,,,,,,,,,,,,,,,,,,,,,,,,,,,,,,,,,,,,,,,884.0295588690005,None,884.0295588690005,None,884.0295588690005,None,r,1,0.752640792999955,885.5792453130007,None,885.5792453130007,None,885.5792453130007,None,886.4132999020003,None,886.4132999020003,None,886.4132999020003,None,886.4132999020003,None,,,,,,,,,,,,,,,,,,,,,,,,,,,,,,,,,,,,,,,,,,,,001,80,2020_Feb_06_1022,spring_faces,3.1.5,59.94823949103981,
condition files/Stage2_2.xlsx,,B3,T3,s,"['s', 'r']","['Stratego', 'Risk']","[-0.15, 0.5]","[0.15, 0.5]",1,1,,,,,,,,,,,,,,,,,0,3,3,3,0,2,2,4,,,,,,,,,,,,,,,,,,,,,,,,,,,,,,,,,,,,,,,,,,,,,,,888.3628092030003,None,888.3628092030003,None,888.3628092030003,None,r,0,4.035827816000165,889.8960978390005,None,889.8960978390005,None,889.8960978390005,None,893.9988968369998,None,893.9988968369998,None,893.9988968369998,None,893.9988968369998,None,,,,,,,,,,,,,,,,,,,,,,,,,,,,,,,,,,,,,,,,,,,,001,80,2020_Feb_06_1022,spring_faces,3.1.5,59.94823949103981,
condition files/Stage2_2.xlsx,,T6,B6,r,"['s', 'r']","['Stratego', 'Risk']","[-0.15, 0.5]","[0.15, 0.5]",1,1,,,,,,,,,,,,,,,,,0,3,3,3,0,3,3,1,,,,,,,,,,,,,,,,,,,,,,,,,,,,,,,,,,,,,,,,,,,,,,,895.9629571770001,None,895.9629571770001,None,895.9629571770001,None,s,0,1.0435146099998747,897.4964856350007,None,897.4964856350007,None,897.4964856350007,None,898.5970013320002,None,898.5970013320002,None,898.5970013320002,None,898.5970013320002,None,,,,,,,,,,,,,,,,,,,,,,,,,,,,,,,,,,,,,,,,,,,,001,80,2020_Feb_06_1022,spring_faces,3.1.5,59.94823949103981,
condition files/Stage2_2.xlsx,,B5,T5,s,"['s', 'r']","['Stratego', 'Risk']","[-0.15, 0.5]","[0.15, 0.5]",1,1,,,,,,,,,,,,,,,,,0,3,3,3,0,4,4,0,,,,,,,,,,,,,,,,,,,,,,,,,,,,,,,,,,,,,,,,,,,,,,,900.5624264980006,None,900.5624264980006,None,900.5624264980006,None,s,1,1.6111387199998717,902.0967267290007,None,902.0967267290007,None,902.0967267290007,None,903.7799960080001,None,903.7799960080001,None,903.7799960080001,None,903.7799960080001,None,,,,,,,,,,,,,,,,,,,,,,,,,,,,,,,,,,,,,,,,,,,,001,80,2020_Feb_06_1022,spring_faces,3.1.5,59.94823949103981,
condition files/Stage2_2.xlsx,,T4,B4,r,"['s', 'r']","['Stratego', 'Risk']","[-0.15, 0.5]","[0.15, 0.5]",1,1,,,,,,,,,,,,,,,,,0,3,3,3,0,5,5,5,,,,,,,,,,,,,,,,,,,,,,,,,,,,,,,,,,,,,,,,,,,,,,,905.7300078950002,None,905.7300078950002,None,905.7300078950002,None,r,1,1.7721549300003971,907.2638395940003,None,907.2638395940003,None,907.2638395940003,None,909.0973624850003,None,909.0973624850003,None,909.0973624850003,None,909.0973624850003,None,,,,,,,,,,,,,,,,,,,,,,,,,,,,,,,,,,,,,,,,,,,,001,80,2020_Feb_06_1022,spring_faces,3.1.5,59.94823949103981,
condition files/Stage2_1.xlsx,,B6,T6,r,"['s', 'r']","['Stratego', 'Risk']","[-0.15, 0.5]","[0.15, 0.5]",1,1,,,,,,,,,,,,,,,,,0,4,4,4,0,0,0,1,,,,,,,,,,,,,,,,,,,,,,,,,,,,,,,,,,,,,,,,,,,,,,,911.0800427969998,None,911.0800427969998,None,911.0800427969998,None,s,0,1.6231821359997411,912.6128238310002,None,912.6128238310002,None,912.6128238310002,None,914.296510354,None,914.296510354,None,914.296510354,None,914.296510354,None,,,,,,,,,,,,,,,,,,,,,,,,,,,,,,,,,,,,,,,,,,,,001,80,2020_Feb_06_1022,spring_faces,3.1.5,59.94823949103981,
condition files/Stage2_1.xlsx,,T3,B3,s,"['s', 'r']","['Stratego', 'Risk']","[-0.15, 0.5]","[0.15, 0.5]",1,1,,,,,,,,,,,,,,,,,0,4,4,4,0,1,1,4,,,,,,,,,,,,,,,,,,,,,,,,,,,,,,,,,,,,,,,,,,,,,,,916.2630283910003,None,916.2630283910003,None,916.2630283910003,None,s,1,1.0934532719993513,917.7984710300007,None,917.7984710300007,None,917.7984710300007,None,918.963014764,None,918.963014764,None,918.963014764,None,918.963014764,None,,,,,,,,,,,,,,,,,,,,,,,,,,,,,,,,,,,,,,,,,,,,001,80,2020_Feb_06_1022,spring_faces,3.1.5,59.94823949103981,
condition files/Stage2_1.xlsx,,B4,T4,r,"['s', 'r']","['Stratego', 'Risk']","[-0.15, 0.5]","[0.15, 0.5]",1,1,,,,,,,,,,,,,,,,,0,4,4,4,0,2,2,5,,,,,,,,,,,,,,,,,,,,,,,,,,,,,,,,,,,,,,,,,,,,,,,920.9129822479999,None,920.9129822479999,None,920.9129822479999,None,r,1,1.7087179799991645,922.4632673710003,None,922.4632673710003,None,922.4632673710003,None,924.2314498189999,None,924.2314498189999,None,924.2314498189999,None,924.2314498189999,None,,,,,,,,,,,,,,,,,,,,,,,,,,,,,,,,,,,,,,,,,,,,001,80,2020_Feb_06_1022,spring_faces,3.1.5,59.94823949103981,
condition files/Stage2_1.xlsx,,B2,T2,r,"['s', 'r']","['Stratego', 'Risk']","[-0.15, 0.5]","[0.15, 0.5]",1,1,,,,,,,,,,,,,,,,,0,4,4,4,0,3,3,3,,,,,,,,,,,,,,,,,,,,,,,,,,,,,,,,,,,,,,,,,,,,,,,926.1963885760006,None,926.1963885760006,None,926.1963885760006,None,r,1,1.6403196180008308,927.7316837790004,None,927.7316837790004,None,927.7316837790004,None,929.4298053769999,None,929.4298053769999,None,929.4298053769999,None,929.4298053769999,None,,,,,,,,,,,,,,,,,,,,,,,,,,,,,,,,,,,,,,,,,,,,001,80,2020_Feb_06_1022,spring_faces,3.1.5,59.94823949103981,
