condsFile,subStage,cue1,cue2,correct,responseKeys,responseNames,cue1Position,cue2Position,cue1Opacity,cue2Opacity,stageLoop0.thisRepN,stageLoop0.thisTrialN,stageLoop0.thisN,stageLoop0.thisIndex,blockLoop0.thisRepN,blockLoop0.thisTrialN,blockLoop0.thisN,blockLoop0.thisIndex,stage1Loop.thisRepN,stage1Loop.thisTrialN,stage1Loop.thisN,stage1Loop.thisIndex,blockLoop1.thisRepN,blockLoop1.thisTrialN,blockLoop1.thisN,blockLoop1.thisIndex,stage2Loop.thisRepN,stage2Loop.thisTrialN,stage2Loop.thisN,stage2Loop.thisIndex,blockLoop2.thisRepN,blockLoop2.thisTrialN,blockLoop2.thisN,blockLoop2.thisIndex,testLoop.thisRepN,testLoop.thisTrialN,testLoop.thisN,testLoop.thisIndex,blockLoopTest.thisRepN,blockLoopTest.thisTrialN,blockLoopTest.thisN,blockLoopTest.thisIndex,cuePics,id_instr_text.started,id_instr_text.stopped,space_to_continue_2.started,space_to_continue_2.stopped,end_instructions_resp_3.keys,end_instructions_resp_3.rt,end_instructions_resp_3.started,end_instructions_resp_3.stopped,id_input_instr.started,id_input_instr.stopped,id_input_rect.started,id_input_rect.stopped,id_input_resp.keys,id_input_resp.rt,id_input_resp.started,id_input_resp.stopped,sonaID,id_input_text.started,id_input_text.stopped,final_text.started,final_text.stopped,instructions.started,instructions.stopped,end_instructions_resp.keys,end_instructions_resp.rt,end_instructions_resp.started,end_instructions_resp.stopped,space_to_continue.started,space_to_continue.stopped,instructions_stage0.started,instructions_stage0.stopped,end_instructions_resp_stage0.keys,end_instructions_resp_stage0.rt,end_instructions_resp_stage0.started,end_instructions_resp_stage0.stopped,space_to_continue_stage0.started,space_to_continue_stage0.stopped,text.started,text.stopped,resp_text1.started,resp_text1.stopped,resp_text2.started,resp_text2.stopped,trial_resp.keys,trial_resp.corr,trial_resp.rt,trial_resp.started,trial_resp.stopped,cue1Image.started,cue1Image.stopped,cue2Image.started,cue2Image.stopped,cue1Image_fb.started,cue1Image_fb.stopped,cue2Image_fb.started,cue2Image_fb.stopped,fb_text_answer.started,fb_text_answer.stopped,feedback_image.started,feedback_image.stopped,instructions_stage1.started,instructions_stage1.stopped,end_instructions_resp_stage1.keys,end_instructions_resp_stage1.rt,end_instructions_resp_stage1.started,end_instructions_resp_stage1.stopped,space_to_continue_stage1.started,space_to_continue_stage1.stopped,instructions_2.started,instructions_2.stopped,end_instructions_resp_2.keys,end_instructions_resp_2.rt,end_instructions_resp_2.started,end_instructions_resp_2.stopped,press_space_to_continue_stage2.started,press_space_to_continue_stage2.stopped,instructions_testStage1.started,instructions_testStage1.stopped,end_instructions_resp_test1.keys,end_instructions_resp_test1.rt,end_instructions_resp_test1.started,end_instructions_resp_test1.stopped,press_space_to_continue_test1.started,press_space_to_continue_test1.stopped,cue1Image_testChoice.started,cue1Image_testChoice.stopped,cue2Image_testChoice.started,cue2Image_testChoice.stopped,test_resp.keys,test_resp.corr,test_resp.rt,test_resp.started,test_resp.stopped,cue1Image_testConf.started,cue1Image_testConf.stopped,cue2Image_testConf.started,cue2Image_testConf.stopped,conf_reminder.started,conf_reminder.stopped,conf_rating.response,conf_rating.rt,conf_rating.started,conf_rating.stopped,session,participant,date,expName,psychopyVersion,frameRate,
,,,,,,,,,,,,,,,,,,,,,,,,,,,,,,,,,,,,,,,,,,,"{'none': 'pictures/20M_AN_C.png', 'alpha': 'pictures/SHINEd_apple.png', 'beta': 'pictures/SHINEd_pear.png', 'theta': 'pictures/SHINEd_pepper.png', 'phi': 'pictures/SHINEd_melon.png', 'T1': 'pictures/32M_AN_C.png', 'T2': 'pictures/38M_AN_C.png', 'T3': 'pictures/37M_AN_C.png', 'T4': 'pictures/31M_AN_C.png', 'T5': 'pictures/36M_AN_C.png', 'T6': 'pictures/26M_AN_C.png', 'B1': 'pictures/23M_NE_C.png', 'B2': 'pictures/33M_NE_C.png', 'B3': 'pictures/22M_NE_C.png', 'B4': 'pictures/25M_NE_C.png', 'B5': 'pictures/34M_NE_C.png', 'B6': 'pictures/20M_NE_C.png'}",15.721543442000439,None,20.705690255000263,None,space,45.57580006700118,20.705690255000263,None,,,,,,,,,,,,,,,,,,,,,,,,,,,,,,,,,,,,,,,,,,,,,,,,,,,,,,,,,,,,,,,,,,,,,,,,,,,,,,,,,,,,,,,,,,,,,,,,001,81,2020_Feb_06_1057,spring_faces,3.1.5,59.936288923822886,
,,,,,,,,,,,,,,,,,,,,,,,,,,,,,,,,,,,,,,,,,,,,,,,,,,,,66.65584859400133,None,66.65584859400133,None,"['0', '9', '0', '8', 'k', 'a', 'm', 'u', 'l']","[13.817631981999511, 14.265680001000874, 25.993694103000962, 26.15370254700065, 29.641738791000535, 30.025623804000134, 36.16969363300086, 36.505695586, 36.68168975899971]",66.65584859400133,None,,,,,,,,,,,,,,,,,,,,,,,,,,,,,,,,,,,,,,,,,,,,,,,,,,,,,,,,,,,,,,,,,,,,,,,,,,,,,,,,,,,,,,,,001,81,2020_Feb_06_1057,spring_faces,3.1.5,59.936288923822886,
,,,,,,,,,,,,,,,,,,,,,,,,,,,,,,,,,,,,,,,,,,,,,,,,,,,,,,,,,,,,0908kamul,66.65584859400133,None,66.65584859400133,None,108.40532485400126,None,space,5.628179240000463,113.40535352400093,None,,,,,,,,,,,,,,,,,,,,,,,,,,,,,,,,,,,,,,,,,,,,,,,,,,,,,,,,,,,,,,,,,,,,,,,,,,,,,001,81,2020_Feb_06_1057,spring_faces,3.1.5,59.936288923822886,
,,,,,,,,,,,,,,,,,,,,,,,,,,,,,,,,,,,,,,,,,,,,,,,,,,,,,,,,,,,,,,,,,,,,,,,113.40535352400093,None,119.07240673900105,None,space,6.497479514999213,124.07204368200019,None,,,,,,,,,,,,,,,,,,,,,,,,,,,,,,,,,,,,,,,,,,,,,,,,,,,,,,,,,,,,,,,,,,,,,001,81,2020_Feb_06_1057,spring_faces,3.1.5,59.936288923822886,
condition files/Stage0a.xlsx,0a,beta,none,g,"['h', 'g']","['Chess', 'Go']","[0, 0.5]","[0, 0]",1,0,0,0,0,0,0,0,0,1,,,,,,,,,,,,,,,,,,,,,,,,,,,,,,,,,,,,,,,,,,,,,,,,,,,,,,,,,,,,,124.07204368200019,None,130.6221613509997,None,130.6221613509997,None,130.6221613509997,None,h,0,5.241136650000044,132.19238889499957,None,132.19238889499957,None,132.19238889499957,None,137.50558983000064,None,137.50558983000064,None,137.50558983000064,None,137.50558983000064,None,,,,,,,,,,,,,,,,,,,,,,,,,,,,,,,,,,,,,,,,,,,,001,81,2020_Feb_06_1057,spring_faces,3.1.5,59.936288923822886,
condition files/Stage0a.xlsx,0a,alpha,none,h,"['h', 'g']","['Chess', 'Go']","[0, 0.5]","[0, 0]",1,0,0,0,0,0,0,1,1,0,,,,,,,,,,,,,,,,,,,,,,,,,,,,,,,,,,,,,,,,,,,,,,,,,,,,,,,,,,,,,,,139.45516764100012,None,139.45516764100012,None,139.45516764100012,None,h,1,2.2520587159997376,141.00545508599953,None,141.00545508599953,None,141.00545508599953,None,143.321030307,None,143.321030307,None,143.321030307,None,143.321030307,None,,,,,,,,,,,,,,,,,,,,,,,,,,,,,,,,,,,,,,,,,,,,001,81,2020_Feb_06_1057,spring_faces,3.1.5,59.936288923822886,
condition files/Stage0a.xlsx,0a,beta,none,g,"['h', 'g']","['Chess', 'Go']","[0, 0.5]","[0, 0]",1,0,0,1,1,1,0,0,0,1,,,,,,,,,,,,,,,,,,,,,,,,,,,,,,,,,,,,,,,,,,,,,,,,,,,,,,,,,,,,,,,145.30552754899963,None,145.30552754899963,None,145.30552754899963,None,g,1,1.0113934500004689,146.82208416100093,None,146.82208416100093,None,146.82208416100093,None,147.88884002500072,None,147.88884002500072,None,147.88884002500072,None,147.88884002500072,None,,,,,,,,,,,,,,,,,,,,,,,,,,,,,,,,,,,,,,,,,,,,001,81,2020_Feb_06_1057,spring_faces,3.1.5,59.936288923822886,
condition files/Stage0a.xlsx,0a,alpha,none,h,"['h', 'g']","['Chess', 'Go']","[0, 0.5]","[0, 0]",1,0,0,1,1,1,0,1,1,0,,,,,,,,,,,,,,,,,,,,,,,,,,,,,,,,,,,,,,,,,,,,,,,,,,,,,,,,,,,,,,,149.8553609060009,None,149.8553609060009,None,149.8553609060009,None,h,1,1.0691913369992108,151.38832448300036,None,151.38832448300036,None,151.38832448300036,None,152.5219579550003,None,152.5219579550003,None,152.5219579550003,None,152.5219579550003,None,,,,,,,,,,,,,,,,,,,,,,,,,,,,,,,,,,,,,,,,,,,,001,81,2020_Feb_06_1057,spring_faces,3.1.5,59.936288923822886,
condition files/Stage0a.xlsx,0a,beta,none,g,"['h', 'g']","['Chess', 'Go']","[0, 0.5]","[0, 0]",1,0,0,2,2,2,0,0,0,1,,,,,,,,,,,,,,,,,,,,,,,,,,,,,,,,,,,,,,,,,,,,,,,,,,,,,,,,,,,,,,,154.50512410899955,None,154.50512410899955,None,154.50512410899955,None,g,1,0.7066484670012869,156.03888101400025,None,156.03888101400025,None,156.03888101400025,None,156.80517716000122,None,156.80517716000122,None,156.80517716000122,None,156.80517716000122,None,,,,,,,,,,,,,,,,,,,,,,,,,,,,,,,,,,,,,,,,,,,,001,81,2020_Feb_06_1057,spring_faces,3.1.5,59.936288923822886,
condition files/Stage0a.xlsx,0a,alpha,none,h,"['h', 'g']","['Chess', 'Go']","[0, 0.5]","[0, 0]",1,0,0,2,2,2,0,1,1,0,,,,,,,,,,,,,,,,,,,,,,,,,,,,,,,,,,,,,,,,,,,,,,,,,,,,,,,,,,,,,,,158.77110000800076,None,158.77110000800076,None,158.77110000800076,None,h,1,1.095899220001229,160.30562824500066,None,160.30562824500066,None,160.30562824500066,None,161.45530310900085,None,161.45530310900085,None,161.45530310900085,None,161.45530310900085,None,,,,,,,,,,,,,,,,,,,,,,,,,,,,,,,,,,,,,,,,,,,,001,81,2020_Feb_06_1057,spring_faces,3.1.5,59.936288923822886,
condition files/Stage0a.xlsx,0a,alpha,none,h,"['h', 'g']","['Chess', 'Go']","[0, 0.5]","[0, 0]",1,0,0,3,3,3,0,0,0,0,,,,,,,,,,,,,,,,,,,,,,,,,,,,,,,,,,,,,,,,,,,,,,,,,,,,,,,,,,,,,,,163.43897602900051,None,163.43897602900051,None,163.43897602900051,None,h,1,0.7173585969994747,164.97213610100061,None,164.97213610100061,None,164.97213610100061,None,165.75516543200047,None,165.75516543200047,None,165.75516543200047,None,165.75516543200047,None,,,,,,,,,,,,,,,,,,,,,,,,,,,,,,,,,,,,,,,,,,,,001,81,2020_Feb_06_1057,spring_faces,3.1.5,59.936288923822886,
condition files/Stage0a.xlsx,0a,beta,none,g,"['h', 'g']","['Chess', 'Go']","[0, 0.5]","[0, 0]",1,0,0,3,3,3,0,1,1,1,,,,,,,,,,,,,,,,,,,,,,,,,,,,,,,,,,,,,,,,,,,,,,,,,,,,,,,,,,,,,,,167.72132174200033,None,167.72132174200033,None,167.72132174200033,None,g,1,0.7229402610009856,169.25459077700089,None,169.25459077700089,None,169.25459077700089,None,170.0385590420001,None,170.0385590420001,None,170.0385590420001,None,170.0385590420001,None,,,,,,,,,,,,,,,,,,,,,,,,,,,,,,,,,,,,,,,,,,,,001,81,2020_Feb_06_1057,spring_faces,3.1.5,59.936288923822886,
condition files/Stage0a.xlsx,0a,beta,none,g,"['h', 'g']","['Chess', 'Go']","[0, 0.5]","[0, 0]",1,0,0,4,4,4,0,0,0,1,,,,,,,,,,,,,,,,,,,,,,,,,,,,,,,,,,,,,,,,,,,,,,,,,,,,,,,,,,,,,,,172.02236568100034,None,172.02236568100034,None,172.02236568100034,None,g,1,0.7108041430001322,173.53869828900042,None,173.53869828900042,None,173.53869828900042,None,174.30522008500066,None,174.30522008500066,None,174.30522008500066,None,174.30522008500066,None,,,,,,,,,,,,,,,,,,,,,,,,,,,,,,,,,,,,,,,,,,,,001,81,2020_Feb_06_1057,spring_faces,3.1.5,59.936288923822886,
condition files/Stage0a.xlsx,0a,alpha,none,h,"['h', 'g']","['Chess', 'Go']","[0, 0.5]","[0, 0]",1,0,0,4,4,4,0,1,1,0,,,,,,,,,,,,,,,,,,,,,,,,,,,,,,,,,,,,,,,,,,,,,,,,,,,,,,,,,,,,,,,176.27188938699965,None,176.27188938699965,None,176.27188938699965,None,h,1,0.7801081170000543,177.80548356800045,None,177.80548356800045,None,177.80548356800045,None,178.63851845299996,None,178.63851845299996,None,178.63851845299996,None,178.63851845299996,None,,,,,,,,,,,,,,,,,,,,,,,,,,,,,,,,,,,,,,,,,,,,001,81,2020_Feb_06_1057,spring_faces,3.1.5,59.936288923822886,
condition files/Stage0a.xlsx,0a,beta,none,g,"['h', 'g']","['Chess', 'Go']","[0, 0.5]","[0, 0]",1,0,0,5,5,5,0,0,0,1,,,,,,,,,,,,,,,,,,,,,,,,,,,,,,,,,,,,,,,,,,,,,,,,,,,,,,,,,,,,,,,180.62231990700002,None,180.62231990700002,None,180.62231990700002,None,g,1,0.7025225480010704,182.15500465700006,None,182.15500465700006,None,182.15500465700006,None,182.92218378300004,None,182.92218378300004,None,182.92218378300004,None,182.92218378300004,None,,,,,,,,,,,,,,,,,,,,,,,,,,,,,,,,,,,,,,,,,,,,001,81,2020_Feb_06_1057,spring_faces,3.1.5,59.936288923822886,
condition files/Stage0a.xlsx,0a,alpha,none,h,"['h', 'g']","['Chess', 'Go']","[0, 0.5]","[0, 0]",1,0,0,5,5,5,0,1,1,0,,,,,,,,,,,,,,,,,,,,,,,,,,,,,,,,,,,,,,,,,,,,,,,,,,,,,,,,,,,,,,,184.8880588230013,None,184.8880588230013,None,184.8880588230013,None,h,1,0.5796955010009697,186.42182590300126,None,186.42182590300126,None,186.42182590300126,None,187.05520664199958,None,187.05520664199958,None,187.05520664199958,None,187.05520664199958,None,,,,,,,,,,,,,,,,,,,,,,,,,,,,,,,,,,,,,,,,,,,,001,81,2020_Feb_06_1057,spring_faces,3.1.5,59.936288923822886,
condition files/Stage0b_1.xlsx,0b,alpha,none,h,"['h', 'g']","['Chess', 'Go']","[-0.15, 0.5]","[0.15, 0.5]",1,0,0,6,6,6,0,0,0,0,,,,,,,,,,,,,,,,,,,,,,,,,,,,,,,,,,,,,,,,,,,,,,,,,,,,,,,,,,,,,,,189.03885050900044,None,189.03885050900044,None,189.03885050900044,None,h,1,0.9092289119998895,190.572271946,None,190.572271946,None,190.572271946,None,191.5388832840008,None,191.5388832840008,None,191.5388832840008,None,191.5388832840008,None,,,,,,,,,,,,,,,,,,,,,,,,,,,,,,,,,,,,,,,,,,,,001,81,2020_Feb_06_1057,spring_faces,3.1.5,59.936288923822886,
condition files/Stage0b_1.xlsx,0b,none,beta,g,"['h', 'g']","['Chess', 'Go']","[-0.15, 0.5]","[0.15, 0.5]",0,1,0,6,6,6,0,1,1,1,,,,,,,,,,,,,,,,,,,,,,,,,,,,,,,,,,,,,,,,,,,,,,,,,,,,,,,,,,,,,,,193.50519886799975,None,193.50519886799975,None,193.50519886799975,None,g,1,0.7784956849991431,195.05502238700046,None,195.05502238700046,None,195.05502238700046,None,195.89327434900133,None,195.89327434900133,None,195.89327434900133,None,195.89327434900133,None,,,,,,,,,,,,,,,,,,,,,,,,,,,,,,,,,,,,,,,,,,,,001,81,2020_Feb_06_1057,spring_faces,3.1.5,59.936288923822886,
condition files/Stage0b_2.xlsx,0b,none,alpha,h,"['h', 'g']","['Chess', 'Go']","[-0.15, 0.5]","[0.15, 0.5]",0,1,0,7,7,7,0,0,0,0,,,,,,,,,,,,,,,,,,,,,,,,,,,,,,,,,,,,,,,,,,,,,,,,,,,,,,,,,,,,,,,197.8716029140005,None,197.8716029140005,None,197.8716029140005,None,h,1,0.8123881490009808,199.40513348500008,None,199.40513348500008,None,199.40513348500008,None,200.2712383120006,None,200.2712383120006,None,200.2712383120006,None,200.2712383120006,None,,,,,,,,,,,,,,,,,,,,,,,,,,,,,,,,,,,,,,,,,,,,001,81,2020_Feb_06_1057,spring_faces,3.1.5,59.936288923822886,
condition files/Stage0b_2.xlsx,0b,beta,none,g,"['h', 'g']","['Chess', 'Go']","[-0.15, 0.5]","[0.15, 0.5]",1,0,0,7,7,7,0,1,1,1,,,,,,,,,,,,,,,,,,,,,,,,,,,,,,,,,,,,,,,,,,,,,,,,,,,,,,,,,,,,,,,202.23786334000124,None,202.23786334000124,None,202.23786334000124,None,g,1,0.7326924979988689,203.78882653900018,None,203.78882653900018,None,203.78882653900018,None,204.5887618580009,None,204.5887618580009,None,204.5887618580009,None,204.5887618580009,None,,,,,,,,,,,,,,,,,,,,,,,,,,,,,,,,,,,,,,,,,,,,001,81,2020_Feb_06_1057,spring_faces,3.1.5,59.936288923822886,
condition files/Stage0b_1.xlsx,0b,none,beta,g,"['h', 'g']","['Chess', 'Go']","[-0.15, 0.5]","[0.15, 0.5]",0,1,0,8,8,8,0,0,0,1,,,,,,,,,,,,,,,,,,,,,,,,,,,,,,,,,,,,,,,,,,,,,,,,,,,,,,,,,,,,,,,206.55566791600086,None,206.55566791600086,None,206.55566791600086,None,g,1,0.8457268550009758,208.0918131770004,None,208.0918131770004,None,208.0918131770004,None,208.9882566919996,None,208.9882566919996,None,208.9882566919996,None,208.9882566919996,None,,,,,,,,,,,,,,,,,,,,,,,,,,,,,,,,,,,,,,,,,,,,001,81,2020_Feb_06_1057,spring_faces,3.1.5,59.936288923822886,
condition files/Stage0b_1.xlsx,0b,alpha,none,h,"['h', 'g']","['Chess', 'Go']","[-0.15, 0.5]","[0.15, 0.5]",1,0,0,8,8,8,0,1,1,0,,,,,,,,,,,,,,,,,,,,,,,,,,,,,,,,,,,,,,,,,,,,,,,,,,,,,,,,,,,,,,,210.95516040300117,None,210.95516040300117,None,210.95516040300117,None,h,1,0.7691233190016646,212.48834946900115,None,212.48834946900115,None,212.48834946900115,None,213.32639887400092,None,213.32639887400092,None,213.32639887400092,None,213.32639887400092,None,,,,,,,,,,,,,,,,,,,,,,,,,,,,,,,,,,,,,,,,,,,,001,81,2020_Feb_06_1057,spring_faces,3.1.5,59.936288923822886,
condition files/Stage0b_2.xlsx,0b,none,alpha,h,"['h', 'g']","['Chess', 'Go']","[-0.15, 0.5]","[0.15, 0.5]",0,1,0,9,9,9,0,0,0,0,,,,,,,,,,,,,,,,,,,,,,,,,,,,,,,,,,,,,,,,,,,,,,,,,,,,,,,,,,,,,,,215.305702011,None,215.305702011,None,215.305702011,None,h,1,0.6580891169996903,216.85550525000053,None,216.85550525000053,None,216.85550525000053,None,217.57492153300063,None,217.57492153300063,None,217.57492153300063,None,217.57492153300063,None,,,,,,,,,,,,,,,,,,,,,,,,,,,,,,,,,,,,,,,,,,,,001,81,2020_Feb_06_1057,spring_faces,3.1.5,59.936288923822886,
condition files/Stage0b_2.xlsx,0b,beta,none,g,"['h', 'g']","['Chess', 'Go']","[-0.15, 0.5]","[0.15, 0.5]",1,0,0,9,9,9,0,1,1,1,,,,,,,,,,,,,,,,,,,,,,,,,,,,,,,,,,,,,,,,,,,,,,,,,,,,,,,,,,,,,,,219.5382882340009,None,219.5382882340009,None,219.5382882340009,None,g,1,0.8709201450001274,221.07466729700081,None,221.07466729700081,None,221.07466729700081,None,222.00968004600054,None,222.00968004600054,None,222.00968004600054,None,222.00968004600054,None,,,,,,,,,,,,,,,,,,,,,,,,,,,,,,,,,,,,,,,,,,,,001,81,2020_Feb_06_1057,spring_faces,3.1.5,59.936288923822886,
condition files/Stage0b_1.xlsx,0b,alpha,none,h,"['h', 'g']","['Chess', 'Go']","[-0.15, 0.5]","[0.15, 0.5]",1,0,0,10,10,10,0,0,0,0,,,,,,,,,,,,,,,,,,,,,,,,,,,,,,,,,,,,,,,,,,,,,,,,,,,,,,,,,,,,,,,223.98904681400109,None,223.98904681400109,None,223.98904681400109,None,h,1,0.7599424849995557,225.52158434600005,None,225.52158434600005,None,225.52158434600005,None,226.33848897200096,None,226.33848897200096,None,226.33848897200096,None,226.33848897200096,None,,,,,,,,,,,,,,,,,,,,,,,,,,,,,,,,,,,,,,,,,,,,001,81,2020_Feb_06_1057,spring_faces,3.1.5,59.936288923822886,
condition files/Stage0b_1.xlsx,0b,none,beta,g,"['h', 'g']","['Chess', 'Go']","[-0.15, 0.5]","[0.15, 0.5]",0,1,0,10,10,10,0,1,1,1,,,,,,,,,,,,,,,,,,,,,,,,,,,,,,,,,,,,,,,,,,,,,,,,,,,,,,,,,,,,,,,228.30521937100002,None,228.30521937100002,None,228.30521937100002,None,g,1,0.7620943870006158,229.8554168640012,None,229.8554168640012,None,229.8554168640012,None,230.67630228500002,None,230.67630228500002,None,230.67630228500002,None,230.67630228500002,None,,,,,,,,,,,,,,,,,,,,,,,,,,,,,,,,,,,,,,,,,,,,001,81,2020_Feb_06_1057,spring_faces,3.1.5,59.936288923822886,
condition files/Stage0b_2.xlsx,0b,beta,none,g,"['h', 'g']","['Chess', 'Go']","[-0.15, 0.5]","[0.15, 0.5]",1,0,0,11,11,11,0,0,0,1,,,,,,,,,,,,,,,,,,,,,,,,,,,,,,,,,,,,,,,,,,,,,,,,,,,,,,,,,,,,,,,232.6555093650013,None,232.6555093650013,None,232.6555093650013,None,g,1,0.6522768899994844,234.1892530819996,None,234.1892530819996,None,234.1892530819996,None,234.90555321400007,None,234.90555321400007,None,234.90555321400007,None,234.90555321400007,None,,,,,,,,,,,,,,,,,,,,,,,,,,,,,,,,,,,,,,,,,,,,001,81,2020_Feb_06_1057,spring_faces,3.1.5,59.936288923822886,
condition files/Stage0b_2.xlsx,0b,none,alpha,h,"['h', 'g']","['Chess', 'Go']","[-0.15, 0.5]","[0.15, 0.5]",0,1,0,11,11,11,0,1,1,0,,,,,,,,,,,,,,,,,,,,,,,,,,,,,,,,,,,,,,,,,,,,,,,,,,,,,,,,,,,,,,,236.87180592599998,None,236.87180592599998,None,236.87180592599998,None,h,1,0.9626819599998271,238.40684751299978,None,238.40684751299978,None,238.40684751299978,None,239.4271261240001,None,239.4271261240001,None,239.4271261240001,None,239.4271261240001,None,,,,,,,,,,,,,,,,,,,,,,,,,,,,,,,,,,,,,,,,,,,,001,81,2020_Feb_06_1057,spring_faces,3.1.5,59.936288923822886,
condition files/Stage0c_1.xlsx,0c,beta,theta,g,"['h', 'g']","['Chess', 'Go']","[-0.15, 0.5]","[0.15, 0.5]",1,1,0,12,12,12,0,0,0,2,,,,,,,,,,,,,,,,,,,,,,,,,,,,,,,,,,,,,,,,,,,,,,,,,,,,,,,,,,,,,,,241.4055768900007,None,241.4055768900007,None,241.4055768900007,None,g,1,1.9346585130006133,242.93884721300037,None,242.93884721300037,None,242.93884721300037,None,244.93836704300065,None,244.93836704300065,None,244.93836704300065,None,244.93836704300065,None,,,,,,,,,,,,,,,,,,,,,,,,,,,,,,,,,,,,,,,,,,,,001,81,2020_Feb_06_1057,spring_faces,3.1.5,59.936288923822886,
condition files/Stage0c_1.xlsx,0c,phi,beta,g,"['h', 'g']","['Chess', 'Go']","[-0.15, 0.5]","[0.15, 0.5]",1,1,0,12,12,12,0,1,1,3,,,,,,,,,,,,,,,,,,,,,,,,,,,,,,,,,,,,,,,,,,,,,,,,,,,,,,,,,,,,,,,246.90518500300004,None,246.90518500300004,None,246.90518500300004,None,g,1,1.5704031610002858,248.43907357999979,None,248.43907357999979,None,248.43907357999979,None,250.0577078840006,None,250.0577078840006,None,250.0577078840006,None,250.0577078840006,None,,,,,,,,,,,,,,,,,,,,,,,,,,,,,,,,,,,,,,,,,,,,001,81,2020_Feb_06_1057,spring_faces,3.1.5,59.936288923822886,
condition files/Stage0c_1.xlsx,0c,alpha,phi,h,"['h', 'g']","['Chess', 'Go']","[-0.15, 0.5]","[0.15, 0.5]",1,1,0,12,12,12,0,2,2,1,,,,,,,,,,,,,,,,,,,,,,,,,,,,,,,,,,,,,,,,,,,,,,,,,,,,,,,,,,,,,,,252.03857376399992,None,252.03857376399992,None,252.03857376399992,None,h,1,2.373706795999169,253.57176286599952,None,253.57176286599952,None,253.57176286599952,None,256.00540591400113,None,256.00540591400113,None,256.00540591400113,None,256.00540591400113,None,,,,,,,,,,,,,,,,,,,,,,,,,,,,,,,,,,,,,,,,,,,,001,81,2020_Feb_06_1057,spring_faces,3.1.5,59.936288923822886,
condition files/Stage0c_1.xlsx,0c,theta,alpha,h,"['h', 'g']","['Chess', 'Go']","[-0.15, 0.5]","[0.15, 0.5]",1,1,0,12,12,12,0,3,3,0,,,,,,,,,,,,,,,,,,,,,,,,,,,,,,,,,,,,,,,,,,,,,,,,,,,,,,,,,,,,,,,257.97192089799955,None,257.97192089799955,None,257.97192089799955,None,h,1,1.8963403189991368,259.5051244590004,None,259.5051244590004,None,259.5051244590004,None,261.4384873019999,None,261.4384873019999,None,261.4384873019999,None,261.4384873019999,None,,,,,,,,,,,,,,,,,,,,,,,,,,,,,,,,,,,,,,,,,,,,001,81,2020_Feb_06_1057,spring_faces,3.1.5,59.936288923822886,
condition files/Stage0c_2.xlsx,0c,alpha,theta,h,"['h', 'g']","['Chess', 'Go']","[-0.15, 0.5]","[0.15, 0.5]",1,1,0,13,13,13,0,0,0,0,,,,,,,,,,,,,,,,,,,,,,,,,,,,,,,,,,,,,,,,,,,,,,,,,,,,,,,,,,,,,,,263.43818743999964,None,263.43818743999964,None,263.43818743999964,None,h,1,2.3177994310008216,264.9716762390008,None,264.9716762390008,None,264.9716762390008,None,267.34113279600115,None,267.34113279600115,None,267.34113279600115,None,267.34113279600115,None,,,,,,,,,,,,,,,,,,,,,,,,,,,,,,,,,,,,,,,,,,,,001,81,2020_Feb_06_1057,spring_faces,3.1.5,59.936288923822886,
condition files/Stage0c_2.xlsx,0c,theta,beta,g,"['h', 'g']","['Chess', 'Go']","[-0.15, 0.5]","[0.15, 0.5]",1,1,0,13,13,13,0,1,1,2,,,,,,,,,,,,,,,,,,,,,,,,,,,,,,,,,,,,,,,,,,,,,,,,,,,,,,,,,,,,,,,269.3219662290003,None,269.3219662290003,None,269.3219662290003,None,g,1,2.4176009120001254,270.85585998100123,None,270.85585998100123,None,270.85585998100123,None,273.3387113630006,None,273.3387113630006,None,273.3387113630006,None,273.3387113630006,None,,,,,,,,,,,,,,,,,,,,,,,,,,,,,,,,,,,,,,,,,,,,001,81,2020_Feb_06_1057,spring_faces,3.1.5,59.936288923822886,
condition files/Stage0c_2.xlsx,0c,beta,phi,g,"['h', 'g']","['Chess', 'Go']","[-0.15, 0.5]","[0.15, 0.5]",1,1,0,13,13,13,0,2,2,3,,,,,,,,,,,,,,,,,,,,,,,,,,,,,,,,,,,,,,,,,,,,,,,,,,,,,,,,,,,,,,,275.30532888200014,None,275.30532888200014,None,275.30532888200014,None,g,1,1.7146700249995774,276.83883185300056,None,276.83883185300056,None,276.83883185300056,None,278.59025340300013,None,278.59025340300013,None,278.59025340300013,None,278.59025340300013,None,,,,,,,,,,,,,,,,,,,,,,,,,,,,,,,,,,,,,,,,,,,,001,81,2020_Feb_06_1057,spring_faces,3.1.5,59.936288923822886,
condition files/Stage0c_2.xlsx,0c,phi,alpha,h,"['h', 'g']","['Chess', 'Go']","[-0.15, 0.5]","[0.15, 0.5]",1,1,0,13,13,13,0,3,3,1,,,,,,,,,,,,,,,,,,,,,,,,,,,,,,,,,,,,,,,,,,,,,,,,,,,,,,,,,,,,,,,280.5722956210002,None,280.5722956210002,None,280.5722956210002,None,h,1,1.9844211460003862,282.1050719420009,None,282.1050719420009,None,282.1050719420009,None,284.14218523900036,None,284.14218523900036,None,284.14218523900036,None,284.14218523900036,None,,,,,,,,,,,,,,,,,,,,,,,,,,,,,,,,,,,,,,,,,,,,001,81,2020_Feb_06_1057,spring_faces,3.1.5,59.936288923822886,
condition files/Stage0c_1.xlsx,0c,phi,beta,g,"['h', 'g']","['Chess', 'Go']","[-0.15, 0.5]","[0.15, 0.5]",1,1,0,14,14,14,0,0,0,3,,,,,,,,,,,,,,,,,,,,,,,,,,,,,,,,,,,,,,,,,,,,,,,,,,,,,,,,,,,,,,,286.138558226,None,286.138558226,None,286.138558226,None,g,1,1.3933193569992,287.67227414100034,None,287.67227414100034,None,287.67227414100034,None,289.1222467580001,None,289.1222467580001,None,289.1222467580001,None,289.1222467580001,None,,,,,,,,,,,,,,,,,,,,,,,,,,,,,,,,,,,,,,,,,,,,001,81,2020_Feb_06_1057,spring_faces,3.1.5,59.936288923822886,
condition files/Stage0c_1.xlsx,0c,alpha,phi,h,"['h', 'g']","['Chess', 'Go']","[-0.15, 0.5]","[0.15, 0.5]",1,1,0,14,14,14,0,1,1,1,,,,,,,,,,,,,,,,,,,,,,,,,,,,,,,,,,,,,,,,,,,,,,,,,,,,,,,,,,,,,,,291.0885830899997,None,291.0885830899997,None,291.0885830899997,None,h,1,1.4513580450002337,292.6221555889997,None,292.6221555889997,None,292.6221555889997,None,294.1389166830004,None,294.1389166830004,None,294.1389166830004,None,294.1389166830004,None,,,,,,,,,,,,,,,,,,,,,,,,,,,,,,,,,,,,,,,,,,,,001,81,2020_Feb_06_1057,spring_faces,3.1.5,59.936288923822886,
condition files/Stage0c_1.xlsx,0c,theta,alpha,h,"['h', 'g']","['Chess', 'Go']","[-0.15, 0.5]","[0.15, 0.5]",1,1,0,14,14,14,0,2,2,0,,,,,,,,,,,,,,,,,,,,,,,,,,,,,,,,,,,,,,,,,,,,,,,,,,,,,,,,,,,,,,,296.1049028080006,None,296.1049028080006,None,296.1049028080006,None,h,1,1.2190070950000518,297.6385163799996,None,297.6385163799996,None,297.6385163799996,None,298.90506147500037,None,298.90506147500037,None,298.90506147500037,None,298.90506147500037,None,,,,,,,,,,,,,,,,,,,,,,,,,,,,,,,,,,,,,,,,,,,,001,81,2020_Feb_06_1057,spring_faces,3.1.5,59.936288923822886,
condition files/Stage0c_1.xlsx,0c,beta,theta,g,"['h', 'g']","['Chess', 'Go']","[-0.15, 0.5]","[0.15, 0.5]",1,1,0,14,14,14,0,3,3,2,,,,,,,,,,,,,,,,,,,,,,,,,,,,,,,,,,,,,,,,,,,,,,,,,,,,,,,,,,,,,,,300.88874980200035,None,300.88874980200035,None,300.88874980200035,None,g,1,1.1554077319997305,302.4221187280009,None,302.4221187280009,None,302.4221187280009,None,303.63884115100063,None,303.63884115100063,None,303.63884115100063,None,303.63884115100063,None,,,,,,,,,,,,,,,,,,,,,,,,,,,,,,,,,,,,,,,,,,,,001,81,2020_Feb_06_1057,spring_faces,3.1.5,59.936288923822886,
condition files/Stage0c_2.xlsx,0c,phi,alpha,h,"['h', 'g']","['Chess', 'Go']","[-0.15, 0.5]","[0.15, 0.5]",1,1,0,15,15,15,0,0,0,1,,,,,,,,,,,,,,,,,,,,,,,,,,,,,,,,,,,,,,,,,,,,,,,,,,,,,,,,,,,,,,,305.6222832049998,None,305.6222832049998,None,305.6222832049998,None,h,1,1.4470437599993602,307.13857751900014,None,307.13857751900014,None,307.13857751900014,None,308.63893246099997,None,308.63893246099997,None,308.63893246099997,None,308.63893246099997,None,,,,,,,,,,,,,,,,,,,,,,,,,,,,,,,,,,,,,,,,,,,,001,81,2020_Feb_06_1057,spring_faces,3.1.5,59.936288923822886,
condition files/Stage0c_2.xlsx,0c,alpha,theta,h,"['h', 'g']","['Chess', 'Go']","[-0.15, 0.5]","[0.15, 0.5]",1,1,0,15,15,15,0,1,1,0,,,,,,,,,,,,,,,,,,,,,,,,,,,,,,,,,,,,,,,,,,,,,,,,,,,,,,,,,,,,,,,310.6051599579996,None,310.6051599579996,None,310.6051599579996,None,h,1,1.055214492000232,312.1383318500002,None,312.1383318500002,None,312.1383318500002,None,313.2395841759999,None,313.2395841759999,None,313.2395841759999,None,313.2395841759999,None,,,,,,,,,,,,,,,,,,,,,,,,,,,,,,,,,,,,,,,,,,,,001,81,2020_Feb_06_1057,spring_faces,3.1.5,59.936288923822886,
condition files/Stage0c_2.xlsx,0c,theta,beta,g,"['h', 'g']","['Chess', 'Go']","[-0.15, 0.5]","[0.15, 0.5]",1,1,0,15,15,15,0,2,2,2,,,,,,,,,,,,,,,,,,,,,,,,,,,,,,,,,,,,,,,,,,,,,,,,,,,,,,,,,,,,,,,315.2220038180012,None,315.2220038180012,None,315.2220038180012,None,g,1,1.3658453759999247,316.75565671300046,None,316.75565671300046,None,316.75565671300046,None,318.17216053300126,None,318.17216053300126,None,318.17216053300126,None,318.17216053300126,None,,,,,,,,,,,,,,,,,,,,,,,,,,,,,,,,,,,,,,,,,,,,001,81,2020_Feb_06_1057,spring_faces,3.1.5,59.936288923822886,
condition files/Stage0c_2.xlsx,0c,beta,phi,g,"['h', 'g']","['Chess', 'Go']","[-0.15, 0.5]","[0.15, 0.5]",1,1,0,15,15,15,0,3,3,3,,,,,,,,,,,,,,,,,,,,,,,,,,,,,,,,,,,,,,,,,,,,,,,,,,,,,,,,,,,,,,,320.13870057500117,None,320.13870057500117,None,320.13870057500117,None,g,1,0.9772025209986168,321.6723156020007,None,321.6723156020007,None,321.6723156020007,None,322.6898155280005,None,322.6898155280005,None,322.6898155280005,None,322.6898155280005,None,,,,,,,,,,,,,,,,,,,,,,,,,,,,,,,,,,,,,,,,,,,,001,81,2020_Feb_06_1057,spring_faces,3.1.5,59.936288923822886,
condition files/Stage0c_1.xlsx,0c,alpha,phi,h,"['h', 'g']","['Chess', 'Go']","[-0.15, 0.5]","[0.15, 0.5]",1,1,0,16,16,16,0,0,0,1,,,,,,,,,,,,,,,,,,,,,,,,,,,,,,,,,,,,,,,,,,,,,,,,,,,,,,,,,,,,,,,324.6885433760008,None,324.6885433760008,None,324.6885433760008,None,h,1,0.891156776000571,326.2224304670008,None,326.2224304670008,None,326.2224304670008,None,327.17206136299956,None,327.17206136299956,None,327.17206136299956,None,327.17206136299956,None,,,,,,,,,,,,,,,,,,,,,,,,,,,,,,,,,,,,,,,,,,,,001,81,2020_Feb_06_1057,spring_faces,3.1.5,59.936288923822886,
condition files/Stage0c_1.xlsx,0c,phi,beta,g,"['h', 'g']","['Chess', 'Go']","[-0.15, 0.5]","[0.15, 0.5]",1,1,0,16,16,16,0,1,1,3,,,,,,,,,,,,,,,,,,,,,,,,,,,,,,,,,,,,,,,,,,,,,,,,,,,,,,,,,,,,,,,329.138700253,None,329.138700253,None,329.138700253,None,g,1,0.8256522079991555,330.6719267130002,None,330.6719267130002,None,330.6719267130002,None,331.5552041410001,None,331.5552041410001,None,331.5552041410001,None,331.5552041410001,None,,,,,,,,,,,,,,,,,,,,,,,,,,,,,,,,,,,,,,,,,,,,001,81,2020_Feb_06_1057,spring_faces,3.1.5,59.936288923822886,
condition files/Stage0c_1.xlsx,0c,beta,theta,g,"['h', 'g']","['Chess', 'Go']","[-0.15, 0.5]","[0.15, 0.5]",1,1,0,16,16,16,0,2,2,2,,,,,,,,,,,,,,,,,,,,,,,,,,,,,,,,,,,,,,,,,,,,,,,,,,,,,,,,,,,,,,,333.5221150080006,None,333.5221150080006,None,333.5221150080006,None,g,1,1.0820961099998385,335.055421262,None,335.055421262,None,335.055421262,None,336.1734053350001,None,336.1734053350001,None,336.1734053350001,None,336.1734053350001,None,,,,,,,,,,,,,,,,,,,,,,,,,,,,,,,,,,,,,,,,,,,,001,81,2020_Feb_06_1057,spring_faces,3.1.5,59.936288923822886,
condition files/Stage0c_1.xlsx,0c,theta,alpha,h,"['h', 'g']","['Chess', 'Go']","[-0.15, 0.5]","[0.15, 0.5]",1,1,0,16,16,16,0,3,3,0,,,,,,,,,,,,,,,,,,,,,,,,,,,,,,,,,,,,,,,,,,,,,,,,,,,,,,,,,,,,,,,338.15528912600075,None,338.15528912600075,None,338.15528912600075,None,h,1,0.8008697590012162,339.6886231039998,None,339.6886231039998,None,339.6886231039998,None,340.55545719400016,None,340.55545719400016,None,340.55545719400016,None,340.55545719400016,None,,,,,,,,,,,,,,,,,,,,,,,,,,,,,,,,,,,,,,,,,,,,001,81,2020_Feb_06_1057,spring_faces,3.1.5,59.936288923822886,
condition files/Stage0c_2.xlsx,0c,alpha,theta,h,"['h', 'g']","['Chess', 'Go']","[-0.15, 0.5]","[0.15, 0.5]",1,1,0,17,17,17,0,0,0,0,,,,,,,,,,,,,,,,,,,,,,,,,,,,,,,,,,,,,,,,,,,,,,,,,,,,,,,,,,,,,,,342.53845934699984,None,342.53845934699984,None,342.53845934699984,None,h,1,0.7054971990000922,344.0720403160003,None,344.0720403160003,None,344.0720403160003,None,344.82270082299965,None,344.82270082299965,None,344.82270082299965,None,344.82270082299965,None,,,,,,,,,,,,,,,,,,,,,,,,,,,,,,,,,,,,,,,,,,,,001,81,2020_Feb_06_1057,spring_faces,3.1.5,59.936288923822886,
condition files/Stage0c_2.xlsx,0c,theta,beta,g,"['h', 'g']","['Chess', 'Go']","[-0.15, 0.5]","[0.15, 0.5]",1,1,0,17,17,17,0,1,1,2,,,,,,,,,,,,,,,,,,,,,,,,,,,,,,,,,,,,,,,,,,,,,,,,,,,,,,,,,,,,,,,346.8047569970013,None,346.8047569970013,None,346.8047569970013,None,g,1,0.9666591010009142,348.33883076000075,None,348.33883076000075,None,348.33883076000075,None,349.35557374400105,None,349.35557374400105,None,349.35557374400105,None,349.35557374400105,None,,,,,,,,,,,,,,,,,,,,,,,,,,,,,,,,,,,,,,,,,,,,001,81,2020_Feb_06_1057,spring_faces,3.1.5,59.936288923822886,
condition files/Stage0c_2.xlsx,0c,phi,alpha,h,"['h', 'g']","['Chess', 'Go']","[-0.15, 0.5]","[0.15, 0.5]",1,1,0,17,17,17,0,2,2,1,,,,,,,,,,,,,,,,,,,,,,,,,,,,,,,,,,,,,,,,,,,,,,,,,,,,,,,,,,,,,,,351.321604447,None,351.321604447,None,351.321604447,None,h,1,1.2343582390003576,352.85512891300004,None,352.85512891300004,None,352.85512891300004,None,354.15548699400006,None,354.15548699400006,None,354.15548699400006,None,354.15548699400006,None,,,,,,,,,,,,,,,,,,,,,,,,,,,,,,,,,,,,,,,,,,,,001,81,2020_Feb_06_1057,spring_faces,3.1.5,59.936288923822886,
condition files/Stage0c_2.xlsx,0c,beta,phi,g,"['h', 'g']","['Chess', 'Go']","[-0.15, 0.5]","[0.15, 0.5]",1,1,0,17,17,17,0,3,3,3,,,,,,,,,,,,,,,,,,,,,,,,,,,,,,,,,,,,,,,,,,,,,,,,,,,,,,,,,,,,,,,356.1219887489997,None,356.1219887489997,None,356.1219887489997,None,g,1,0.9299286189998384,357.6556167380013,None,357.6556167380013,None,357.6556167380013,None,358.63864539800034,None,358.63864539800034,None,358.63864539800034,None,358.63864539800034,None,,,,,,,,,,,,,,,,,,,,,,,,,,,,,,,,,,,,,,,,,,,,001,81,2020_Feb_06_1057,spring_faces,3.1.5,59.936288923822886,
,,,,,,,,,,,,,,,,,,,,,,,,,,,,,,,,,,,,,,,,,,,,,,,,,,,,,,,,,,,,,,,,,,,,,,,,,,,,,,,,,,,,,,,,,,,,,,,,,,,,,,,,360.6221627450004,None,space,4.451446957000371,365.6220297690006,None,,,,,,,,,,,,,,,,,,,,,,,,,,,,,,,,,,,,,,001,81,2020_Feb_06_1057,spring_faces,3.1.5,59.936288923822886,
condition files/Stage1_1.xlsx,,B1,T2,c,"['c', 'm']","['Clue', 'Monopoly']","[-0.15, 0.5]","[0.15, 0.5]",1,1,,,,,,,,,0,0,0,0,0,0,0,1,,,,,,,,,,,,,,,,,,,,,,,,,,,,,,,,,,,,,,,,,,,,,,,,,,,,,,,370.1387008370011,None,370.1387008370011,None,370.1387008370011,None,c,1,2.3026162480000494,371.73887792200094,None,371.73887792200094,None,371.73887792200094,None,374.1212469339998,None,374.1212469339998,None,374.1212469339998,None,374.1212469339998,None,,,,,,,365.6220297690006,None,,,,,,,,,,,,,,,,,,,,,,,,,,,,,,,,,,,,001,81,2020_Feb_06_1057,spring_faces,3.1.5,59.936288923822886,
condition files/Stage1_1.xlsx,,B4,T4,m,"['c', 'm']","['Clue', 'Monopoly']","[-0.15, 0.5]","[0.15, 0.5]",1,1,,,,,,,,,0,0,0,0,0,1,1,7,,,,,,,,,,,,,,,,,,,,,,,,,,,,,,,,,,,,,,,,,,,,,,,,,,,,,,,376.0718045800013,None,376.0718045800013,None,376.0718045800013,None,m,1,1.2680928059999133,377.605373020001,None,377.605373020001,None,377.605373020001,None,378.93914217899965,None,378.93914217899965,None,378.93914217899965,None,378.93914217899965,None,,,,,,,,,,,,,,,,,,,,,,,,,,,,,,,,,,,,,,,,,,,,001,81,2020_Feb_06_1057,spring_faces,3.1.5,59.936288923822886,
condition files/Stage1_1.xlsx,,T4,B3,m,"['c', 'm']","['Clue', 'Monopoly']","[-0.15, 0.5]","[0.15, 0.5]",1,1,,,,,,,,,0,0,0,0,0,2,2,6,,,,,,,,,,,,,,,,,,,,,,,,,,,,,,,,,,,,,,,,,,,,,,,,,,,,,,,380.904652745,None,380.904652745,None,380.904652745,None,m,1,0.9787850320008147,382.4387082229996,None,382.4387082229996,None,382.4387082229996,None,383.4719765870004,None,383.4719765870004,None,383.4719765870004,None,383.4719765870004,None,,,,,,,,,,,,,,,,,,,,,,,,,,,,,,,,,,,,,,,,,,,,001,81,2020_Feb_06_1057,spring_faces,3.1.5,59.936288923822886,
condition files/Stage1_1.xlsx,,B3,T3,c,"['c', 'm']","['Clue', 'Monopoly']","[-0.15, 0.5]","[0.15, 0.5]",1,1,,,,,,,,,0,0,0,0,0,3,3,4,,,,,,,,,,,,,,,,,,,,,,,,,,,,,,,,,,,,,,,,,,,,,,,,,,,,,,,385.43852965800124,None,385.43852965800124,None,385.43852965800124,None,m,0,1.1648169050004071,386.98869917499997,None,386.98869917499997,None,386.98869917499997,None,388.2222284640002,None,388.2222284640002,None,388.2222284640002,None,388.2222284640002,None,,,,,,,,,,,,,,,,,,,,,,,,,,,,,,,,,,,,,,,,,,,,001,81,2020_Feb_06_1057,spring_faces,3.1.5,59.936288923822886,
condition files/Stage1_1.xlsx,,T1,B1,c,"['c', 'm']","['Clue', 'Monopoly']","[-0.15, 0.5]","[0.15, 0.5]",1,1,,,,,,,,,0,0,0,0,0,4,4,0,,,,,,,,,,,,,,,,,,,,,,,,,,,,,,,,,,,,,,,,,,,,,,,,,,,,,,,390.17150048500025,None,390.17150048500025,None,390.17150048500025,None,c,1,1.8234172970005602,391.70617799699994,None,391.70617799699994,None,391.70617799699994,None,393.58802378699966,None,393.58802378699966,None,393.58802378699966,None,393.58802378699966,None,,,,,,,,,,,,,,,,,,,,,,,,,,,,,,,,,,,,,,,,,,,,001,81,2020_Feb_06_1057,spring_faces,3.1.5,59.936288923822886,
condition files/Stage1_1.xlsx,,T3,B4,c,"['c', 'm']","['Clue', 'Monopoly']","[-0.15, 0.5]","[0.15, 0.5]",1,1,,,,,,,,,0,0,0,0,0,5,5,5,,,,,,,,,,,,,,,,,,,,,,,,,,,,,,,,,,,,,,,,,,,,,,,,,,,,,,,395.55540675300017,None,395.55540675300017,None,395.55540675300017,None,m,0,1.943654811999295,397.0898421510001,None,397.0898421510001,None,397.0898421510001,None,399.0890646070011,None,399.0890646070011,None,399.0890646070011,None,399.0890646070011,None,,,,,,,,,,,,,,,,,,,,,,,,,,,,,,,,,,,,,,,,,,,,001,81,2020_Feb_06_1057,spring_faces,3.1.5,59.936288923822886,
condition files/Stage1_1.xlsx,,B2,T1,m,"['c', 'm']","['Clue', 'Monopoly']","[-0.15, 0.5]","[0.15, 0.5]",1,1,,,,,,,,,0,0,0,0,0,6,6,2,,,,,,,,,,,,,,,,,,,,,,,,,,,,,,,,,,,,,,,,,,,,,,,,,,,,,,,401.054979122001,None,401.054979122001,None,401.054979122001,None,c,0,3.0051427919988782,402.58838721899974,None,402.58838721899974,None,402.58838721899974,None,405.65592654600096,None,405.65592654600096,None,405.65592654600096,None,405.65592654600096,None,,,,,,,,,,,,,,,,,,,,,,,,,,,,,,,,,,,,,,,,,,,,001,81,2020_Feb_06_1057,spring_faces,3.1.5,59.936288923822886,
condition files/Stage1_1.xlsx,,T2,B2,m,"['c', 'm']","['Clue', 'Monopoly']","[-0.15, 0.5]","[0.15, 0.5]",1,1,,,,,,,,,0,0,0,0,0,7,7,3,,,,,,,,,,,,,,,,,,,,,,,,,,,,,,,,,,,,,,,,,,,,,,,,,,,,,,,407.62163183600114,None,407.62163183600114,None,407.62163183600114,None,m,1,2.7907188199988013,409.15489595300005,None,409.15489595300005,None,409.15489595300005,None,412.0051912070003,None,412.0051912070003,None,412.0051912070003,None,412.0051912070003,None,,,,,,,,,,,,,,,,,,,,,,,,,,,,,,,,,,,,,,,,,,,,001,81,2020_Feb_06_1057,spring_faces,3.1.5,59.936288923822886,
condition files/Stage1_2.xlsx,,T2,B1,c,"['c', 'm']","['Clue', 'Monopoly']","[-0.15, 0.5]","[0.15, 0.5]",1,1,,,,,,,,,0,1,1,1,0,0,0,1,,,,,,,,,,,,,,,,,,,,,,,,,,,,,,,,,,,,,,,,,,,,,,,,,,,,,,,413.98836266700073,None,413.98836266700073,None,413.98836266700073,None,m,0,2.326814113999717,415.5226910700012,None,415.5226910700012,None,415.5226910700012,None,417.90508870100075,None,417.90508870100075,None,417.90508870100075,None,417.90508870100075,None,,,,,,,,,,,,,,,,,,,,,,,,,,,,,,,,,,,,,,,,,,,,001,81,2020_Feb_06_1057,spring_faces,3.1.5,59.936288923822886,
condition files/Stage1_2.xlsx,,B4,T3,c,"['c', 'm']","['Clue', 'Monopoly']","[-0.15, 0.5]","[0.15, 0.5]",1,1,,,,,,,,,0,1,1,1,0,1,1,5,,,,,,,,,,,,,,,,,,,,,,,,,,,,,,,,,,,,,,,,,,,,,,,,,,,,,,,419.8719528520005,None,419.8719528520005,None,419.8719528520005,None,c,1,3.1802897899997333,421.40524391300005,None,421.40524391300005,None,421.40524391300005,None,424.63875789600115,None,424.63875789600115,None,424.63875789600115,None,424.63875789600115,None,,,,,,,,,,,,,,,,,,,,,,,,,,,,,,,,,,,,,,,,,,,,001,81,2020_Feb_06_1057,spring_faces,3.1.5,59.936288923822886,
condition files/Stage1_2.xlsx,,B1,T1,c,"['c', 'm']","['Clue', 'Monopoly']","[-0.15, 0.5]","[0.15, 0.5]",1,1,,,,,,,,,0,1,1,1,0,2,2,0,,,,,,,,,,,,,,,,,,,,,,,,,,,,,,,,,,,,,,,,,,,,,,,,,,,,,,,426.6047916409998,None,426.6047916409998,None,426.6047916409998,None,c,1,2.878330384999572,428.1391873319999,None,428.1391873319999,None,428.1391873319999,None,431.0721058379995,None,431.0721058379995,None,431.0721058379995,None,431.0721058379995,None,,,,,,,,,,,,,,,,,,,,,,,,,,,,,,,,,,,,,,,,,,,,001,81,2020_Feb_06_1057,spring_faces,3.1.5,59.936288923822886,
condition files/Stage1_2.xlsx,,B3,T4,m,"['c', 'm']","['Clue', 'Monopoly']","[-0.15, 0.5]","[0.15, 0.5]",1,1,,,,,,,,,0,1,1,1,0,3,3,6,,,,,,,,,,,,,,,,,,,,,,,,,,,,,,,,,,,,,,,,,,,,,,,,,,,,,,,433.0385995940005,None,433.0385995940005,None,433.0385995940005,None,m,1,2.5239419740009907,434.5736533070003,None,434.5736533070003,None,434.5736533070003,None,437.15711746800025,None,437.15711746800025,None,437.15711746800025,None,437.15711746800025,None,,,,,,,,,,,,,,,,,,,,,,,,,,,,,,,,,,,,,,,,,,,,001,81,2020_Feb_06_1057,spring_faces,3.1.5,59.936288923822886,
condition files/Stage1_2.xlsx,,B2,T2,m,"['c', 'm']","['Clue', 'Monopoly']","[-0.15, 0.5]","[0.15, 0.5]",1,1,,,,,,,,,0,1,1,1,0,4,4,3,,,,,,,,,,,,,,,,,,,,,,,,,,,,,,,,,,,,,,,,,,,,,,,,,,,,,,,439.1215442519997,None,439.1215442519997,None,439.1215442519997,None,m,1,3.4350198860011005,440.654467112,None,440.654467112,None,440.654467112,None,444.15603827200084,None,444.15603827200084,None,444.15603827200084,None,444.15603827200084,None,,,,,,,,,,,,,,,,,,,,,,,,,,,,,,,,,,,,,,,,,,,,001,81,2020_Feb_06_1057,spring_faces,3.1.5,59.936288923822886,
condition files/Stage1_2.xlsx,,T3,B3,c,"['c', 'm']","['Clue', 'Monopoly']","[-0.15, 0.5]","[0.15, 0.5]",1,1,,,,,,,,,0,1,1,1,0,5,5,4,,,,,,,,,,,,,,,,,,,,,,,,,,,,,,,,,,,,,,,,,,,,,,,,,,,,,,,446.12149783100085,None,446.12149783100085,None,446.12149783100085,None,c,1,4.24103581000054,447.67254822000086,None,447.67254822000086,None,447.67254822000086,None,451.98928419800086,None,451.98928419800086,None,451.98928419800086,None,451.98928419800086,None,,,,,,,,,,,,,,,,,,,,,,,,,,,,,,,,,,,,,,,,,,,,001,81,2020_Feb_06_1057,spring_faces,3.1.5,59.936288923822886,
condition files/Stage1_2.xlsx,,T4,B4,m,"['c', 'm']","['Clue', 'Monopoly']","[-0.15, 0.5]","[0.15, 0.5]",1,1,,,,,,,,,0,1,1,1,0,6,6,7,,,,,,,,,,,,,,,,,,,,,,,,,,,,,,,,,,,,,,,,,,,,,,,,,,,,,,,453.93871642700014,None,453.93871642700014,None,453.93871642700014,None,m,1,3.2097285479994753,455.471752071001,None,455.471752071001,None,455.471752071001,None,458.7555879220008,None,458.7555879220008,None,458.7555879220008,None,458.7555879220008,None,,,,,,,,,,,,,,,,,,,,,,,,,,,,,,,,,,,,,,,,,,,,001,81,2020_Feb_06_1057,spring_faces,3.1.5,59.936288923822886,
condition files/Stage1_2.xlsx,,T1,B2,m,"['c', 'm']","['Clue', 'Monopoly']","[-0.15, 0.5]","[0.15, 0.5]",1,1,,,,,,,,,0,1,1,1,0,7,7,2,,,,,,,,,,,,,,,,,,,,,,,,,,,,,,,,,,,,,,,,,,,,,,,,,,,,,,,460.70520685500105,None,460.70520685500105,None,460.70520685500105,None,c,0,3.307297319999634,462.2383146130005,None,462.2383146130005,None,462.2383146130005,None,465.6056501490011,None,465.6056501490011,None,465.6056501490011,None,465.6056501490011,None,,,,,,,,,,,,,,,,,,,,,,,,,,,,,,,,,,,,,,,,,,,,001,81,2020_Feb_06_1057,spring_faces,3.1.5,59.936288923822886,
condition files/Stage1_1.xlsx,,T2,B2,m,"['c', 'm']","['Clue', 'Monopoly']","[-0.15, 0.5]","[0.15, 0.5]",1,1,,,,,,,,,0,2,2,2,0,0,0,3,,,,,,,,,,,,,,,,,,,,,,,,,,,,,,,,,,,,,,,,,,,,,,,,,,,,,,,467.58893941100087,None,467.58893941100087,None,467.58893941100087,None,c,0,1.9596303109992732,469.12185456600037,None,469.12185456600037,None,469.12185456600037,None,471.13876076700126,None,471.13876076700126,None,471.13876076700126,None,471.13876076700126,None,,,,,,,,,,,,,,,,,,,,,,,,,,,,,,,,,,,,,,,,,,,,001,81,2020_Feb_06_1057,spring_faces,3.1.5,59.936288923822886,
condition files/Stage1_1.xlsx,,B2,T1,m,"['c', 'm']","['Clue', 'Monopoly']","[-0.15, 0.5]","[0.15, 0.5]",1,1,,,,,,,,,0,2,2,2,0,1,1,2,,,,,,,,,,,,,,,,,,,,,,,,,,,,,,,,,,,,,,,,,,,,,,,,,,,,,,,473.105292139001,None,473.105292139001,None,473.105292139001,None,c,0,4.666853232998619,474.6386484450004,None,474.6386484450004,None,474.6386484450004,None,479.35533383500024,None,479.35533383500024,None,479.35533383500024,None,479.35533383500024,None,,,,,,,,,,,,,,,,,,,,,,,,,,,,,,,,,,,,,,,,,,,,001,81,2020_Feb_06_1057,spring_faces,3.1.5,59.936288923822886,
condition files/Stage1_1.xlsx,,T1,B1,c,"['c', 'm']","['Clue', 'Monopoly']","[-0.15, 0.5]","[0.15, 0.5]",1,1,,,,,,,,,0,2,2,2,0,2,2,0,,,,,,,,,,,,,,,,,,,,,,,,,,,,,,,,,,,,,,,,,,,,,,,,,,,,,,,481.3219160340004,None,481.3219160340004,None,481.3219160340004,None,c,1,2.081404272999862,482.8721143499997,None,482.8721143499997,None,482.8721143499997,None,485.00789443300073,None,485.00789443300073,None,485.00789443300073,None,485.00789443300073,None,,,,,,,,,,,,,,,,,,,,,,,,,,,,,,,,,,,,,,,,,,,,001,81,2020_Feb_06_1057,spring_faces,3.1.5,59.936288923822886,
condition files/Stage1_1.xlsx,,B4,T4,m,"['c', 'm']","['Clue', 'Monopoly']","[-0.15, 0.5]","[0.15, 0.5]",1,1,,,,,,,,,0,2,2,2,0,3,3,7,,,,,,,,,,,,,,,,,,,,,,,,,,,,,,,,,,,,,,,,,,,,,,,,,,,,,,,486.9719356579999,None,486.9719356579999,None,486.9719356579999,None,m,1,2.479350722000163,488.5221855690006,None,488.5221855690006,None,488.5221855690006,None,491.07206975200006,None,491.07206975200006,None,491.07206975200006,None,491.07206975200006,None,,,,,,,,,,,,,,,,,,,,,,,,,,,,,,,,,,,,,,,,,,,,001,81,2020_Feb_06_1057,spring_faces,3.1.5,59.936288923822886,
condition files/Stage1_1.xlsx,,B3,T3,c,"['c', 'm']","['Clue', 'Monopoly']","[-0.15, 0.5]","[0.15, 0.5]",1,1,,,,,,,,,0,2,2,2,0,4,4,4,,,,,,,,,,,,,,,,,,,,,,,,,,,,,,,,,,,,,,,,,,,,,,,,,,,,,,,493.0213141230006,None,493.0213141230006,None,493.0213141230006,None,c,1,1.3736879959997168,494.5559277450002,None,494.5559277450002,None,494.5559277450002,None,495.98853701700045,None,495.98853701700045,None,495.98853701700045,None,495.98853701700045,None,,,,,,,,,,,,,,,,,,,,,,,,,,,,,,,,,,,,,,,,,,,,001,81,2020_Feb_06_1057,spring_faces,3.1.5,59.936288923822886,
condition files/Stage1_1.xlsx,,T4,B3,m,"['c', 'm']","['Clue', 'Monopoly']","[-0.15, 0.5]","[0.15, 0.5]",1,1,,,,,,,,,0,2,2,2,0,5,5,6,,,,,,,,,,,,,,,,,,,,,,,,,,,,,,,,,,,,,,,,,,,,,,,,,,,,,,,497.9557517830008,None,497.9557517830008,None,497.9557517830008,None,c,0,2.0727509729986195,499.4888056230002,None,499.4888056230002,None,499.4888056230002,None,501.6239817530013,None,501.6239817530013,None,501.6239817530013,None,501.6239817530013,None,,,,,,,,,,,,,,,,,,,,,,,,,,,,,,,,,,,,,,,,,,,,001,81,2020_Feb_06_1057,spring_faces,3.1.5,59.936288923822886,
condition files/Stage1_1.xlsx,,B1,T2,c,"['c', 'm']","['Clue', 'Monopoly']","[-0.15, 0.5]","[0.15, 0.5]",1,1,,,,,,,,,0,2,2,2,0,6,6,1,,,,,,,,,,,,,,,,,,,,,,,,,,,,,,,,,,,,,,,,,,,,,,,,,,,,,,,503.58817961600016,None,503.58817961600016,None,503.58817961600016,None,c,1,1.6554528550004761,505.1220409770003,None,505.1220409770003,None,505.1220409770003,None,506.8392059530006,None,506.8392059530006,None,506.8392059530006,None,506.8392059530006,None,,,,,,,,,,,,,,,,,,,,,,,,,,,,,,,,,,,,,,,,,,,,001,81,2020_Feb_06_1057,spring_faces,3.1.5,59.936288923822886,
condition files/Stage1_1.xlsx,,T3,B4,c,"['c', 'm']","['Clue', 'Monopoly']","[-0.15, 0.5]","[0.15, 0.5]",1,1,,,,,,,,,0,2,2,2,0,7,7,5,,,,,,,,,,,,,,,,,,,,,,,,,,,,,,,,,,,,,,,,,,,,,,,,,,,,,,,508.805225901001,None,508.805225901001,None,508.805225901001,None,m,0,3.3023557830001664,510.3391843569998,None,510.3391843569998,None,510.3391843569998,None,513.7051805780002,None,513.7051805780002,None,513.7051805780002,None,513.7051805780002,None,,,,,,,,,,,,,,,,,,,,,,,,,,,,,,,,,,,,,,,,,,,,001,81,2020_Feb_06_1057,spring_faces,3.1.5,59.936288923822886,
condition files/Stage1_2.xlsx,,B2,T2,m,"['c', 'm']","['Clue', 'Monopoly']","[-0.15, 0.5]","[0.15, 0.5]",1,1,,,,,,,,,0,3,3,3,0,0,0,3,,,,,,,,,,,,,,,,,,,,,,,,,,,,,,,,,,,,,,,,,,,,,,,,,,,,,,,515.6884936360011,None,515.6884936360011,None,515.6884936360011,None,m,1,2.6585313040013716,517.2390724549996,None,517.2390724549996,None,517.2390724549996,None,519.9571607690004,None,519.9571607690004,None,519.9571607690004,None,519.9571607690004,None,,,,,,,,,,,,,,,,,,,,,,,,,,,,,,,,,,,,,,,,,,,,001,81,2020_Feb_06_1057,spring_faces,3.1.5,59.936288923822886,
condition files/Stage1_2.xlsx,,B3,T4,m,"['c', 'm']","['Clue', 'Monopoly']","[-0.15, 0.5]","[0.15, 0.5]",1,1,,,,,,,,,0,3,3,3,0,1,1,6,,,,,,,,,,,,,,,,,,,,,,,,,,,,,,,,,,,,,,,,,,,,,,,,,,,,,,,521.9219201019996,None,521.9219201019996,None,521.9219201019996,None,m,1,2.426120758998877,523.4553615819996,None,523.4553615819996,None,523.4553615819996,None,525.9389628150011,None,525.9389628150011,None,525.9389628150011,None,525.9389628150011,None,,,,,,,,,,,,,,,,,,,,,,,,,,,,,,,,,,,,,,,,,,,,001,81,2020_Feb_06_1057,spring_faces,3.1.5,59.936288923822886,
condition files/Stage1_2.xlsx,,B1,T1,c,"['c', 'm']","['Clue', 'Monopoly']","[-0.15, 0.5]","[0.15, 0.5]",1,1,,,,,,,,,0,3,3,3,0,2,2,0,,,,,,,,,,,,,,,,,,,,,,,,,,,,,,,,,,,,,,,,,,,,,,,,,,,,,,,527.9047958399997,None,527.9047958399997,None,527.9047958399997,None,c,1,1.3381082710002374,529.4554440840011,None,529.4554440840011,None,529.4554440840011,None,530.8715727440003,None,530.8715727440003,None,530.8715727440003,None,530.8715727440003,None,,,,,,,,,,,,,,,,,,,,,,,,,,,,,,,,,,,,,,,,,,,,001,81,2020_Feb_06_1057,spring_faces,3.1.5,59.936288923822886,
condition files/Stage1_2.xlsx,,T4,B4,m,"['c', 'm']","['Clue', 'Monopoly']","[-0.15, 0.5]","[0.15, 0.5]",1,1,,,,,,,,,0,3,3,3,0,3,3,7,,,,,,,,,,,,,,,,,,,,,,,,,,,,,,,,,,,,,,,,,,,,,,,,,,,,,,,532.8219804829996,None,532.8219804829996,None,532.8219804829996,None,m,1,4.422476006999204,534.3550105969998,None,534.3550105969998,None,534.3550105969998,None,538.8556208939999,None,538.8556208939999,None,538.8556208939999,None,538.8556208939999,None,,,,,,,,,,,,,,,,,,,,,,,,,,,,,,,,,,,,,,,,,,,,001,81,2020_Feb_06_1057,spring_faces,3.1.5,59.936288923822886,
condition files/Stage1_2.xlsx,,T3,B3,c,"['c', 'm']","['Clue', 'Monopoly']","[-0.15, 0.5]","[0.15, 0.5]",1,1,,,,,,,,,0,3,3,3,0,4,4,4,,,,,,,,,,,,,,,,,,,,,,,,,,,,,,,,,,,,,,,,,,,,,,,,,,,,,,,540.8051946700007,None,540.8051946700007,None,540.8051946700007,None,c,1,1.4947619220001798,542.3387258209996,None,542.3387258209996,None,542.3387258209996,None,543.904767649,None,543.904767649,None,543.904767649,None,543.904767649,None,,,,,,,,,,,,,,,,,,,,,,,,,,,,,,,,,,,,,,,,,,,,001,81,2020_Feb_06_1057,spring_faces,3.1.5,59.936288923822886,
condition files/Stage1_2.xlsx,,B4,T3,c,"['c', 'm']","['Clue', 'Monopoly']","[-0.15, 0.5]","[0.15, 0.5]",1,1,,,,,,,,,0,3,3,3,0,5,5,5,,,,,,,,,,,,,,,,,,,,,,,,,,,,,,,,,,,,,,,,,,,,,,,,,,,,,,,545.8555467510005,None,545.8555467510005,None,545.8555467510005,None,m,0,2.7638927140014857,547.4055952680001,None,547.4055952680001,None,547.4055952680001,None,550.2220029589998,None,550.2220029589998,None,550.2220029589998,None,550.2220029589998,None,,,,,,,,,,,,,,,,,,,,,,,,,,,,,,,,,,,,,,,,,,,,001,81,2020_Feb_06_1057,spring_faces,3.1.5,59.936288923822886,
condition files/Stage1_2.xlsx,,T2,B1,c,"['c', 'm']","['Clue', 'Monopoly']","[-0.15, 0.5]","[0.15, 0.5]",1,1,,,,,,,,,0,3,3,3,0,6,6,1,,,,,,,,,,,,,,,,,,,,,,,,,,,,,,,,,,,,,,,,,,,,,,,,,,,,,,,552.188955603001,None,552.188955603001,None,552.188955603001,None,c,1,3.4075910640003713,553.7219988340012,None,553.7219988340012,None,553.7219988340012,None,557.1885024379999,None,557.1885024379999,None,557.1885024379999,None,557.1885024379999,None,,,,,,,,,,,,,,,,,,,,,,,,,,,,,,,,,,,,,,,,,,,,001,81,2020_Feb_06_1057,spring_faces,3.1.5,59.936288923822886,
condition files/Stage1_2.xlsx,,T1,B2,m,"['c', 'm']","['Clue', 'Monopoly']","[-0.15, 0.5]","[0.15, 0.5]",1,1,,,,,,,,,0,3,3,3,0,7,7,2,,,,,,,,,,,,,,,,,,,,,,,,,,,,,,,,,,,,,,,,,,,,,,,,,,,,,,,559.1551829050013,None,559.1551829050013,None,559.1551829050013,None,m,1,0.8892852950011729,560.6882513419996,None,560.6882513419996,None,560.6882513419996,None,561.6383766770005,None,561.6383766770005,None,561.6383766770005,None,561.6383766770005,None,,,,,,,,,,,,,,,,,,,,,,,,,,,,,,,,,,,,,,,,,,,,001,81,2020_Feb_06_1057,spring_faces,3.1.5,59.936288923822886,
condition files/Stage1_1.xlsx,,T4,B3,m,"['c', 'm']","['Clue', 'Monopoly']","[-0.15, 0.5]","[0.15, 0.5]",1,1,,,,,,,,,0,4,4,4,0,0,0,6,,,,,,,,,,,,,,,,,,,,,,,,,,,,,,,,,,,,,,,,,,,,,,,,,,,,,,,563.6219544850001,None,563.6219544850001,None,563.6219544850001,None,m,1,3.990589978000571,565.1550307080006,None,565.1550307080006,None,565.1550307080006,None,569.2055035950007,None,569.2055035950007,None,569.2055035950007,None,569.2055035950007,None,,,,,,,,,,,,,,,,,,,,,,,,,,,,,,,,,,,,,,,,,,,,001,81,2020_Feb_06_1057,spring_faces,3.1.5,59.936288923822886,
condition files/Stage1_1.xlsx,,T1,B1,c,"['c', 'm']","['Clue', 'Monopoly']","[-0.15, 0.5]","[0.15, 0.5]",1,1,,,,,,,,,0,4,4,4,0,1,1,0,,,,,,,,,,,,,,,,,,,,,,,,,,,,,,,,,,,,,,,,,,,,,,,,,,,,,,,571.171936918,None,571.171936918,None,571.171936918,None,c,1,2.408968214998822,572.7046452149998,None,572.7046452149998,None,572.7046452149998,None,575.1717542600009,None,575.1717542600009,None,575.1717542600009,None,575.1717542600009,None,,,,,,,,,,,,,,,,,,,,,,,,,,,,,,,,,,,,,,,,,,,,001,81,2020_Feb_06_1057,spring_faces,3.1.5,59.936288923822886,
condition files/Stage1_1.xlsx,,B3,T3,c,"['c', 'm']","['Clue', 'Monopoly']","[-0.15, 0.5]","[0.15, 0.5]",1,1,,,,,,,,,0,4,4,4,0,2,2,4,,,,,,,,,,,,,,,,,,,,,,,,,,,,,,,,,,,,,,,,,,,,,,,,,,,,,,,577.1382282380009,None,577.1382282380009,None,577.1382282380009,None,m,0,2.218105870999352,578.671377044001,None,578.671377044001,None,578.671377044001,None,580.9556965780002,None,580.9556965780002,None,580.9556965780002,None,580.9556965780002,None,,,,,,,,,,,,,,,,,,,,,,,,,,,,,,,,,,,,,,,,,,,,001,81,2020_Feb_06_1057,spring_faces,3.1.5,59.936288923822886,
condition files/Stage1_1.xlsx,,B1,T2,c,"['c', 'm']","['Clue', 'Monopoly']","[-0.15, 0.5]","[0.15, 0.5]",1,1,,,,,,,,,0,4,4,4,0,3,3,1,,,,,,,,,,,,,,,,,,,,,,,,,,,,,,,,,,,,,,,,,,,,,,,,,,,,,,,582.9216400710002,None,582.9216400710002,None,582.9216400710002,None,m,0,2.433885836999252,584.4556141490002,None,584.4556141490002,None,584.4556141490002,None,586.9551698149999,None,586.9551698149999,None,586.9551698149999,None,586.9551698149999,None,,,,,,,,,,,,,,,,,,,,,,,,,,,,,,,,,,,,,,,,,,,,001,81,2020_Feb_06_1057,spring_faces,3.1.5,59.936288923822886,
condition files/Stage1_1.xlsx,,T3,B4,c,"['c', 'm']","['Clue', 'Monopoly']","[-0.15, 0.5]","[0.15, 0.5]",1,1,,,,,,,,,0,4,4,4,0,4,4,5,,,,,,,,,,,,,,,,,,,,,,,,,,,,,,,,,,,,,,,,,,,,,,,,,,,,,,,588.9216160500009,None,588.9216160500009,None,588.9216160500009,None,c,1,2.2255076249984995,590.4559742840001,None,590.4559742840001,None,590.4559742840001,None,592.7384159719995,None,592.7384159719995,None,592.7384159719995,None,592.7384159719995,None,,,,,,,,,,,,,,,,,,,,,,,,,,,,,,,,,,,,,,,,,,,,001,81,2020_Feb_06_1057,spring_faces,3.1.5,59.936288923822886,
condition files/Stage1_1.xlsx,,T2,B2,m,"['c', 'm']","['Clue', 'Monopoly']","[-0.15, 0.5]","[0.15, 0.5]",1,1,,,,,,,,,0,4,4,4,0,5,5,3,,,,,,,,,,,,,,,,,,,,,,,,,,,,,,,,,,,,,,,,,,,,,,,,,,,,,,,594.7044753689997,None,594.7044753689997,None,594.7044753689997,None,m,1,1.4672503559995675,596.2382410960008,None,596.2382410960008,None,596.2382410960008,None,597.7721246949995,None,597.7721246949995,None,597.7721246949995,None,597.7721246949995,None,,,,,,,,,,,,,,,,,,,,,,,,,,,,,,,,,,,,,,,,,,,,001,81,2020_Feb_06_1057,spring_faces,3.1.5,59.936288923822886,
condition files/Stage1_1.xlsx,,B4,T4,m,"['c', 'm']","['Clue', 'Monopoly']","[-0.15, 0.5]","[0.15, 0.5]",1,1,,,,,,,,,0,4,4,4,0,6,6,7,,,,,,,,,,,,,,,,,,,,,,,,,,,,,,,,,,,,,,,,,,,,,,,,,,,,,,,599.7387387059998,None,599.7387387059998,None,599.7387387059998,None,m,1,2.8499694729998737,601.2715784310012,None,601.2715784310012,None,601.2715784310012,None,604.1720022399995,None,604.1720022399995,None,604.1720022399995,None,604.1720022399995,None,,,,,,,,,,,,,,,,,,,,,,,,,,,,,,,,,,,,,,,,,,,,001,81,2020_Feb_06_1057,spring_faces,3.1.5,59.936288923822886,
condition files/Stage1_1.xlsx,,B2,T1,m,"['c', 'm']","['Clue', 'Monopoly']","[-0.15, 0.5]","[0.15, 0.5]",1,1,,,,,,,,,0,4,4,4,0,7,7,2,,,,,,,,,,,,,,,,,,,,,,,,,,,,,,,,,,,,,,,,,,,,,,,,,,,,,,,606.1387813150004,None,606.1387813150004,None,606.1387813150004,None,m,1,1.0884725020005135,607.6890656500009,None,607.6890656500009,None,607.6890656500009,None,608.8385283630005,None,608.8385283630005,None,608.8385283630005,None,608.8385283630005,None,,,,,,,,,,,,,,,,,,,,,,,,,,,,,,,,,,,,,,,,,,,,001,81,2020_Feb_06_1057,spring_faces,3.1.5,59.936288923822886,
condition files/Stage1_2.xlsx,,T2,B1,c,"['c', 'm']","['Clue', 'Monopoly']","[-0.15, 0.5]","[0.15, 0.5]",1,1,,,,,,,,,0,5,5,5,0,0,0,1,,,,,,,,,,,,,,,,,,,,,,,,,,,,,,,,,,,,,,,,,,,,,,,,,,,,,,,610.8219230420009,None,610.8219230420009,None,610.8219230420009,None,c,1,4.086726241001088,612.3548256109998,None,612.3548256109998,None,612.3548256109998,None,616.5058050880007,None,616.5058050880007,None,616.5058050880007,None,616.5058050880007,None,,,,,,,,,,,,,,,,,,,,,,,,,,,,,,,,,,,,,,,,,,,,001,81,2020_Feb_06_1057,spring_faces,3.1.5,59.936288923822886,
condition files/Stage1_2.xlsx,,B4,T3,c,"['c', 'm']","['Clue', 'Monopoly']","[-0.15, 0.5]","[0.15, 0.5]",1,1,,,,,,,,,0,5,5,5,0,1,1,5,,,,,,,,,,,,,,,,,,,,,,,,,,,,,,,,,,,,,,,,,,,,,,,,,,,,,,,618.4719090040007,None,618.4719090040007,None,618.4719090040007,None,c,1,2.548495142998945,620.0050424170013,None,620.0050424170013,None,620.0050424170013,None,622.6051039269996,None,622.6051039269996,None,622.6051039269996,None,622.6051039269996,None,,,,,,,,,,,,,,,,,,,,,,,,,,,,,,,,,,,,,,,,,,,,001,81,2020_Feb_06_1057,spring_faces,3.1.5,59.936288923822886,
condition files/Stage1_2.xlsx,,T3,B3,c,"['c', 'm']","['Clue', 'Monopoly']","[-0.15, 0.5]","[0.15, 0.5]",1,1,,,,,,,,,0,5,5,5,0,2,2,4,,,,,,,,,,,,,,,,,,,,,,,,,,,,,,,,,,,,,,,,,,,,,,,,,,,,,,,624.5719686060011,None,624.5719686060011,None,624.5719686060011,None,c,1,1.1523718749995169,626.1051452500005,None,626.1051452500005,None,626.1051452500005,None,627.322267605,None,627.322267605,None,627.322267605,None,627.322267605,None,,,,,,,,,,,,,,,,,,,,,,,,,,,,,,,,,,,,,,,,,,,,001,81,2020_Feb_06_1057,spring_faces,3.1.5,59.936288923822886,
condition files/Stage1_2.xlsx,,B1,T1,c,"['c', 'm']","['Clue', 'Monopoly']","[-0.15, 0.5]","[0.15, 0.5]",1,1,,,,,,,,,0,5,5,5,0,3,3,0,,,,,,,,,,,,,,,,,,,,,,,,,,,,,,,,,,,,,,,,,,,,,,,,,,,,,,,629.288673592001,None,629.288673592001,None,629.288673592001,None,c,1,2.5139488900003926,630.8235856790006,None,630.8235856790006,None,630.8235856790006,None,633.3889277709995,None,633.3889277709995,None,633.3889277709995,None,633.3889277709995,None,,,,,,,,,,,,,,,,,,,,,,,,,,,,,,,,,,,,,,,,,,,,001,81,2020_Feb_06_1057,spring_faces,3.1.5,59.936288923822886,
condition files/Stage1_2.xlsx,,T1,B2,m,"['c', 'm']","['Clue', 'Monopoly']","[-0.15, 0.5]","[0.15, 0.5]",1,1,,,,,,,,,0,5,5,5,0,4,4,2,,,,,,,,,,,,,,,,,,,,,,,,,,,,,,,,,,,,,,,,,,,,,,,,,,,,,,,635.355269662,None,635.355269662,None,635.355269662,None,m,1,0.865658626998993,636.8878805980012,None,636.8878805980012,None,636.8878805980012,None,637.8223364739997,None,637.8223364739997,None,637.8223364739997,None,637.8223364739997,None,,,,,,,,,,,,,,,,,,,,,,,,,,,,,,,,,,,,,,,,,,,,001,81,2020_Feb_06_1057,spring_faces,3.1.5,59.936288923822886,
condition files/Stage1_2.xlsx,,B3,T4,m,"['c', 'm']","['Clue', 'Monopoly']","[-0.15, 0.5]","[0.15, 0.5]",1,1,,,,,,,,,0,5,5,5,0,5,5,6,,,,,,,,,,,,,,,,,,,,,,,,,,,,,,,,,,,,,,,,,,,,,,,,,,,,,,,639.7719001200012,None,639.7719001200012,None,639.7719001200012,None,c,0,1.808466677000979,641.3051481140001,None,641.3051481140001,None,641.3051481140001,None,643.1718382030003,None,643.1718382030003,None,643.1718382030003,None,643.1718382030003,None,,,,,,,,,,,,,,,,,,,,,,,,,,,,,,,,,,,,,,,,,,,,001,81,2020_Feb_06_1057,spring_faces,3.1.5,59.936288923822886,
condition files/Stage1_2.xlsx,,T4,B4,m,"['c', 'm']","['Clue', 'Monopoly']","[-0.15, 0.5]","[0.15, 0.5]",1,1,,,,,,,,,0,5,5,5,0,6,6,7,,,,,,,,,,,,,,,,,,,,,,,,,,,,,,,,,,,,,,,,,,,,,,,,,,,,,,,645.1383680680001,None,645.1383680680001,None,645.1383680680001,None,m,1,0.7920440569996572,646.6735831510005,None,646.6735831510005,None,646.6735831510005,None,647.5228922899996,None,647.5228922899996,None,647.5228922899996,None,647.5228922899996,None,,,,,,,,,,,,,,,,,,,,,,,,,,,,,,,,,,,,,,,,,,,,001,81,2020_Feb_06_1057,spring_faces,3.1.5,59.936288923822886,
condition files/Stage1_2.xlsx,,B2,T2,m,"['c', 'm']","['Clue', 'Monopoly']","[-0.15, 0.5]","[0.15, 0.5]",1,1,,,,,,,,,0,5,5,5,0,7,7,3,,,,,,,,,,,,,,,,,,,,,,,,,,,,,,,,,,,,,,,,,,,,,,,,,,,,,,,649.4881283630011,None,649.4881283630011,None,649.4881283630011,None,m,1,0.8907964379995974,651.0228237680012,None,651.0228237680012,None,651.0228237680012,None,651.9723200870003,None,651.9723200870003,None,651.9723200870003,None,651.9723200870003,None,,,,,,,,,,,,,,,,,,,,,,,,,,,,,,,,,,,,,,,,,,,,001,81,2020_Feb_06_1057,spring_faces,3.1.5,59.936288923822886,
condition files/Stage1_1.xlsx,,B3,T3,c,"['c', 'm']","['Clue', 'Monopoly']","[-0.15, 0.5]","[0.15, 0.5]",1,1,,,,,,,,,0,6,6,6,0,0,0,4,,,,,,,,,,,,,,,,,,,,,,,,,,,,,,,,,,,,,,,,,,,,,,,,,,,,,,,653.9552147599998,None,653.9552147599998,None,653.9552147599998,None,c,1,1.6881571489993803,655.5053840660012,None,655.5053840660012,None,655.5053840660012,None,657.2557620590005,None,657.2557620590005,None,657.2557620590005,None,657.2557620590005,None,,,,,,,,,,,,,,,,,,,,,,,,,,,,,,,,,,,,,,,,,,,,001,81,2020_Feb_06_1057,spring_faces,3.1.5,59.936288923822886,
condition files/Stage1_1.xlsx,,B1,T2,c,"['c', 'm']","['Clue', 'Monopoly']","[-0.15, 0.5]","[0.15, 0.5]",1,1,,,,,,,,,0,6,6,6,0,1,1,1,,,,,,,,,,,,,,,,,,,,,,,,,,,,,,,,,,,,,,,,,,,,,,,,,,,,,,,659.2213463010003,None,659.2213463010003,None,659.2213463010003,None,c,1,1.558460517999265,660.7551502110009,None,660.7551502110009,None,660.7551502110009,None,662.3719487290009,None,662.3719487290009,None,662.3719487290009,None,662.3719487290009,None,,,,,,,,,,,,,,,,,,,,,,,,,,,,,,,,,,,,,,,,,,,,001,81,2020_Feb_06_1057,spring_faces,3.1.5,59.936288923822886,
condition files/Stage1_1.xlsx,,T3,B4,c,"['c', 'm']","['Clue', 'Monopoly']","[-0.15, 0.5]","[0.15, 0.5]",1,1,,,,,,,,,0,6,6,6,0,2,2,5,,,,,,,,,,,,,,,,,,,,,,,,,,,,,,,,,,,,,,,,,,,,,,,,,,,,,,,664.3384915910001,None,664.3384915910001,None,664.3384915910001,None,c,1,5.993504605999988,665.8721150210013,None,665.8721150210013,None,665.8721150210013,None,671.922209542,None,671.922209542,None,671.922209542,None,671.922209542,None,,,,,,,,,,,,,,,,,,,,,,,,,,,,,,,,,,,,,,,,,,,,001,81,2020_Feb_06_1057,spring_faces,3.1.5,59.936288923822886,
condition files/Stage1_1.xlsx,,T1,B1,c,"['c', 'm']","['Clue', 'Monopoly']","[-0.15, 0.5]","[0.15, 0.5]",1,1,,,,,,,,,0,6,6,6,0,3,3,0,,,,,,,,,,,,,,,,,,,,,,,,,,,,,,,,,,,,,,,,,,,,,,,,,,,,,,,673.888124479,None,673.888124479,None,673.888124479,None,c,1,1.8196246280003834,675.4219190329995,None,675.4219190329995,None,675.4219190329995,None,677.3052361110012,None,677.3052361110012,None,677.3052361110012,None,677.3052361110012,None,,,,,,,,,,,,,,,,,,,,,,,,,,,,,,,,,,,,,,,,,,,,001,81,2020_Feb_06_1057,spring_faces,3.1.5,59.936288923822886,
condition files/Stage1_1.xlsx,,T4,B3,m,"['c', 'm']","['Clue', 'Monopoly']","[-0.15, 0.5]","[0.15, 0.5]",1,1,,,,,,,,,0,6,6,6,0,4,4,6,,,,,,,,,,,,,,,,,,,,,,,,,,,,,,,,,,,,,,,,,,,,,,,,,,,,,,,679.2719071900001,None,679.2719071900001,None,679.2719071900001,None,m,1,1.6823347450008441,680.8071598140004,None,680.8071598140004,None,680.8071598140004,None,682.5722910850009,None,682.5722910850009,None,682.5722910850009,None,682.5722910850009,None,,,,,,,,,,,,,,,,,,,,,,,,,,,,,,,,,,,,,,,,,,,,001,81,2020_Feb_06_1057,spring_faces,3.1.5,59.936288923822886,
condition files/Stage1_1.xlsx,,B2,T1,m,"['c', 'm']","['Clue', 'Monopoly']","[-0.15, 0.5]","[0.15, 0.5]",1,1,,,,,,,,,0,6,6,6,0,5,5,2,,,,,,,,,,,,,,,,,,,,,,,,,,,,,,,,,,,,,,,,,,,,,,,,,,,,,,,684.5219181540006,None,684.5219181540006,None,684.5219181540006,None,m,1,0.6743759179989866,686.0552395160003,None,686.0552395160003,None,686.0552395160003,None,686.7885464220008,None,686.7885464220008,None,686.7885464220008,None,686.7885464220008,None,,,,,,,,,,,,,,,,,,,,,,,,,,,,,,,,,,,,,,,,,,,,001,81,2020_Feb_06_1057,spring_faces,3.1.5,59.936288923822886,
condition files/Stage1_1.xlsx,,B4,T4,m,"['c', 'm']","['Clue', 'Monopoly']","[-0.15, 0.5]","[0.15, 0.5]",1,1,,,,,,,,,0,6,6,6,0,6,6,7,,,,,,,,,,,,,,,,,,,,,,,,,,,,,,,,,,,,,,,,,,,,,,,,,,,,,,,688.7552794840003,None,688.7552794840003,None,688.7552794840003,None,m,1,2.246918287999506,690.2906225610013,None,690.2906225610013,None,690.2906225610013,None,692.5889141289999,None,692.5889141289999,None,692.5889141289999,None,692.5889141289999,None,,,,,,,,,,,,,,,,,,,,,,,,,,,,,,,,,,,,,,,,,,,,001,81,2020_Feb_06_1057,spring_faces,3.1.5,59.936288923822886,
condition files/Stage1_1.xlsx,,T2,B2,m,"['c', 'm']","['Clue', 'Monopoly']","[-0.15, 0.5]","[0.15, 0.5]",1,1,,,,,,,,,0,6,6,6,0,7,7,3,,,,,,,,,,,,,,,,,,,,,,,,,,,,,,,,,,,,,,,,,,,,,,,,,,,,,,,694.5551273700012,None,694.5551273700012,None,694.5551273700012,None,m,1,0.9617002279992448,696.0878521900004,None,696.0878521900004,None,696.0878521900004,None,697.105192121001,None,697.105192121001,None,697.105192121001,None,697.105192121001,None,,,,,,,,,,,,,,,,,,,,,,,,,,,,,,,,,,,,,,,,,,,,001,81,2020_Feb_06_1057,spring_faces,3.1.5,59.936288923822886,
condition files/Stage1_2.xlsx,,B4,T3,c,"['c', 'm']","['Clue', 'Monopoly']","[-0.15, 0.5]","[0.15, 0.5]",1,1,,,,,,,,,0,7,7,7,0,0,0,5,,,,,,,,,,,,,,,,,,,,,,,,,,,,,,,,,,,,,,,,,,,,,,,,,,,,,,,699.088877307001,None,699.088877307001,None,699.088877307001,None,c,1,1.8359529200006364,700.621608161001,None,700.621608161001,None,700.621608161001,None,702.538415512,None,702.538415512,None,702.538415512,None,702.538415512,None,,,,,,,,,,,,,,,,,,,,,,,,,,,,,,,,,,,,,,,,,,,,001,81,2020_Feb_06_1057,spring_faces,3.1.5,59.936288923822886,
condition files/Stage1_2.xlsx,,B3,T4,m,"['c', 'm']","['Clue', 'Monopoly']","[-0.15, 0.5]","[0.15, 0.5]",1,1,,,,,,,,,0,7,7,7,0,1,1,6,,,,,,,,,,,,,,,,,,,,,,,,,,,,,,,,,,,,,,,,,,,,,,,,,,,,,,,704.488163854,None,704.488163854,None,704.488163854,None,m,1,1.9553780789992743,706.0221688200008,None,706.0221688200008,None,706.0221688200008,None,708.0409377990009,None,708.0409377990009,None,708.0409377990009,None,708.0409377990009,None,,,,,,,,,,,,,,,,,,,,,,,,,,,,,,,,,,,,,,,,,,,,001,81,2020_Feb_06_1057,spring_faces,3.1.5,59.936288923822886,
condition files/Stage1_2.xlsx,,B1,T1,c,"['c', 'm']","['Clue', 'Monopoly']","[-0.15, 0.5]","[0.15, 0.5]",1,1,,,,,,,,,0,7,7,7,0,2,2,0,,,,,,,,,,,,,,,,,,,,,,,,,,,,,,,,,,,,,,,,,,,,,,,,,,,,,,,710.0052001209997,None,710.0052001209997,None,710.0052001209997,None,c,1,1.510062081999422,711.5555375600006,None,711.5555375600006,None,711.5555375600006,None,713.1380859219998,None,713.1380859219998,None,713.1380859219998,None,713.1380859219998,None,,,,,,,,,,,,,,,,,,,,,,,,,,,,,,,,,,,,,,,,,,,,001,81,2020_Feb_06_1057,spring_faces,3.1.5,59.936288923822886,
condition files/Stage1_2.xlsx,,T1,B2,m,"['c', 'm']","['Clue', 'Monopoly']","[-0.15, 0.5]","[0.15, 0.5]",1,1,,,,,,,,,0,7,7,7,0,3,3,2,,,,,,,,,,,,,,,,,,,,,,,,,,,,,,,,,,,,,,,,,,,,,,,,,,,,,,,715.0880676229999,None,715.0880676229999,None,715.0880676229999,None,m,1,1.0518667039996217,716.6216456989996,None,716.6216456989996,None,716.6216456989996,None,717.7400796610009,None,717.7400796610009,None,717.7400796610009,None,717.7400796610009,None,,,,,,,,,,,,,,,,,,,,,,,,,,,,,,,,,,,,,,,,,,,,001,81,2020_Feb_06_1057,spring_faces,3.1.5,59.936288923822886,
condition files/Stage1_2.xlsx,,T3,B3,c,"['c', 'm']","['Clue', 'Monopoly']","[-0.15, 0.5]","[0.15, 0.5]",1,1,,,,,,,,,0,7,7,7,0,4,4,4,,,,,,,,,,,,,,,,,,,,,,,,,,,,,,,,,,,,,,,,,,,,,,,,,,,,,,,719.7053404330009,None,719.7053404330009,None,719.7053404330009,None,c,1,1.4915837700009433,721.2380247020001,None,721.2380247020001,None,721.2380247020001,None,722.8057003920012,None,722.8057003920012,None,722.8057003920012,None,722.8057003920012,None,,,,,,,,,,,,,,,,,,,,,,,,,,,,,,,,,,,,,,,,,,,,001,81,2020_Feb_06_1057,spring_faces,3.1.5,59.936288923822886,
condition files/Stage1_2.xlsx,,T4,B4,m,"['c', 'm']","['Clue', 'Monopoly']","[-0.15, 0.5]","[0.15, 0.5]",1,1,,,,,,,,,0,7,7,7,0,5,5,7,,,,,,,,,,,,,,,,,,,,,,,,,,,,,,,,,,,,,,,,,,,,,,,,,,,,,,,724.7546702959999,None,724.7546702959999,None,724.7546702959999,None,m,1,0.8885793539993756,726.304965964001,None,726.304965964001,None,726.304965964001,None,727.2558532060002,None,727.2558532060002,None,727.2558532060002,None,727.2558532060002,None,,,,,,,,,,,,,,,,,,,,,,,,,,,,,,,,,,,,,,,,,,,,001,81,2020_Feb_06_1057,spring_faces,3.1.5,59.936288923822886,
condition files/Stage1_2.xlsx,,T2,B1,c,"['c', 'm']","['Clue', 'Monopoly']","[-0.15, 0.5]","[0.15, 0.5]",1,1,,,,,,,,,0,7,7,7,0,6,6,1,,,,,,,,,,,,,,,,,,,,,,,,,,,,,,,,,,,,,,,,,,,,,,,,,,,,,,,729.2218908679997,None,729.2218908679997,None,729.2218908679997,None,c,1,1.2841509480003879,730.7573833150009,None,730.7573833150009,None,730.7573833150009,None,732.1058992130011,None,732.1058992130011,None,732.1058992130011,None,732.1058992130011,None,,,,,,,,,,,,,,,,,,,,,,,,,,,,,,,,,,,,,,,,,,,,001,81,2020_Feb_06_1057,spring_faces,3.1.5,59.936288923822886,
condition files/Stage1_2.xlsx,,B2,T2,m,"['c', 'm']","['Clue', 'Monopoly']","[-0.15, 0.5]","[0.15, 0.5]",1,1,,,,,,,,,0,7,7,7,0,7,7,3,,,,,,,,,,,,,,,,,,,,,,,,,,,,,,,,,,,,,,,,,,,,,,,,,,,,,,,734.0719784420007,None,734.0719784420007,None,734.0719784420007,None,m,1,1.5405988910006272,735.6049898390002,None,735.6049898390002,None,735.6049898390002,None,737.2057337939996,None,737.2057337939996,None,737.2057337939996,None,737.2057337939996,None,,,,,,,,,,,,,,,,,,,,,,,,,,,,,,,,,,,,,,,,,,,,001,81,2020_Feb_06_1057,spring_faces,3.1.5,59.936288923822886,
condition files/Stage1_1.xlsx,,T2,B2,m,"['c', 'm']","['Clue', 'Monopoly']","[-0.15, 0.5]","[0.15, 0.5]",1,1,,,,,,,,,0,8,8,8,0,0,0,3,,,,,,,,,,,,,,,,,,,,,,,,,,,,,,,,,,,,,,,,,,,,,,,,,,,,,,,739.1888243430012,None,739.1888243430012,None,739.1888243430012,None,m,1,0.7439519620002102,740.7216624800012,None,740.7216624800012,None,740.7216624800012,None,741.5220471540006,None,741.5220471540006,None,741.5220471540006,None,741.5220471540006,None,,,,,,,,,,,,,,,,,,,,,,,,,,,,,,,,,,,,,,,,,,,,001,81,2020_Feb_06_1057,spring_faces,3.1.5,59.936288923822886,
condition files/Stage1_1.xlsx,,B4,T4,m,"['c', 'm']","['Clue', 'Monopoly']","[-0.15, 0.5]","[0.15, 0.5]",1,1,,,,,,,,,0,8,8,8,0,1,1,7,,,,,,,,,,,,,,,,,,,,,,,,,,,,,,,,,,,,,,,,,,,,,,,,,,,,,,,743.4884493930012,None,743.4884493930012,None,743.4884493930012,None,m,1,2.2026779689986142,745.0388574210001,None,745.0388574210001,None,745.0388574210001,None,747.3059207979995,None,747.3059207979995,None,747.3059207979995,None,747.3059207979995,None,,,,,,,,,,,,,,,,,,,,,,,,,,,,,,,,,,,,,,,,,,,,001,81,2020_Feb_06_1057,spring_faces,3.1.5,59.936288923822886,
condition files/Stage1_1.xlsx,,T3,B4,c,"['c', 'm']","['Clue', 'Monopoly']","[-0.15, 0.5]","[0.15, 0.5]",1,1,,,,,,,,,0,8,8,8,0,2,2,5,,,,,,,,,,,,,,,,,,,,,,,,,,,,,,,,,,,,,,,,,,,,,,,,,,,,,,,749.272201318,None,749.272201318,None,749.272201318,None,c,1,0.7230355600004259,750.8065729729997,None,750.8065729729997,None,750.8065729729997,None,751.5911878979996,None,751.5911878979996,None,751.5911878979996,None,751.5911878979996,None,,,,,,,,,,,,,,,,,,,,,,,,,,,,,,,,,,,,,,,,,,,,001,81,2020_Feb_06_1057,spring_faces,3.1.5,59.936288923822886,
condition files/Stage1_1.xlsx,,B3,T3,c,"['c', 'm']","['Clue', 'Monopoly']","[-0.15, 0.5]","[0.15, 0.5]",1,1,,,,,,,,,0,8,8,8,0,3,3,4,,,,,,,,,,,,,,,,,,,,,,,,,,,,,,,,,,,,,,,,,,,,,,,,,,,,,,,753.5547279320008,None,753.5547279320008,None,753.5547279320008,None,c,1,0.6639523140001984,755.1055768680008,None,755.1055768680008,None,755.1055768680008,None,755.8217931720001,None,755.8217931720001,None,755.8217931720001,None,755.8217931720001,None,,,,,,,,,,,,,,,,,,,,,,,,,,,,,,,,,,,,,,,,,,,,001,81,2020_Feb_06_1057,spring_faces,3.1.5,59.936288923822886,
condition files/Stage1_1.xlsx,,T4,B3,m,"['c', 'm']","['Clue', 'Monopoly']","[-0.15, 0.5]","[0.15, 0.5]",1,1,,,,,,,,,0,8,8,8,0,4,4,6,,,,,,,,,,,,,,,,,,,,,,,,,,,,,,,,,,,,,,,,,,,,,,,,,,,,,,,757.7885591590011,None,757.7885591590011,None,757.7885591590011,None,m,1,1.101695020999614,759.3238522300007,None,759.3238522300007,None,759.3238522300007,None,760.4902903780012,None,760.4902903780012,None,760.4902903780012,None,760.4902903780012,None,,,,,,,,,,,,,,,,,,,,,,,,,,,,,,,,,,,,,,,,,,,,001,81,2020_Feb_06_1057,spring_faces,3.1.5,59.936288923822886,
condition files/Stage1_1.xlsx,,T1,B1,c,"['c', 'm']","['Clue', 'Monopoly']","[-0.15, 0.5]","[0.15, 0.5]",1,1,,,,,,,,,0,8,8,8,0,5,5,0,,,,,,,,,,,,,,,,,,,,,,,,,,,,,,,,,,,,,,,,,,,,,,,,,,,,,,,762.4551997589997,None,762.4551997589997,None,762.4551997589997,None,c,1,1.0920279729998583,764.0055775580013,None,764.0055775580013,None,764.0055775580013,None,765.1563684809998,None,765.1563684809998,None,765.1563684809998,None,765.1563684809998,None,,,,,,,,,,,,,,,,,,,,,,,,,,,,,,,,,,,,,,,,,,,,001,81,2020_Feb_06_1057,spring_faces,3.1.5,59.936288923822886,
condition files/Stage1_1.xlsx,,B1,T2,c,"['c', 'm']","['Clue', 'Monopoly']","[-0.15, 0.5]","[0.15, 0.5]",1,1,,,,,,,,,0,8,8,8,0,6,6,1,,,,,,,,,,,,,,,,,,,,,,,,,,,,,,,,,,,,,,,,,,,,,,,,,,,,,,,767.1219423909997,None,767.1219423909997,None,767.1219423909997,None,c,1,1.2744869600010134,768.6551286460008,None,768.6551286460008,None,768.6551286460008,None,769.9883476229998,None,769.9883476229998,None,769.9883476229998,None,769.9883476229998,None,,,,,,,,,,,,,,,,,,,,,,,,,,,,,,,,,,,,,,,,,,,,001,81,2020_Feb_06_1057,spring_faces,3.1.5,59.936288923822886,
condition files/Stage1_1.xlsx,,B2,T1,m,"['c', 'm']","['Clue', 'Monopoly']","[-0.15, 0.5]","[0.15, 0.5]",1,1,,,,,,,,,0,8,8,8,0,7,7,2,,,,,,,,,,,,,,,,,,,,,,,,,,,,,,,,,,,,,,,,,,,,,,,,,,,,,,,771.9550980289996,None,771.9550980289996,None,771.9550980289996,None,m,1,0.712053070001275,773.4895075539998,None,773.4895075539998,None,773.4895075539998,None,774.2555021859998,None,774.2555021859998,None,774.2555021859998,None,774.2555021859998,None,,,,,,,,,,,,,,,,,,,,,,,,,,,,,,,,,,,,,,,,,,,,001,81,2020_Feb_06_1057,spring_faces,3.1.5,59.936288923822886,
condition files/Stage1_2.xlsx,,B1,T1,c,"['c', 'm']","['Clue', 'Monopoly']","[-0.15, 0.5]","[0.15, 0.5]",1,1,,,,,,,,,0,9,9,9,0,0,0,0,,,,,,,,,,,,,,,,,,,,,,,,,,,,,,,,,,,,,,,,,,,,,,,,,,,,,,,776.2386616539998,None,776.2386616539998,None,776.2386616539998,None,c,1,0.7982729019986436,777.7712824680011,None,777.7712824680011,None,777.7712824680011,None,778.6390291140006,None,778.6390291140006,None,778.6390291140006,None,778.6390291140006,None,,,,,,,,,,,,,,,,,,,,,,,,,,,,,,,,,,,,,,,,,,,,001,81,2020_Feb_06_1057,spring_faces,3.1.5,59.936288923822886,
condition files/Stage1_2.xlsx,,B2,T2,m,"['c', 'm']","['Clue', 'Monopoly']","[-0.15, 0.5]","[0.15, 0.5]",1,1,,,,,,,,,0,9,9,9,0,1,1,3,,,,,,,,,,,,,,,,,,,,,,,,,,,,,,,,,,,,,,,,,,,,,,,,,,,,,,,780.5885767560003,None,780.5885767560003,None,780.5885767560003,None,m,1,1.2776911450000625,782.1238602570002,None,782.1238602570002,None,782.1238602570002,None,783.4717092870005,None,783.4717092870005,None,783.4717092870005,None,783.4717092870005,None,,,,,,,,,,,,,,,,,,,,,,,,,,,,,,,,,,,,,,,,,,,,001,81,2020_Feb_06_1057,spring_faces,3.1.5,59.936288923822886,
condition files/Stage1_2.xlsx,,T1,B2,m,"['c', 'm']","['Clue', 'Monopoly']","[-0.15, 0.5]","[0.15, 0.5]",1,1,,,,,,,,,0,9,9,9,0,2,2,2,,,,,,,,,,,,,,,,,,,,,,,,,,,,,,,,,,,,,,,,,,,,,,,,,,,,,,,785.421880674,None,785.421880674,None,785.421880674,None,m,1,0.7345524619995558,786.9549701980004,None,786.9549701980004,None,786.9549701980004,None,787.7549552270002,None,787.7549552270002,None,787.7549552270002,None,787.7549552270002,None,,,,,,,,,,,,,,,,,,,,,,,,,,,,,,,,,,,,,,,,,,,,001,81,2020_Feb_06_1057,spring_faces,3.1.5,59.936288923822886,
condition files/Stage1_2.xlsx,,B4,T3,c,"['c', 'm']","['Clue', 'Monopoly']","[-0.15, 0.5]","[0.15, 0.5]",1,1,,,,,,,,,0,9,9,9,0,3,3,5,,,,,,,,,,,,,,,,,,,,,,,,,,,,,,,,,,,,,,,,,,,,,,,,,,,,,,,789.7217666349998,None,789.7217666349998,None,789.7217666349998,None,c,1,1.8261752130001696,791.2553212650009,None,791.2553212650009,None,791.2553212650009,None,793.1382232980004,None,793.1382232980004,None,793.1382232980004,None,793.1382232980004,None,,,,,,,,,,,,,,,,,,,,,,,,,,,,,,,,,,,,,,,,,,,,001,81,2020_Feb_06_1057,spring_faces,3.1.5,59.936288923822886,
condition files/Stage1_2.xlsx,,T4,B4,m,"['c', 'm']","['Clue', 'Monopoly']","[-0.15, 0.5]","[0.15, 0.5]",1,1,,,,,,,,,0,9,9,9,0,4,4,7,,,,,,,,,,,,,,,,,,,,,,,,,,,,,,,,,,,,,,,,,,,,,,,,,,,,,,,795.1047430959998,None,795.1047430959998,None,795.1047430959998,None,m,1,1.5616807290007273,796.6558162219999,None,796.6558162219999,None,796.6558162219999,None,798.2891580590012,None,798.2891580590012,None,798.2891580590012,None,798.2891580590012,None,,,,,,,,,,,,,,,,,,,,,,,,,,,,,,,,,,,,,,,,,,,,001,81,2020_Feb_06_1057,spring_faces,3.1.5,59.936288923822886,
condition files/Stage1_2.xlsx,,T3,B3,c,"['c', 'm']","['Clue', 'Monopoly']","[-0.15, 0.5]","[0.15, 0.5]",1,1,,,,,,,,,0,9,9,9,0,5,5,4,,,,,,,,,,,,,,,,,,,,,,,,,,,,,,,,,,,,,,,,,,,,,,,,,,,,,,,800.2380075150004,None,800.2380075150004,None,800.2380075150004,None,c,1,0.9560354389996064,801.7735896170007,None,801.7735896170007,None,801.7735896170007,None,802.8050857860007,None,802.8050857860007,None,802.8050857860007,None,802.8050857860007,None,,,,,,,,,,,,,,,,,,,,,,,,,,,,,,,,,,,,,,,,,,,,001,81,2020_Feb_06_1057,spring_faces,3.1.5,59.936288923822886,
condition files/Stage1_2.xlsx,,B3,T4,m,"['c', 'm']","['Clue', 'Monopoly']","[-0.15, 0.5]","[0.15, 0.5]",1,1,,,,,,,,,0,9,9,9,0,6,6,6,,,,,,,,,,,,,,,,,,,,,,,,,,,,,,,,,,,,,,,,,,,,,,,,,,,,,,,804.7547028810013,None,804.7547028810013,None,804.7547028810013,None,m,1,1.481084789000306,806.2884646209995,None,806.2884646209995,None,806.2884646209995,None,807.8235223870006,None,807.8235223870006,None,807.8235223870006,None,807.8235223870006,None,,,,,,,,,,,,,,,,,,,,,,,,,,,,,,,,,,,,,,,,,,,,001,81,2020_Feb_06_1057,spring_faces,3.1.5,59.936288923822886,
condition files/Stage1_2.xlsx,,T2,B1,c,"['c', 'm']","['Clue', 'Monopoly']","[-0.15, 0.5]","[0.15, 0.5]",1,1,,,,,,,,,0,9,9,9,0,7,7,1,,,,,,,,,,,,,,,,,,,,,,,,,,,,,,,,,,,,,,,,,,,,,,,,,,,,,,,809.7889198090006,None,809.7889198090006,None,809.7889198090006,None,c,1,1.6299707739999576,811.3235760819998,None,811.3235760819998,None,811.3235760819998,None,813.0049563840012,None,813.0049563840012,None,813.0049563840012,None,813.0049563840012,None,,,,,,,,,,,,,,,,,,,,,,,,,,,,,,,,,,,,,,,,,,,,001,81,2020_Feb_06_1057,spring_faces,3.1.5,59.936288923822886,
condition files/Stage1_1.xlsx,,B1,T2,c,"['c', 'm']","['Clue', 'Monopoly']","[-0.15, 0.5]","[0.15, 0.5]",1,1,,,,,,,,,0,10,10,10,0,0,0,1,,,,,,,,,,,,,,,,,,,,,,,,,,,,,,,,,,,,,,,,,,,,,,,,,,,,,,,814.9882390370012,None,814.9882390370012,None,814.9882390370012,None,c,1,1.1508988219993626,816.5226042590011,None,816.5226042590011,None,816.5226042590011,None,817.7388639980009,None,817.7388639980009,None,817.7388639980009,None,817.7388639980009,None,,,,,,,,,,,,,,,,,,,,,,,,,,,,,,,,,,,,,,,,,,,,001,81,2020_Feb_06_1057,spring_faces,3.1.5,59.936288923822886,
condition files/Stage1_1.xlsx,,T4,B3,m,"['c', 'm']","['Clue', 'Monopoly']","[-0.15, 0.5]","[0.15, 0.5]",1,1,,,,,,,,,0,10,10,10,0,1,1,6,,,,,,,,,,,,,,,,,,,,,,,,,,,,,,,,,,,,,,,,,,,,,,,,,,,,,,,819.7051808240003,None,819.7051808240003,None,819.7051808240003,None,m,1,1.0250255030005064,821.2405942720006,None,821.2405942720006,None,821.2405942720006,None,822.3247564599997,None,822.3247564599997,None,822.3247564599997,None,822.3247564599997,None,,,,,,,,,,,,,,,,,,,,,,,,,,,,,,,,,,,,,,,,,,,,001,81,2020_Feb_06_1057,spring_faces,3.1.5,59.936288923822886,
condition files/Stage1_1.xlsx,,T2,B2,m,"['c', 'm']","['Clue', 'Monopoly']","[-0.15, 0.5]","[0.15, 0.5]",1,1,,,,,,,,,0,10,10,10,0,2,2,3,,,,,,,,,,,,,,,,,,,,,,,,,,,,,,,,,,,,,,,,,,,,,,,,,,,,,,,824.2885836650012,None,824.2885836650012,None,824.2885836650012,None,m,1,1.0521257689997583,825.8214144229996,None,825.8214144229996,None,825.8214144229996,None,826.9390607110008,None,826.9390607110008,None,826.9390607110008,None,826.9390607110008,None,,,,,,,,,,,,,,,,,,,,,,,,,,,,,,,,,,,,,,,,,,,,001,81,2020_Feb_06_1057,spring_faces,3.1.5,59.936288923822886,
condition files/Stage1_1.xlsx,,T3,B4,c,"['c', 'm']","['Clue', 'Monopoly']","[-0.15, 0.5]","[0.15, 0.5]",1,1,,,,,,,,,0,10,10,10,0,3,3,5,,,,,,,,,,,,,,,,,,,,,,,,,,,,,,,,,,,,,,,,,,,,,,,,,,,,,,,828.9051268060002,None,828.9051268060002,None,828.9051268060002,None,c,1,1.4899885970007745,830.4556136849997,None,830.4556136849997,None,830.4556136849997,None,832.0073769960009,None,832.0073769960009,None,832.0073769960009,None,832.0073769960009,None,,,,,,,,,,,,,,,,,,,,,,,,,,,,,,,,,,,,,,,,,,,,001,81,2020_Feb_06_1057,spring_faces,3.1.5,59.936288923822886,
condition files/Stage1_1.xlsx,,B2,T1,m,"['c', 'm']","['Clue', 'Monopoly']","[-0.15, 0.5]","[0.15, 0.5]",1,1,,,,,,,,,0,10,10,10,0,4,4,2,,,,,,,,,,,,,,,,,,,,,,,,,,,,,,,,,,,,,,,,,,,,,,,,,,,,,,,833.9715437210007,None,833.9715437210007,None,833.9715437210007,None,m,1,0.9839731640004175,835.5055256200003,None,835.5055256200003,None,835.5055256200003,None,836.5716038889996,None,836.5716038889996,None,836.5716038889996,None,836.5716038889996,None,,,,,,,,,,,,,,,,,,,,,,,,,,,,,,,,,,,,,,,,,,,,001,81,2020_Feb_06_1057,spring_faces,3.1.5,59.936288923822886,
condition files/Stage1_1.xlsx,,B4,T4,m,"['c', 'm']","['Clue', 'Monopoly']","[-0.15, 0.5]","[0.15, 0.5]",1,1,,,,,,,,,0,10,10,10,0,5,5,7,,,,,,,,,,,,,,,,,,,,,,,,,,,,,,,,,,,,,,,,,,,,,,,,,,,,,,,838.5214553200012,None,838.5214553200012,None,838.5214553200012,None,m,1,1.392964397000469,840.0565537970006,None,840.0565537970006,None,840.0565537970006,None,841.5053297639997,None,841.5053297639997,None,841.5053297639997,None,841.5053297639997,None,,,,,,,,,,,,,,,,,,,,,,,,,,,,,,,,,,,,,,,,,,,,001,81,2020_Feb_06_1057,spring_faces,3.1.5,59.936288923822886,
condition files/Stage1_1.xlsx,,B3,T3,c,"['c', 'm']","['Clue', 'Monopoly']","[-0.15, 0.5]","[0.15, 0.5]",1,1,,,,,,,,,0,10,10,10,0,6,6,4,,,,,,,,,,,,,,,,,,,,,,,,,,,,,,,,,,,,,,,,,,,,,,,,,,,,,,,843.4721563699995,None,843.4721563699995,None,843.4721563699995,None,c,1,2.4611057249985606,845.004527252001,None,845.004527252001,None,845.004527252001,None,847.5223486960012,None,847.5223486960012,None,847.5223486960012,None,847.5223486960012,None,,,,,,,,,,,,,,,,,,,,,,,,,,,,,,,,,,,,,,,,,,,,001,81,2020_Feb_06_1057,spring_faces,3.1.5,59.936288923822886,
condition files/Stage1_1.xlsx,,T1,B1,c,"['c', 'm']","['Clue', 'Monopoly']","[-0.15, 0.5]","[0.15, 0.5]",1,1,,,,,,,,,0,10,10,10,0,7,7,0,,,,,,,,,,,,,,,,,,,,,,,,,,,,,,,,,,,,,,,,,,,,,,,,,,,,,,,849.488351590001,None,849.488351590001,None,849.488351590001,None,c,1,1.8038038609993237,851.0217628720011,None,851.0217628720011,None,851.0217628720011,None,852.8890671630006,None,852.8890671630006,None,852.8890671630006,None,852.8890671630006,None,,,,,,,,,,,,,,,,,,,,,,,,,,,,,,,,,,,,,,,,,,,,001,81,2020_Feb_06_1057,spring_faces,3.1.5,59.936288923822886,
condition files/Stage1_2.xlsx,,B3,T4,m,"['c', 'm']","['Clue', 'Monopoly']","[-0.15, 0.5]","[0.15, 0.5]",1,1,,,,,,,,,0,11,11,11,0,0,0,6,,,,,,,,,,,,,,,,,,,,,,,,,,,,,,,,,,,,,,,,,,,,,,,,,,,,,,,854.8719170190006,None,854.8719170190006,None,854.8719170190006,None,m,1,1.3965077349985222,856.4050882190013,None,856.4050882190013,None,856.4050882190013,None,857.8553933180001,None,857.8553933180001,None,857.8553933180001,None,857.8553933180001,None,,,,,,,,,,,,,,,,,,,,,,,,,,,,,,,,,,,,,,,,,,,,001,81,2020_Feb_06_1057,spring_faces,3.1.5,59.936288923822886,
condition files/Stage1_2.xlsx,,B1,T1,c,"['c', 'm']","['Clue', 'Monopoly']","[-0.15, 0.5]","[0.15, 0.5]",1,1,,,,,,,,,0,11,11,11,0,1,1,0,,,,,,,,,,,,,,,,,,,,,,,,,,,,,,,,,,,,,,,,,,,,,,,,,,,,,,,859.8219324760003,None,859.8219324760003,None,859.8219324760003,None,c,1,0.8444232559995726,861.3570980180002,None,861.3570980180002,None,861.3570980180002,None,862.2580111630004,None,862.2580111630004,None,862.2580111630004,None,862.2580111630004,None,,,,,,,,,,,,,,,,,,,,,,,,,,,,,,,,,,,,,,,,,,,,001,81,2020_Feb_06_1057,spring_faces,3.1.5,59.936288923822886,
condition files/Stage1_2.xlsx,,B4,T3,c,"['c', 'm']","['Clue', 'Monopoly']","[-0.15, 0.5]","[0.15, 0.5]",1,1,,,,,,,,,0,11,11,11,0,2,2,5,,,,,,,,,,,,,,,,,,,,,,,,,,,,,,,,,,,,,,,,,,,,,,,,,,,,,,,864.221628485001,None,864.221628485001,None,864.221628485001,None,c,1,0.9421631709992653,865.7714413740005,None,865.7714413740005,None,865.7714413740005,None,866.7720352820006,None,866.7720352820006,None,866.7720352820006,None,866.7720352820006,None,,,,,,,,,,,,,,,,,,,,,,,,,,,,,,,,,,,,,,,,,,,,001,81,2020_Feb_06_1057,spring_faces,3.1.5,59.936288923822886,
condition files/Stage1_2.xlsx,,T2,B1,c,"['c', 'm']","['Clue', 'Monopoly']","[-0.15, 0.5]","[0.15, 0.5]",1,1,,,,,,,,,0,11,11,11,0,3,3,1,,,,,,,,,,,,,,,,,,,,,,,,,,,,,,,,,,,,,,,,,,,,,,,,,,,,,,,868.7387178020008,None,868.7387178020008,None,868.7387178020008,None,c,1,3.3534170869988884,870.2721338199999,None,870.2721338199999,None,870.2721338199999,None,873.6886673510007,None,873.6886673510007,None,873.6886673510007,None,873.6886673510007,None,,,,,,,,,,,,,,,,,,,,,,,,,,,,,,,,,,,,,,,,,,,,001,81,2020_Feb_06_1057,spring_faces,3.1.5,59.936288923822886,
condition files/Stage1_2.xlsx,,B2,T2,m,"['c', 'm']","['Clue', 'Monopoly']","[-0.15, 0.5]","[0.15, 0.5]",1,1,,,,,,,,,0,11,11,11,0,4,4,3,,,,,,,,,,,,,,,,,,,,,,,,,,,,,,,,,,,,,,,,,,,,,,,,,,,,,,,875.6549266480006,None,875.6549266480006,None,875.6549266480006,None,m,1,5.941269912998905,877.1883555009999,None,877.1883555009999,None,877.1883555009999,None,883.1886943470008,None,883.1886943470008,None,883.1886943470008,None,883.1886943470008,None,,,,,,,,,,,,,,,,,,,,,,,,,,,,,,,,,,,,,,,,,,,,001,81,2020_Feb_06_1057,spring_faces,3.1.5,59.936288923822886,
condition files/Stage1_2.xlsx,,T4,B4,m,"['c', 'm']","['Clue', 'Monopoly']","[-0.15, 0.5]","[0.15, 0.5]",1,1,,,,,,,,,0,11,11,11,0,5,5,7,,,,,,,,,,,,,,,,,,,,,,,,,,,,,,,,,,,,,,,,,,,,,,,,,,,,,,,885.1549630380005,None,885.1549630380005,None,885.1549630380005,None,m,1,1.352500709999731,886.6890540020004,None,886.6890540020004,None,886.6890540020004,None,888.1052867490007,None,888.1052867490007,None,888.1052867490007,None,888.1052867490007,None,,,,,,,,,,,,,,,,,,,,,,,,,,,,,,,,,,,,,,,,,,,,001,81,2020_Feb_06_1057,spring_faces,3.1.5,59.936288923822886,
condition files/Stage1_2.xlsx,,T3,B3,c,"['c', 'm']","['Clue', 'Monopoly']","[-0.15, 0.5]","[0.15, 0.5]",1,1,,,,,,,,,0,11,11,11,0,6,6,4,,,,,,,,,,,,,,,,,,,,,,,,,,,,,,,,,,,,,,,,,,,,,,,,,,,,,,,890.071327648001,None,890.071327648001,None,890.071327648001,None,c,1,1.4284934880015498,891.605009113001,None,891.605009113001,None,891.605009113001,None,893.0883070549999,None,893.0883070549999,None,893.0883070549999,None,893.0883070549999,None,,,,,,,,,,,,,,,,,,,,,,,,,,,,,,,,,,,,,,,,,,,,001,81,2020_Feb_06_1057,spring_faces,3.1.5,59.936288923822886,
condition files/Stage1_2.xlsx,,T1,B2,m,"['c', 'm']","['Clue', 'Monopoly']","[-0.15, 0.5]","[0.15, 0.5]",1,1,,,,,,,,,0,11,11,11,0,7,7,2,,,,,,,,,,,,,,,,,,,,,,,,,,,,,,,,,,,,,,,,,,,,,,,,,,,,,,,895.0551987259996,None,895.0551987259996,None,895.0551987259996,None,m,1,0.9412479109996639,896.5883470430008,None,896.5883470430008,None,896.5883470430008,None,897.604934293001,None,897.604934293001,None,897.604934293001,None,897.604934293001,None,,,,,,,,,,,,,,,,,,,,,,,,,,,,,,,,,,,,,,,,,,,,001,81,2020_Feb_06_1057,spring_faces,3.1.5,59.936288923822886,
,,,,,,,,,,,,,,,,,,,,,,,,,,,,,,,,,,,,,,,,,,,,,,,,,,,,,,,,,,,,,,,,,,,,,,,,,,,,,,,,,,,,,,,,,,,,,,,,,,,,,,,,,,,,,,,,899.5719792450009,None,space,7.8216497150006035,904.5719112039997,None,,,,,,,,,,,,,,,,,,,,,,,,,,,,,,001,81,2020_Feb_06_1057,spring_faces,3.1.5,59.936288923822886,
condition files/Stage2_1.xlsx,,T1,B1,s,"['s', 'r']","['Stratego', 'Risk']","[-0.15, 0.5]","[0.15, 0.5]",1,1,,,,,,,,,,,,,,,,,0,0,0,0,0,0,0,2,,,,,,,,,,,,,,,,,,,,,,,,,,,,,,,,,,,,,,,,,,,,,,,912.4555856050001,None,912.4555856050001,None,912.4555856050001,None,s,1,1.5897588490006456,913.9717986759997,None,913.9717986759997,None,913.9717986759997,None,915.6380326669996,None,915.6380326669996,None,915.6380326669996,None,915.6380326669996,None,,,,,,,,,,,,,,,904.5719112039997,None,,,,,,,,,,,,,,,,,,,,,,,,,,,,001,81,2020_Feb_06_1057,spring_faces,3.1.5,59.936288923822886,
condition files/Stage2_1.xlsx,,B2,T2,r,"['s', 'r']","['Stratego', 'Risk']","[-0.15, 0.5]","[0.15, 0.5]",1,1,,,,,,,,,,,,,,,,,0,0,0,0,0,1,1,3,,,,,,,,,,,,,,,,,,,,,,,,,,,,,,,,,,,,,,,,,,,,,,,917.5884991180001,None,917.5884991180001,None,917.5884991180001,None,r,1,1.095463022000331,919.1221172600008,None,919.1221172600008,None,919.1221172600008,None,920.2733002240011,None,920.2733002240011,None,920.2733002240011,None,920.2733002240011,None,,,,,,,,,,,,,,,,,,,,,,,,,,,,,,,,,,,,,,,,,,,,001,81,2020_Feb_06_1057,spring_faces,3.1.5,59.936288923822886,
condition files/Stage2_1.xlsx,,T3,B3,s,"['s', 'r']","['Stratego', 'Risk']","[-0.15, 0.5]","[0.15, 0.5]",1,1,,,,,,,,,,,,,,,,,0,0,0,0,0,2,2,4,,,,,,,,,,,,,,,,,,,,,,,,,,,,,,,,,,,,,,,,,,,,,,,922.2383149040006,None,922.2383149040006,None,922.2383149040006,None,s,1,0.9409767199995258,923.7886271030011,None,923.7886271030011,None,923.7886271030011,None,924.7899567739996,None,924.7899567739996,None,924.7899567739996,None,924.7899567739996,None,,,,,,,,,,,,,,,,,,,,,,,,,,,,,,,,,,,,,,,,,,,,001,81,2020_Feb_06_1057,spring_faces,3.1.5,59.936288923822886,
condition files/Stage2_1.xlsx,,B4,T4,r,"['s', 'r']","['Stratego', 'Risk']","[-0.15, 0.5]","[0.15, 0.5]",1,1,,,,,,,,,,,,,,,,,0,0,0,0,0,3,3,5,,,,,,,,,,,,,,,,,,,,,,,,,,,,,,,,,,,,,,,,,,,,,,,926.7546026900009,None,926.7546026900009,None,926.7546026900009,None,r,1,0.9686567930002639,928.288862673001,None,928.288862673001,None,928.288862673001,None,929.324586488,None,929.324586488,None,929.324586488,None,929.324586488,None,,,,,,,,,,,,,,,,,,,,,,,,,,,,,,,,,,,,,,,,,,,,001,81,2020_Feb_06_1057,spring_faces,3.1.5,59.936288923822886,
condition files/Stage2_1.xlsx,,B6,T6,r,"['s', 'r']","['Stratego', 'Risk']","[-0.15, 0.5]","[0.15, 0.5]",1,1,,,,,,,,,,,,,,,,,0,0,0,0,0,4,4,1,,,,,,,,,,,,,,,,,,,,,,,,,,,,,,,,,,,,,,,,,,,,,,,931.288978421001,None,931.288978421001,None,931.288978421001,None,s,0,2.2436638359995413,932.8219579380011,None,932.8219579380011,None,932.8219579380011,None,935.1217167740006,None,935.1217167740006,None,935.1217167740006,None,935.1217167740006,None,,,,,,,,,,,,,,,,,,,,,,,,,,,,,,,,,,,,,,,,,,,,001,81,2020_Feb_06_1057,spring_faces,3.1.5,59.936288923822886,
condition files/Stage2_1.xlsx,,T5,B5,s,"['s', 'r']","['Stratego', 'Risk']","[-0.15, 0.5]","[0.15, 0.5]",1,1,,,,,,,,,,,,,,,,,0,0,0,0,0,5,5,0,,,,,,,,,,,,,,,,,,,,,,,,,,,,,,,,,,,,,,,,,,,,,,,937.0884347130004,None,937.0884347130004,None,937.0884347130004,None,s,1,2.489751872999477,938.6718493460003,None,938.6718493460003,None,938.6718493460003,None,941.2214814890003,None,941.2214814890003,None,941.2214814890003,None,941.2214814890003,None,,,,,,,,,,,,,,,,,,,,,,,,,,,,,,,,,,,,,,,,,,,,001,81,2020_Feb_06_1057,spring_faces,3.1.5,59.936288923822886,
condition files/Stage2_2.xlsx,,T4,B4,r,"['s', 'r']","['Stratego', 'Risk']","[-0.15, 0.5]","[0.15, 0.5]",1,1,,,,,,,,,,,,,,,,,0,1,1,1,0,0,0,5,,,,,,,,,,,,,,,,,,,,,,,,,,,,,,,,,,,,,,,,,,,,,,,943.2050851310005,None,943.2050851310005,None,943.2050851310005,None,r,1,1.6213858049995906,944.7402378760007,None,944.7402378760007,None,944.7402378760007,None,946.4387482749999,None,946.4387482749999,None,946.4387482749999,None,946.4387482749999,None,,,,,,,,,,,,,,,,,,,,,,,,,,,,,,,,,,,,,,,,,,,,001,81,2020_Feb_06_1057,spring_faces,3.1.5,59.936288923822886,
condition files/Stage2_2.xlsx,,T6,B6,r,"['s', 'r']","['Stratego', 'Risk']","[-0.15, 0.5]","[0.15, 0.5]",1,1,,,,,,,,,,,,,,,,,0,1,1,1,0,1,1,1,,,,,,,,,,,,,,,,,,,,,,,,,,,,,,,,,,,,,,,,,,,,,,,948.3883294020006,None,948.3883294020006,None,948.3883294020006,None,r,1,1.2557665570002428,949.9218079430002,None,949.9218079430002,None,949.9218079430002,None,951.2385368799996,None,951.2385368799996,None,951.2385368799996,None,951.2385368799996,None,,,,,,,,,,,,,,,,,,,,,,,,,,,,,,,,,,,,,,,,,,,,001,81,2020_Feb_06_1057,spring_faces,3.1.5,59.936288923822886,
condition files/Stage2_2.xlsx,,T2,B2,r,"['s', 'r']","['Stratego', 'Risk']","[-0.15, 0.5]","[0.15, 0.5]",1,1,,,,,,,,,,,,,,,,,0,1,1,1,0,2,2,3,,,,,,,,,,,,,,,,,,,,,,,,,,,,,,,,,,,,,,,,,,,,,,,953.2052850440004,None,953.2052850440004,None,953.2052850440004,None,r,1,1.0140176080003585,954.7555157790002,None,954.7555157790002,None,954.7555157790002,None,955.8219584130011,None,955.8219584130011,None,955.8219584130011,None,955.8219584130011,None,,,,,,,,,,,,,,,,,,,,,,,,,,,,,,,,,,,,,,,,,,,,001,81,2020_Feb_06_1057,spring_faces,3.1.5,59.936288923822886,
condition files/Stage2_2.xlsx,,B1,T1,s,"['s', 'r']","['Stratego', 'Risk']","[-0.15, 0.5]","[0.15, 0.5]",1,1,,,,,,,,,,,,,,,,,0,1,1,1,0,3,3,2,,,,,,,,,,,,,,,,,,,,,,,,,,,,,,,,,,,,,,,,,,,,,,,957.7883389540011,None,957.7883389540011,None,957.7883389540011,None,s,1,1.1036222389993782,959.3219238640004,None,959.3219238640004,None,959.3219238640004,None,960.5051989640006,None,960.5051989640006,None,960.5051989640006,None,960.5051989640006,None,,,,,,,,,,,,,,,,,,,,,,,,,,,,,,,,,,,,,,,,,,,,001,81,2020_Feb_06_1057,spring_faces,3.1.5,59.936288923822886,
condition files/Stage2_2.xlsx,,B5,T5,s,"['s', 'r']","['Stratego', 'Risk']","[-0.15, 0.5]","[0.15, 0.5]",1,1,,,,,,,,,,,,,,,,,0,1,1,1,0,4,4,0,,,,,,,,,,,,,,,,,,,,,,,,,,,,,,,,,,,,,,,,,,,,,,,962.4551923240006,None,962.4551923240006,None,962.4551923240006,None,r,0,1.4905928240004869,963.9908882050013,None,963.9908882050013,None,963.9908882050013,None,965.5385065130004,None,965.5385065130004,None,965.5385065130004,None,965.5385065130004,None,,,,,,,,,,,,,,,,,,,,,,,,,,,,,,,,,,,,,,,,,,,,001,81,2020_Feb_06_1057,spring_faces,3.1.5,59.936288923822886,
condition files/Stage2_2.xlsx,,B3,T3,s,"['s', 'r']","['Stratego', 'Risk']","[-0.15, 0.5]","[0.15, 0.5]",1,1,,,,,,,,,,,,,,,,,0,1,1,1,0,5,5,4,,,,,,,,,,,,,,,,,,,,,,,,,,,,,,,,,,,,,,,,,,,,,,,967.5050611020006,None,967.5050611020006,None,967.5050611020006,None,s,1,1.5449427690000448,969.0407432050006,None,969.0407432050006,None,969.0407432050006,None,970.638419457001,None,970.638419457001,None,970.638419457001,None,970.638419457001,None,,,,,,,,,,,,,,,,,,,,,,,,,,,,,,,,,,,,,,,,,,,,001,81,2020_Feb_06_1057,spring_faces,3.1.5,59.936288923822886,
condition files/Stage2_1.xlsx,,T1,B1,s,"['s', 'r']","['Stratego', 'Risk']","[-0.15, 0.5]","[0.15, 0.5]",1,1,,,,,,,,,,,,,,,,,0,2,2,2,0,0,0,2,,,,,,,,,,,,,,,,,,,,,,,,,,,,,,,,,,,,,,,,,,,,,,,972.6224613010008,None,972.6224613010008,None,972.6224613010008,None,s,1,1.0381269360004808,974.1554363149999,None,974.1554363149999,None,974.1554363149999,None,975.2554531449996,None,975.2554531449996,None,975.2554531449996,None,975.2554531449996,None,,,,,,,,,,,,,,,,,,,,,,,,,,,,,,,,,,,,,,,,,,,,001,81,2020_Feb_06_1057,spring_faces,3.1.5,59.936288923822886,
condition files/Stage2_1.xlsx,,B4,T4,r,"['s', 'r']","['Stratego', 'Risk']","[-0.15, 0.5]","[0.15, 0.5]",1,1,,,,,,,,,,,,,,,,,0,2,2,2,0,1,1,5,,,,,,,,,,,,,,,,,,,,,,,,,,,,,,,,,,,,,,,,,,,,,,,977.2218034400003,None,977.2218034400003,None,977.2218034400003,None,r,1,1.557486601999699,978.7721118550007,None,978.7721118550007,None,978.7721118550007,None,980.4050679020011,None,980.4050679020011,None,980.4050679020011,None,980.4050679020011,None,,,,,,,,,,,,,,,,,,,,,,,,,,,,,,,,,,,,,,,,,,,,001,81,2020_Feb_06_1057,spring_faces,3.1.5,59.936288923822886,
condition files/Stage2_1.xlsx,,T3,B3,s,"['s', 'r']","['Stratego', 'Risk']","[-0.15, 0.5]","[0.15, 0.5]",1,1,,,,,,,,,,,,,,,,,0,2,2,2,0,2,2,4,,,,,,,,,,,,,,,,,,,,,,,,,,,,,,,,,,,,,,,,,,,,,,,982.3552088410006,None,982.3552088410006,None,982.3552088410006,None,s,1,0.8728193320002902,983.9047328360002,None,983.9047328360002,None,983.9047328360002,None,984.8408286790009,None,984.8408286790009,None,984.8408286790009,None,984.8408286790009,None,,,,,,,,,,,,,,,,,,,,,,,,,,,,,,,,,,,,,,,,,,,,001,81,2020_Feb_06_1057,spring_faces,3.1.5,59.936288923822886,
condition files/Stage2_1.xlsx,,B2,T2,r,"['s', 'r']","['Stratego', 'Risk']","[-0.15, 0.5]","[0.15, 0.5]",1,1,,,,,,,,,,,,,,,,,0,2,2,2,0,3,3,3,,,,,,,,,,,,,,,,,,,,,,,,,,,,,,,,,,,,,,,,,,,,,,,986.8052190750013,None,986.8052190750013,None,986.8052190750013,None,r,1,1.5257546230004664,988.3398689960004,None,988.3398689960004,None,988.3398689960004,None,989.9236373070007,None,989.9236373070007,None,989.9236373070007,None,989.9236373070007,None,,,,,,,,,,,,,,,,,,,,,,,,,,,,,,,,,,,,,,,,,,,,001,81,2020_Feb_06_1057,spring_faces,3.1.5,59.936288923822886,
condition files/Stage2_1.xlsx,,B6,T6,r,"['s', 'r']","['Stratego', 'Risk']","[-0.15, 0.5]","[0.15, 0.5]",1,1,,,,,,,,,,,,,,,,,0,2,2,2,0,4,4,1,,,,,,,,,,,,,,,,,,,,,,,,,,,,,,,,,,,,,,,,,,,,,,,991.8883763149997,None,991.8883763149997,None,991.8883763149997,None,s,0,3.8983515569998417,993.4232017679997,None,993.4232017679997,None,993.4232017679997,None,997.3717237980009,None,997.3717237980009,None,997.3717237980009,None,997.3717237980009,None,,,,,,,,,,,,,,,,,,,,,,,,,,,,,,,,,,,,,,,,,,,,001,81,2020_Feb_06_1057,spring_faces,3.1.5,59.936288923822886,
condition files/Stage2_1.xlsx,,T5,B5,s,"['s', 'r']","['Stratego', 'Risk']","[-0.15, 0.5]","[0.15, 0.5]",1,1,,,,,,,,,,,,,,,,,0,2,2,2,0,5,5,0,,,,,,,,,,,,,,,,,,,,,,,,,,,,,,,,,,,,,,,,,,,,,,,999.3379340600013,None,999.3379340600013,None,999.3379340600013,None,s,1,2.7525209579998773,1000.8890194220012,None,1000.8890194220012,None,1000.8890194220012,None,1003.7052590619996,None,1003.7052590619996,None,1003.7052590619996,None,1003.7052590619996,None,,,,,,,,,,,,,,,,,,,,,,,,,,,,,,,,,,,,,,,,,,,,001,81,2020_Feb_06_1057,spring_faces,3.1.5,59.936288923822886,
condition files/Stage2_2.xlsx,,T6,B6,r,"['s', 'r']","['Stratego', 'Risk']","[-0.15, 0.5]","[0.15, 0.5]",1,1,,,,,,,,,,,,,,,,,0,3,3,3,0,0,0,1,,,,,,,,,,,,,,,,,,,,,,,,,,,,,,,,,,,,,,,,,,,,,,,1005.6888243160001,None,1005.6888243160001,None,1005.6888243160001,None,r,1,1.794871529999,1007.2386311769997,None,1007.2386311769997,None,1007.2386311769997,None,1009.0909870759997,None,1009.0909870759997,None,1009.0909870759997,None,1009.0909870759997,None,,,,,,,,,,,,,,,,,,,,,,,,,,,,,,,,,,,,,,,,,,,,001,81,2020_Feb_06_1057,spring_faces,3.1.5,59.936288923822886,
condition files/Stage2_2.xlsx,,T4,B4,r,"['s', 'r']","['Stratego', 'Risk']","[-0.15, 0.5]","[0.15, 0.5]",1,1,,,,,,,,,,,,,,,,,0,3,3,3,0,1,1,5,,,,,,,,,,,,,,,,,,,,,,,,,,,,,,,,,,,,,,,,,,,,,,,1011.0553190279998,None,1011.0553190279998,None,1011.0553190279998,None,r,1,1.4687465690003592,1012.5888102729996,None,1012.5888102729996,None,1012.5888102729996,None,1014.1222977860007,None,1014.1222977860007,None,1014.1222977860007,None,1014.1222977860007,None,,,,,,,,,,,,,,,,,,,,,,,,,,,,,,,,,,,,,,,,,,,,001,81,2020_Feb_06_1057,spring_faces,3.1.5,59.936288923822886,
condition files/Stage2_2.xlsx,,T2,B2,r,"['s', 'r']","['Stratego', 'Risk']","[-0.15, 0.5]","[0.15, 0.5]",1,1,,,,,,,,,,,,,,,,,0,3,3,3,0,2,2,3,,,,,,,,,,,,,,,,,,,,,,,,,,,,,,,,,,,,,,,,,,,,,,,1016.0885445739996,None,1016.0885445739996,None,1016.0885445739996,None,r,1,1.0118414259995916,1017.6216447699999,None,1017.6216447699999,None,1017.6216447699999,None,1018.6891015070005,None,1018.6891015070005,None,1018.6891015070005,None,1018.6891015070005,None,,,,,,,,,,,,,,,,,,,,,,,,,,,,,,,,,,,,,,,,,,,,001,81,2020_Feb_06_1057,spring_faces,3.1.5,59.936288923822886,
condition files/Stage2_2.xlsx,,B1,T1,s,"['s', 'r']","['Stratego', 'Risk']","[-0.15, 0.5]","[0.15, 0.5]",1,1,,,,,,,,,,,,,,,,,0,3,3,3,0,3,3,2,,,,,,,,,,,,,,,,,,,,,,,,,,,,,,,,,,,,,,,,,,,,,,,1020.6552327130003,None,1020.6552327130003,None,1020.6552327130003,None,s,1,1.0051058959998045,1022.1884580430005,None,1022.1884580430005,None,1022.1884580430005,None,1023.2716547950013,None,1023.2716547950013,None,1023.2716547950013,None,1023.2716547950013,None,,,,,,,,,,,,,,,,,,,,,,,,,,,,,,,,,,,,,,,,,,,,001,81,2020_Feb_06_1057,spring_faces,3.1.5,59.936288923822886,
condition files/Stage2_2.xlsx,,B3,T3,s,"['s', 'r']","['Stratego', 'Risk']","[-0.15, 0.5]","[0.15, 0.5]",1,1,,,,,,,,,,,,,,,,,0,3,3,3,0,4,4,4,,,,,,,,,,,,,,,,,,,,,,,,,,,,,,,,,,,,,,,,,,,,,,,1025.221916292,None,1025.221916292,None,1025.221916292,None,s,1,4.470632058000774,1026.754929844,None,1026.754929844,None,1026.754929844,None,1031.2889996639997,None,1031.2889996639997,None,1031.2889996639997,None,1031.2889996639997,None,,,,,,,,,,,,,,,,,,,,,,,,,,,,,,,,,,,,,,,,,,,,001,81,2020_Feb_06_1057,spring_faces,3.1.5,59.936288923822886,
condition files/Stage2_2.xlsx,,B5,T5,s,"['s', 'r']","['Stratego', 'Risk']","[-0.15, 0.5]","[0.15, 0.5]",1,1,,,,,,,,,,,,,,,,,0,3,3,3,0,5,5,0,,,,,,,,,,,,,,,,,,,,,,,,,,,,,,,,,,,,,,,,,,,,,,,1033.255312151,None,1033.255312151,None,1033.255312151,None,s,1,4.61314464699899,1034.7884116300002,None,1034.7884116300002,None,1034.7884116300002,None,1039.455252326,None,1039.455252326,None,1039.455252326,None,1039.455252326,None,,,,,,,,,,,,,,,,,,,,,,,,,,,,,,,,,,,,,,,,,,,,001,81,2020_Feb_06_1057,spring_faces,3.1.5,59.936288923822886,
condition files/Stage2_1.xlsx,,T1,B1,s,"['s', 'r']","['Stratego', 'Risk']","[-0.15, 0.5]","[0.15, 0.5]",1,1,,,,,,,,,,,,,,,,,0,4,4,4,0,0,0,2,,,,,,,,,,,,,,,,,,,,,,,,,,,,,,,,,,,,,,,,,,,,,,,1041.4384867390008,None,1041.4384867390008,None,1041.4384867390008,None,s,1,1.4208726230008324,1042.9886799469996,None,1042.9886799469996,None,1042.9886799469996,None,1044.4725435440005,None,1044.4725435440005,None,1044.4725435440005,None,1044.4725435440005,None,,,,,,,,,,,,,,,,,,,,,,,,,,,,,,,,,,,,,,,,,,,,001,81,2020_Feb_06_1057,spring_faces,3.1.5,59.936288923822886,
condition files/Stage2_1.xlsx,,B6,T6,r,"['s', 'r']","['Stratego', 'Risk']","[-0.15, 0.5]","[0.15, 0.5]",1,1,,,,,,,,,,,,,,,,,0,4,4,4,0,1,1,1,,,,,,,,,,,,,,,,,,,,,,,,,,,,,,,,,,,,,,,,,,,,,,,1046.4386422609996,None,1046.4386422609996,None,1046.4386422609996,None,r,1,0.8697120180004276,1047.9718484739997,None,1047.9718484739997,None,1047.9718484739997,None,1048.9060624080003,None,1048.9060624080003,None,1048.9060624080003,None,1048.9060624080003,None,,,,,,,,,,,,,,,,,,,,,,,,,,,,,,,,,,,,,,,,,,,,001,81,2020_Feb_06_1057,spring_faces,3.1.5,59.936288923822886,
condition files/Stage2_1.xlsx,,T3,B3,s,"['s', 'r']","['Stratego', 'Risk']","[-0.15, 0.5]","[0.15, 0.5]",1,1,,,,,,,,,,,,,,,,,0,4,4,4,0,2,2,4,,,,,,,,,,,,,,,,,,,,,,,,,,,,,,,,,,,,,,,,,,,,,,,1050.8715545109999,None,1050.8715545109999,None,1050.8715545109999,None,s,1,1.4287163819990383,1052.4047828920002,None,1052.4047828920002,None,1052.4047828920002,None,1053.9054671700005,None,1053.9054671700005,None,1053.9054671700005,None,1053.9054671700005,None,,,,,,,,,,,,,,,,,,,,,,,,,,,,,,,,,,,,,,,,,,,,001,81,2020_Feb_06_1057,spring_faces,3.1.5,59.936288923822886,
condition files/Stage2_1.xlsx,,T5,B5,s,"['s', 'r']","['Stratego', 'Risk']","[-0.15, 0.5]","[0.15, 0.5]",1,1,,,,,,,,,,,,,,,,,0,4,4,4,0,3,3,0,,,,,,,,,,,,,,,,,,,,,,,,,,,,,,,,,,,,,,,,,,,,,,,1055.8550242660012,None,1055.8550242660012,None,1055.8550242660012,None,s,1,3.0986272230002214,1057.3908760120003,None,1057.3908760120003,None,1057.3908760120003,None,1060.554903796,None,1060.554903796,None,1060.554903796,None,1060.554903796,None,,,,,,,,,,,,,,,,,,,,,,,,,,,,,,,,,,,,,,,,,,,,001,81,2020_Feb_06_1057,spring_faces,3.1.5,59.936288923822886,
