condsFile,subStage,cue1,cue2,correct,responseKeys,responseNames,cue1Position,cue2Position,cue1Opacity,cue2Opacity,stageLoop0.thisRepN,stageLoop0.thisTrialN,stageLoop0.thisN,stageLoop0.thisIndex,blockLoop0.thisRepN,blockLoop0.thisTrialN,blockLoop0.thisN,blockLoop0.thisIndex,stage1Loop.thisRepN,stage1Loop.thisTrialN,stage1Loop.thisN,stage1Loop.thisIndex,blockLoop1.thisRepN,blockLoop1.thisTrialN,blockLoop1.thisN,blockLoop1.thisIndex,stage2Loop.thisRepN,stage2Loop.thisTrialN,stage2Loop.thisN,stage2Loop.thisIndex,blockLoop2.thisRepN,blockLoop2.thisTrialN,blockLoop2.thisN,blockLoop2.thisIndex,testLoop.thisRepN,testLoop.thisTrialN,testLoop.thisN,testLoop.thisIndex,blockLoopTest.thisRepN,blockLoopTest.thisTrialN,blockLoopTest.thisN,blockLoopTest.thisIndex,cuePics,id_instr_text.started,id_instr_text.stopped,space_to_continue_2.started,space_to_continue_2.stopped,end_instructions_resp_3.keys,end_instructions_resp_3.rt,end_instructions_resp_3.started,end_instructions_resp_3.stopped,id_input_instr.started,id_input_instr.stopped,id_input_rect.started,id_input_rect.stopped,id_input_resp.keys,id_input_resp.rt,id_input_resp.started,id_input_resp.stopped,sonaID,id_input_text.started,id_input_text.stopped,final_text.started,final_text.stopped,instructions.started,instructions.stopped,end_instructions_resp.keys,end_instructions_resp.rt,end_instructions_resp.started,end_instructions_resp.stopped,space_to_continue.started,space_to_continue.stopped,instructions_stage0.started,instructions_stage0.stopped,end_instructions_resp_stage0.keys,end_instructions_resp_stage0.rt,end_instructions_resp_stage0.started,end_instructions_resp_stage0.stopped,space_to_continue_stage0.started,space_to_continue_stage0.stopped,text.started,text.stopped,resp_text1.started,resp_text1.stopped,resp_text2.started,resp_text2.stopped,trial_resp.keys,trial_resp.corr,trial_resp.rt,trial_resp.started,trial_resp.stopped,cue1Image.started,cue1Image.stopped,cue2Image.started,cue2Image.stopped,cue1Image_fb.started,cue1Image_fb.stopped,cue2Image_fb.started,cue2Image_fb.stopped,fb_text_answer.started,fb_text_answer.stopped,feedback_image.started,feedback_image.stopped,instructions_stage1.started,instructions_stage1.stopped,end_instructions_resp_stage1.keys,end_instructions_resp_stage1.rt,end_instructions_resp_stage1.started,end_instructions_resp_stage1.stopped,space_to_continue_stage1.started,space_to_continue_stage1.stopped,instructions_2.started,instructions_2.stopped,end_instructions_resp_2.keys,end_instructions_resp_2.rt,end_instructions_resp_2.started,end_instructions_resp_2.stopped,press_space_to_continue_stage2.started,press_space_to_continue_stage2.stopped,instructions_testStage1.started,instructions_testStage1.stopped,end_instructions_resp_test1.keys,end_instructions_resp_test1.rt,end_instructions_resp_test1.started,end_instructions_resp_test1.stopped,press_space_to_continue_test1.started,press_space_to_continue_test1.stopped,cue1Image_testChoice.started,cue1Image_testChoice.stopped,cue2Image_testChoice.started,cue2Image_testChoice.stopped,test_resp.keys,test_resp.corr,test_resp.rt,test_resp.started,test_resp.stopped,cue1Image_testConf.started,cue1Image_testConf.stopped,cue2Image_testConf.started,cue2Image_testConf.stopped,conf_reminder.started,conf_reminder.stopped,conf_rating.response,conf_rating.rt,conf_rating.started,conf_rating.stopped,session,participant,date,expName,psychopyVersion,frameRate,
,,,,,,,,,,,,,,,,,,,,,,,,,,,,,,,,,,,,,,,,,,,"{'none': 'pictures/20M_AN_C.png', 'alpha': 'pictures/SHINEd_apple.png', 'beta': 'pictures/SHINEd_melon.png', 'theta': 'pictures/SHINEd_pepper.png', 'phi': 'pictures/SHINEd_pear.png', 'T1': 'pictures/38M_AN_C.png', 'T2': 'pictures/34M_AN_C.png', 'T3': 'pictures/20M_AN_C.png', 'T4': 'pictures/37M_AN_C.png', 'T5': 'pictures/33M_AN_C.png', 'T6': 'pictures/22M_AN_C.png', 'B1': 'pictures/25M_NE_C.png', 'B2': 'pictures/31M_NE_C.png', 'B3': 'pictures/32M_NE_C.png', 'B4': 'pictures/23M_NE_C.png', 'B5': 'pictures/26M_NE_C.png', 'B6': 'pictures/36M_NE_C.png'}",13.077450162998502,None,18.060660120998364,None,space,223.55915060299958,18.060660120998364,None,,,,,,,,,,,,,,,,,,,,,,,,,,,,,,,,,,,,,,,,,,,,,,,,,,,,,,,,,,,,,,,,,,,,,,,,,,,,,,,,,,,,,,,,,,,,,,,,001,88,2020_Feb_06_1250,spring_faces,3.1.5,60.10325643266235,
,,,,,,,,,,,,,,,,,,,,,,,,,,,,,,,,,,,,,,,,,,,,,,,,,,,,241.99367145399992,None,241.99367145399992,None,"['0', '9', '2', '3', 'm', 'a', 'backspace', 'backspace', 'm', 'a', 'y', 'o', 'k']","[22.186071739999534, 24.266065666999566, 26.80998188800004, 27.146062527999675, 32.21802083399962, 32.60202144699906, 34.07408075799867, 34.4421386239992, 34.93808253399948, 35.066068733000066, 40.266068130998974, 40.4100277109992, 40.60204302999955]",241.99367145399992,None,,,,,,,,,,,,,,,,,,,,,,,,,,,,,,,,,,,,,,,,,,,,,,,,,,,,,,,,,,,,,,,,,,,,,,,,,,,,,,,,,,,,,,,,001,88,2020_Feb_06_1250,spring_faces,3.1.5,60.10325643266235,
,,,,,,,,,,,,,,,,,,,,,,,,,,,,,,,,,,,,,,,,,,,,,,,,,,,,,,,,,,,,0923mayok,241.99367145399992,None,241.99367145399992,None,287.6774915959995,None,space,6.398479124000005,292.6772723869999,None,,,,,,,,,,,,,,,,,,,,,,,,,,,,,,,,,,,,,,,,,,,,,,,,,,,,,,,,,,,,,,,,,,,,,,,,,,,,,001,88,2020_Feb_06_1250,spring_faces,3.1.5,60.10325643266235,
,,,,,,,,,,,,,,,,,,,,,,,,,,,,,,,,,,,,,,,,,,,,,,,,,,,,,,,,,,,,,,,,,,,,,,,292.6772723869999,None,299.1112764549998,None,space,4.484847984998851,304.1108403379985,None,,,,,,,,,,,,,,,,,,,,,,,,,,,,,,,,,,,,,,,,,,,,,,,,,,,,,,,,,,,,,,,,,,,,,001,88,2020_Feb_06_1250,spring_faces,3.1.5,60.10325643266235,
condition files/Stage0a.xlsx,0a,beta,none,g,"['h', 'g']","['Chess', 'Go']","[0, 0.5]","[0, 0]",1,0,0,0,0,0,0,0,0,1,,,,,,,,,,,,,,,,,,,,,,,,,,,,,,,,,,,,,,,,,,,,,,,,,,,,,,,,,,,,,304.1108403379985,None,308.6609625000001,None,308.6609625000001,None,308.6609625000001,None,g,1,2.128067584000746,310.243684993,None,310.243684993,None,310.243684993,None,312.4444764769996,None,312.4444764769996,None,312.4444764769996,None,312.4444764769996,None,,,,,,,,,,,,,,,,,,,,,,,,,,,,,,,,,,,,,,,,,,,,001,88,2020_Feb_06_1250,spring_faces,3.1.5,60.10325643266235,
condition files/Stage0a.xlsx,0a,alpha,none,h,"['h', 'g']","['Chess', 'Go']","[0, 0.5]","[0, 0]",1,0,0,0,0,0,0,1,1,0,,,,,,,,,,,,,,,,,,,,,,,,,,,,,,,,,,,,,,,,,,,,,,,,,,,,,,,,,,,,,,,314.3940493499995,None,314.3940493499995,None,314.3940493499995,None,g,0,1.6919696510012727,315.92785227999957,None,315.92785227999957,None,315.92785227999957,None,317.67890777699904,None,317.67890777699904,None,317.67890777699904,None,317.67890777699904,None,,,,,,,,,,,,,,,,,,,,,,,,,,,,,,,,,,,,,,,,,,,,001,88,2020_Feb_06_1250,spring_faces,3.1.5,60.10325643266235,
condition files/Stage0a.xlsx,0a,alpha,none,h,"['h', 'g']","['Chess', 'Go']","[0, 0.5]","[0, 0]",1,0,0,1,1,1,0,0,0,0,,,,,,,,,,,,,,,,,,,,,,,,,,,,,,,,,,,,,,,,,,,,,,,,,,,,,,,,,,,,,,,319.66104614699907,None,319.66104614699907,None,319.66104614699907,None,h,1,0.7302749669997866,321.17740865499945,None,321.17740865499945,None,321.17740865499945,None,321.96081676799986,None,321.96081676799986,None,321.96081676799986,None,321.96081676799986,None,,,,,,,,,,,,,,,,,,,,,,,,,,,,,,,,,,,,,,,,,,,,001,88,2020_Feb_06_1250,spring_faces,3.1.5,60.10325643266235,
condition files/Stage0a.xlsx,0a,beta,none,g,"['h', 'g']","['Chess', 'Go']","[0, 0.5]","[0, 0]",1,0,0,1,1,1,0,1,1,1,,,,,,,,,,,,,,,,,,,,,,,,,,,,,,,,,,,,,,,,,,,,,,,,,,,,,,,,,,,,,,,323.9274592599995,None,323.9274592599995,None,323.9274592599995,None,g,1,0.718622422999033,325.4611185829999,None,325.4611185829999,None,325.4611185829999,None,326.24466734699854,None,326.24466734699854,None,326.24466734699854,None,326.24466734699854,None,,,,,,,,,,,,,,,,,,,,,,,,,,,,,,,,,,,,,,,,,,,,001,88,2020_Feb_06_1250,spring_faces,3.1.5,60.10325643266235,
condition files/Stage0a.xlsx,0a,beta,none,g,"['h', 'g']","['Chess', 'Go']","[0, 0.5]","[0, 0]",1,0,0,2,2,2,0,0,0,1,,,,,,,,,,,,,,,,,,,,,,,,,,,,,,,,,,,,,,,,,,,,,,,,,,,,,,,,,,,,,,,328.2272251739996,None,328.2272251739996,None,328.2272251739996,None,g,1,0.7074822880003921,329.76034715899914,None,329.76034715899914,None,329.76034715899914,None,330.5270655789991,None,330.5270655789991,None,330.5270655789991,None,330.5270655789991,None,,,,,,,,,,,,,,,,,,,,,,,,,,,,,,,,,,,,,,,,,,,,001,88,2020_Feb_06_1250,spring_faces,3.1.5,60.10325643266235,
condition files/Stage0a.xlsx,0a,alpha,none,h,"['h', 'g']","['Chess', 'Go']","[0, 0.5]","[0, 0]",1,0,0,2,2,2,0,1,1,0,,,,,,,,,,,,,,,,,,,,,,,,,,,,,,,,,,,,,,,,,,,,,,,,,,,,,,,,,,,,,,,332.49399545899905,None,332.49399545899905,None,332.49399545899905,None,h,1,0.7117957840000599,334.02791350699954,None,334.02791350699954,None,334.02791350699954,None,334.7939602939987,None,334.7939602939987,None,334.7939602939987,None,334.7939602939987,None,,,,,,,,,,,,,,,,,,,,,,,,,,,,,,,,,,,,,,,,,,,,001,88,2020_Feb_06_1250,spring_faces,3.1.5,60.10325643266235,
condition files/Stage0a.xlsx,0a,beta,none,g,"['h', 'g']","['Chess', 'Go']","[0, 0.5]","[0, 0]",1,0,0,3,3,3,0,0,0,1,,,,,,,,,,,,,,,,,,,,,,,,,,,,,,,,,,,,,,,,,,,,,,,,,,,,,,,,,,,,,,,336.7776592599985,None,336.7776592599985,None,336.7776592599985,None,g,1,0.5575019099997007,338.3103040299993,None,338.3103040299993,None,338.3103040299993,None,338.92771875299877,None,338.92771875299877,None,338.92771875299877,None,338.92771875299877,None,,,,,,,,,,,,,,,,,,,,,,,,,,,,,,,,,,,,,,,,,,,,001,88,2020_Feb_06_1250,spring_faces,3.1.5,60.10325643266235,
condition files/Stage0a.xlsx,0a,alpha,none,h,"['h', 'g']","['Chess', 'Go']","[0, 0.5]","[0, 0]",1,0,0,3,3,3,0,1,1,0,,,,,,,,,,,,,,,,,,,,,,,,,,,,,,,,,,,,,,,,,,,,,,,,,,,,,,,,,,,,,,,340.89400455099894,None,340.89400455099894,None,340.89400455099894,None,h,1,0.5043233950000285,342.42742724299933,None,342.42742724299933,None,342.42742724299933,None,342.9945588209994,None,342.9945588209994,None,342.9945588209994,None,342.9945588209994,None,,,,,,,,,,,,,,,,,,,,,,,,,,,,,,,,,,,,,,,,,,,,001,88,2020_Feb_06_1250,spring_faces,3.1.5,60.10325643266235,
condition files/Stage0a.xlsx,0a,alpha,none,h,"['h', 'g']","['Chess', 'Go']","[0, 0.5]","[0, 0]",1,0,0,4,4,4,0,0,0,0,,,,,,,,,,,,,,,,,,,,,,,,,,,,,,,,,,,,,,,,,,,,,,,,,,,,,,,,,,,,,,,344.97744812699966,None,344.97744812699966,None,344.97744812699966,None,h,1,0.7408490439993329,346.51095750199966,None,346.51095750199966,None,346.51095750199966,None,347.31034691700006,None,347.31034691700006,None,347.31034691700006,None,347.31034691700006,None,,,,,,,,,,,,,,,,,,,,,,,,,,,,,,,,,,,,,,,,,,,,001,88,2020_Feb_06_1250,spring_faces,3.1.5,60.10325643266235,
condition files/Stage0a.xlsx,0a,beta,none,g,"['h', 'g']","['Chess', 'Go']","[0, 0.5]","[0, 0]",1,0,0,4,4,4,0,1,1,1,,,,,,,,,,,,,,,,,,,,,,,,,,,,,,,,,,,,,,,,,,,,,,,,,,,,,,,,,,,,,,,349.277030018,None,349.277030018,None,349.277030018,None,g,1,0.5526700539994636,350.8110729149994,None,350.8110729149994,None,350.8110729149994,None,351.42786349499875,None,351.42786349499875,None,351.42786349499875,None,351.42786349499875,None,,,,,,,,,,,,,,,,,,,,,,,,,,,,,,,,,,,,,,,,,,,,001,88,2020_Feb_06_1250,spring_faces,3.1.5,60.10325643266235,
condition files/Stage0a.xlsx,0a,beta,none,g,"['h', 'g']","['Chess', 'Go']","[0, 0.5]","[0, 0]",1,0,0,5,5,5,0,0,0,1,,,,,,,,,,,,,,,,,,,,,,,,,,,,,,,,,,,,,,,,,,,,,,,,,,,,,,,,,,,,,,,353.4109393210001,None,353.4109393210001,None,353.4109393210001,None,g,1,0.5320042280000052,354.94374258399876,None,354.94374258399876,None,354.94374258399876,None,355.5269453989986,None,355.5269453989986,None,355.5269453989986,None,355.5269453989986,None,,,,,,,,,,,,,,,,,,,,,,,,,,,,,,,,,,,,,,,,,,,,001,88,2020_Feb_06_1250,spring_faces,3.1.5,60.10325643266235,
condition files/Stage0a.xlsx,0a,alpha,none,h,"['h', 'g']","['Chess', 'Go']","[0, 0.5]","[0, 0]",1,0,0,5,5,5,0,1,1,0,,,,,,,,,,,,,,,,,,,,,,,,,,,,,,,,,,,,,,,,,,,,,,,,,,,,,,,,,,,,,,,357.4937361429984,None,357.4937361429984,None,357.4937361429984,None,h,1,0.6243095979989448,359.027495332999,None,359.027495332999,None,359.027495332999,None,359.7102998069986,None,359.7102998069986,None,359.7102998069986,None,359.7102998069986,None,,,,,,,,,,,,,,,,,,,,,,,,,,,,,,,,,,,,,,,,,,,,001,88,2020_Feb_06_1250,spring_faces,3.1.5,60.10325643266235,
condition files/Stage0b_1.xlsx,0b,alpha,none,h,"['h', 'g']","['Chess', 'Go']","[-0.15, 0.5]","[0.15, 0.5]",1,0,0,6,6,6,0,0,0,0,,,,,,,,,,,,,,,,,,,,,,,,,,,,,,,,,,,,,,,,,,,,,,,,,,,,,,,,,,,,,,,361.6936065129994,None,361.6936065129994,None,361.6936065129994,None,h,1,0.6647206190009456,363.22698607599887,None,363.22698607599887,None,363.22698607599887,None,363.94412848499996,None,363.94412848499996,None,363.94412848499996,None,363.94412848499996,None,,,,,,,,,,,,,,,,,,,,,,,,,,,,,,,,,,,,,,,,,,,,001,88,2020_Feb_06_1250,spring_faces,3.1.5,60.10325643266235,
condition files/Stage0b_1.xlsx,0b,none,beta,g,"['h', 'g']","['Chess', 'Go']","[-0.15, 0.5]","[0.15, 0.5]",0,1,0,6,6,6,0,1,1,1,,,,,,,,,,,,,,,,,,,,,,,,,,,,,,,,,,,,,,,,,,,,,,,,,,,,,,,,,,,,,,,365.91049889499845,None,365.91049889499845,None,365.91049889499845,None,g,1,0.4266951980007434,367.44896869900003,None,367.44896869900003,None,367.44896869900003,None,367.9309835799995,None,367.9309835799995,None,367.9309835799995,None,367.9309835799995,None,,,,,,,,,,,,,,,,,,,,,,,,,,,,,,,,,,,,,,,,,,,,001,88,2020_Feb_06_1250,spring_faces,3.1.5,60.10325643266235,
condition files/Stage0b_2.xlsx,0b,none,alpha,h,"['h', 'g']","['Chess', 'Go']","[-0.15, 0.5]","[0.15, 0.5]",0,1,0,7,7,7,0,0,0,0,,,,,,,,,,,,,,,,,,,,,,,,,,,,,,,,,,,,,,,,,,,,,,,,,,,,,,,,,,,,,,,369.91042136599935,None,369.91042136599935,None,369.91042136599935,None,h,1,0.5756822909988841,371.44419278499845,None,371.44419278499845,None,371.44419278499845,None,372.07739674000004,None,372.07739674000004,None,372.07739674000004,None,372.07739674000004,None,,,,,,,,,,,,,,,,,,,,,,,,,,,,,,,,,,,,,,,,,,,,001,88,2020_Feb_06_1250,spring_faces,3.1.5,60.10325643266235,
condition files/Stage0b_2.xlsx,0b,beta,none,g,"['h', 'g']","['Chess', 'Go']","[-0.15, 0.5]","[0.15, 0.5]",1,0,0,7,7,7,0,1,1,1,,,,,,,,,,,,,,,,,,,,,,,,,,,,,,,,,,,,,,,,,,,,,,,,,,,,,,,,,,,,,,,374.0439765359988,None,374.0439765359988,None,374.0439765359988,None,h,0,0.553980861999662,375.5937819419996,None,375.5937819419996,None,375.5937819419996,None,376.2134961319989,None,376.2134961319989,None,376.2134961319989,None,376.2134961319989,None,,,,,,,,,,,,,,,,,,,,,,,,,,,,,,,,,,,,,,,,,,,,001,88,2020_Feb_06_1250,spring_faces,3.1.5,60.10325643266235,
condition files/Stage0b_1.xlsx,0b,none,beta,g,"['h', 'g']","['Chess', 'Go']","[-0.15, 0.5]","[0.15, 0.5]",0,1,0,8,8,8,0,0,0,1,,,,,,,,,,,,,,,,,,,,,,,,,,,,,,,,,,,,,,,,,,,,,,,,,,,,,,,,,,,,,,,378.1939884489984,None,378.1939884489984,None,378.1939884489984,None,g,1,0.8198706040002435,379.74388478699984,None,379.74388478699984,None,379.74388478699984,None,380.6276317339998,None,380.6276317339998,None,380.6276317339998,None,380.6276317339998,None,,,,,,,,,,,,,,,,,,,,,,,,,,,,,,,,,,,,,,,,,,,,001,88,2020_Feb_06_1250,spring_faces,3.1.5,60.10325643266235,
condition files/Stage0b_1.xlsx,0b,alpha,none,h,"['h', 'g']","['Chess', 'Go']","[-0.15, 0.5]","[0.15, 0.5]",1,0,0,8,8,8,0,1,1,0,,,,,,,,,,,,,,,,,,,,,,,,,,,,,,,,,,,,,,,,,,,,,,,,,,,,,,,,,,,,,,,382.59395825699903,None,382.59395825699903,None,382.59395825699903,None,h,1,0.6605060069996398,384.12720566999997,None,384.12720566999997,None,384.12720566999997,None,384.84508966700014,None,384.84508966700014,None,384.84508966700014,None,384.84508966700014,None,,,,,,,,,,,,,,,,,,,,,,,,,,,,,,,,,,,,,,,,,,,,001,88,2020_Feb_06_1250,spring_faces,3.1.5,60.10325643266235,
condition files/Stage0b_2.xlsx,0b,none,alpha,h,"['h', 'g']","['Chess', 'Go']","[-0.15, 0.5]","[0.15, 0.5]",0,1,0,9,9,9,0,0,0,0,,,,,,,,,,,,,,,,,,,,,,,,,,,,,,,,,,,,,,,,,,,,,,,,,,,,,,,,,,,,,,,386.8277154849984,None,386.8277154849984,None,386.8277154849984,None,h,1,0.8746716959994956,388.3611551869999,None,388.3611551869999,None,388.3611551869999,None,389.29432375099896,None,389.29432375099896,None,389.29432375099896,None,389.29432375099896,None,,,,,,,,,,,,,,,,,,,,,,,,,,,,,,,,,,,,,,,,,,,,001,88,2020_Feb_06_1250,spring_faces,3.1.5,60.10325643266235,
condition files/Stage0b_2.xlsx,0b,beta,none,g,"['h', 'g']","['Chess', 'Go']","[-0.15, 0.5]","[0.15, 0.5]",1,0,0,9,9,9,0,1,1,1,,,,,,,,,,,,,,,,,,,,,,,,,,,,,,,,,,,,,,,,,,,,,,,,,,,,,,,,,,,,,,,391.2606964909992,None,391.2606964909992,None,391.2606964909992,None,g,1,0.6307272160011053,392.79702796199854,None,392.79702796199854,None,392.79702796199854,None,393.4798885759992,None,393.4798885759992,None,393.4798885759992,None,393.4798885759992,None,,,,,,,,,,,,,,,,,,,,,,,,,,,,,,,,,,,,,,,,,,,,001,88,2020_Feb_06_1250,spring_faces,3.1.5,60.10325643266235,
condition files/Stage0b_1.xlsx,0b,alpha,none,h,"['h', 'g']","['Chess', 'Go']","[-0.15, 0.5]","[0.15, 0.5]",1,0,0,10,10,10,0,0,0,0,,,,,,,,,,,,,,,,,,,,,,,,,,,,,,,,,,,,,,,,,,,,,,,,,,,,,,,,,,,,,,,395.46128673400017,None,395.46128673400017,None,395.46128673400017,None,h,1,0.609578617999432,396.9941427670001,None,396.9941427670001,None,396.9941427670001,None,397.6610637099984,None,397.6610637099984,None,397.6610637099984,None,397.6610637099984,None,,,,,,,,,,,,,,,,,,,,,,,,,,,,,,,,,,,,,,,,,,,,001,88,2020_Feb_06_1250,spring_faces,3.1.5,60.10325643266235,
condition files/Stage0b_1.xlsx,0b,none,beta,g,"['h', 'g']","['Chess', 'Go']","[-0.15, 0.5]","[0.15, 0.5]",0,1,0,10,10,10,0,1,1,1,,,,,,,,,,,,,,,,,,,,,,,,,,,,,,,,,,,,,,,,,,,,,,,,,,,,,,,,,,,,,,,399.6265743849999,None,399.6265743849999,None,399.6265743849999,None,g,1,0.43960487699951045,401.1641104649989,None,401.1641104649989,None,401.1641104649989,None,401.6633461829988,None,401.6633461829988,None,401.6633461829988,None,401.6633461829988,None,,,,,,,,,,,,,,,,,,,,,,,,,,,,,,,,,,,,,,,,,,,,001,88,2020_Feb_06_1250,spring_faces,3.1.5,60.10325643266235,
condition files/Stage0b_2.xlsx,0b,none,alpha,h,"['h', 'g']","['Chess', 'Go']","[-0.15, 0.5]","[0.15, 0.5]",0,1,0,11,11,11,0,0,0,0,,,,,,,,,,,,,,,,,,,,,,,,,,,,,,,,,,,,,,,,,,,,,,,,,,,,,,,,,,,,,,,403.64431882200006,None,403.64431882200006,None,403.64431882200006,None,h,1,0.49030585500076995,405.1774033069996,None,405.1774033069996,None,405.1774033069996,None,405.72630302299876,None,405.72630302299876,None,405.72630302299876,None,405.72630302299876,None,,,,,,,,,,,,,,,,,,,,,,,,,,,,,,,,,,,,,,,,,,,,001,88,2020_Feb_06_1250,spring_faces,3.1.5,60.10325643266235,
condition files/Stage0b_2.xlsx,0b,beta,none,g,"['h', 'g']","['Chess', 'Go']","[-0.15, 0.5]","[0.15, 0.5]",1,0,0,11,11,11,0,1,1,1,,,,,,,,,,,,,,,,,,,,,,,,,,,,,,,,,,,,,,,,,,,,,,,,,,,,,,,,,,,,,,,407.69395731199984,None,407.69395731199984,None,407.69395731199984,None,g,1,0.43966104299943254,409.2440246669994,None,409.2440246669994,None,409.2440246669994,None,409.7603918269997,None,409.7603918269997,None,409.7603918269997,None,409.7603918269997,None,,,,,,,,,,,,,,,,,,,,,,,,,,,,,,,,,,,,,,,,,,,,001,88,2020_Feb_06_1250,spring_faces,3.1.5,60.10325643266235,
condition files/Stage0c_1.xlsx,0c,theta,alpha,h,"['h', 'g']","['Chess', 'Go']","[-0.15, 0.5]","[0.15, 0.5]",1,1,0,12,12,12,0,0,0,0,,,,,,,,,,,,,,,,,,,,,,,,,,,,,,,,,,,,,,,,,,,,,,,,,,,,,,,,,,,,,,,411.727490199999,None,411.727490199999,None,411.727490199999,None,h,1,1.3670268269997905,413.2606339260001,None,413.2606339260001,None,413.2606339260001,None,414.694170245999,None,414.694170245999,None,414.694170245999,None,414.694170245999,None,,,,,,,,,,,,,,,,,,,,,,,,,,,,,,,,,,,,,,,,,,,,001,88,2020_Feb_06_1250,spring_faces,3.1.5,60.10325643266235,
condition files/Stage0c_1.xlsx,0c,alpha,phi,h,"['h', 'g']","['Chess', 'Go']","[-0.15, 0.5]","[0.15, 0.5]",1,1,0,12,12,12,0,1,1,1,,,,,,,,,,,,,,,,,,,,,,,,,,,,,,,,,,,,,,,,,,,,,,,,,,,,,,,,,,,,,,,416.66077207499984,None,416.66077207499984,None,416.66077207499984,None,h,1,1.121302730000025,418.1943925779997,None,418.1943925779997,None,418.1943925779997,None,419.3621613029991,None,419.3621613029991,None,419.3621613029991,None,419.3621613029991,None,,,,,,,,,,,,,,,,,,,,,,,,,,,,,,,,,,,,,,,,,,,,001,88,2020_Feb_06_1250,spring_faces,3.1.5,60.10325643266235,
condition files/Stage0c_1.xlsx,0c,beta,theta,g,"['h', 'g']","['Chess', 'Go']","[-0.15, 0.5]","[0.15, 0.5]",1,1,0,12,12,12,0,2,2,2,,,,,,,,,,,,,,,,,,,,,,,,,,,,,,,,,,,,,,,,,,,,,,,,,,,,,,,,,,,,,,,421.3444819219985,None,421.3444819219985,None,421.3444819219985,None,g,1,0.7106456339988654,422.8770456429993,None,422.8770456429993,None,422.8770456429993,None,423.6443499449997,None,423.6443499449997,None,423.6443499449997,None,423.6443499449997,None,,,,,,,,,,,,,,,,,,,,,,,,,,,,,,,,,,,,,,,,,,,,001,88,2020_Feb_06_1250,spring_faces,3.1.5,60.10325643266235,
condition files/Stage0c_1.xlsx,0c,phi,beta,g,"['h', 'g']","['Chess', 'Go']","[-0.15, 0.5]","[0.15, 0.5]",1,1,0,12,12,12,0,3,3,3,,,,,,,,,,,,,,,,,,,,,,,,,,,,,,,,,,,,,,,,,,,,,,,,,,,,,,,,,,,,,,,425.61010281400013,None,425.61010281400013,None,425.61010281400013,None,g,1,0.811357857000985,427.1443628449997,None,427.1443628449997,None,427.1443628449997,None,427.99499684299917,None,427.99499684299917,None,427.99499684299917,None,427.99499684299917,None,,,,,,,,,,,,,,,,,,,,,,,,,,,,,,,,,,,,,,,,,,,,001,88,2020_Feb_06_1250,spring_faces,3.1.5,60.10325643266235,
condition files/Stage0c_2.xlsx,0c,phi,alpha,h,"['h', 'g']","['Chess', 'Go']","[-0.15, 0.5]","[0.15, 0.5]",1,1,0,13,13,13,0,0,0,1,,,,,,,,,,,,,,,,,,,,,,,,,,,,,,,,,,,,,,,,,,,,,,,,,,,,,,,,,,,,,,,429.9941000759991,None,429.9941000759991,None,429.9941000759991,None,h,1,0.6679445300014777,431.5277675739999,None,431.5277675739999,None,431.5277675739999,None,432.2604782339986,None,432.2604782339986,None,432.2604782339986,None,432.2604782339986,None,,,,,,,,,,,,,,,,,,,,,,,,,,,,,,,,,,,,,,,,,,,,001,88,2020_Feb_06_1250,spring_faces,3.1.5,60.10325643266235,
condition files/Stage0c_2.xlsx,0c,theta,beta,g,"['h', 'g']","['Chess', 'Go']","[-0.15, 0.5]","[0.15, 0.5]",1,1,0,13,13,13,0,1,1,2,,,,,,,,,,,,,,,,,,,,,,,,,,,,,,,,,,,,,,,,,,,,,,,,,,,,,,,,,,,,,,,434.2272718819986,None,434.2272718819986,None,434.2272718819986,None,g,1,0.4825899440002104,435.761148960999,None,435.761148960999,None,435.761148960999,None,436.29404199999954,None,436.29404199999954,None,436.29404199999954,None,436.29404199999954,None,,,,,,,,,,,,,,,,,,,,,,,,,,,,,,,,,,,,,,,,,,,,001,88,2020_Feb_06_1250,spring_faces,3.1.5,60.10325643266235,
condition files/Stage0c_2.xlsx,0c,beta,phi,g,"['h', 'g']","['Chess', 'Go']","[-0.15, 0.5]","[0.15, 0.5]",1,1,0,13,13,13,0,2,2,3,,,,,,,,,,,,,,,,,,,,,,,,,,,,,,,,,,,,,,,,,,,,,,,,,,,,,,,,,,,,,,,438.2607160209991,None,438.2607160209991,None,438.2607160209991,None,g,1,0.8501036600009684,439.793572831999,None,439.793572831999,None,439.793572831999,None,440.6771524709984,None,440.6771524709984,None,440.6771524709984,None,440.6771524709984,None,,,,,,,,,,,,,,,,,,,,,,,,,,,,,,,,,,,,,,,,,,,,001,88,2020_Feb_06_1250,spring_faces,3.1.5,60.10325643266235,
condition files/Stage0c_2.xlsx,0c,alpha,theta,h,"['h', 'g']","['Chess', 'Go']","[-0.15, 0.5]","[0.15, 0.5]",1,1,0,13,13,13,0,3,3,0,,,,,,,,,,,,,,,,,,,,,,,,,,,,,,,,,,,,,,,,,,,,,,,,,,,,,,,,,,,,,,,442.660618119,None,442.660618119,None,442.660618119,None,h,1,0.5775031470002432,444.19424040299964,None,444.19424040299964,None,444.19424040299964,None,444.8268569159991,None,444.8268569159991,None,444.8268569159991,None,444.8268569159991,None,,,,,,,,,,,,,,,,,,,,,,,,,,,,,,,,,,,,,,,,,,,,001,88,2020_Feb_06_1250,spring_faces,3.1.5,60.10325643266235,
condition files/Stage0c_1.xlsx,0c,beta,theta,g,"['h', 'g']","['Chess', 'Go']","[-0.15, 0.5]","[0.15, 0.5]",1,1,0,14,14,14,0,0,0,2,,,,,,,,,,,,,,,,,,,,,,,,,,,,,,,,,,,,,,,,,,,,,,,,,,,,,,,,,,,,,,,446.8106456259993,None,446.8106456259993,None,446.8106456259993,None,g,1,0.8119669150000846,448.34373975999915,None,448.34373975999915,None,448.34373975999915,None,449.2105140749991,None,449.2105140749991,None,449.2105140749991,None,449.2105140749991,None,,,,,,,,,,,,,,,,,,,,,,,,,,,,,,,,,,,,,,,,,,,,001,88,2020_Feb_06_1250,spring_faces,3.1.5,60.10325643266235,
condition files/Stage0c_1.xlsx,0c,theta,alpha,h,"['h', 'g']","['Chess', 'Go']","[-0.15, 0.5]","[0.15, 0.5]",1,1,0,14,14,14,0,1,1,0,,,,,,,,,,,,,,,,,,,,,,,,,,,,,,,,,,,,,,,,,,,,,,,,,,,,,,,,,,,,,,,451.17718114999843,None,451.17718114999843,None,451.17718114999843,None,h,1,0.8771988730004523,452.71060842399856,None,452.71060842399856,None,452.71060842399856,None,453.64436389799994,None,453.64436389799994,None,453.64436389799994,None,453.64436389799994,None,,,,,,,,,,,,,,,,,,,,,,,,,,,,,,,,,,,,,,,,,,,,001,88,2020_Feb_06_1250,spring_faces,3.1.5,60.10325643266235,
condition files/Stage0c_1.xlsx,0c,alpha,phi,h,"['h', 'g']","['Chess', 'Go']","[-0.15, 0.5]","[0.15, 0.5]",1,1,0,14,14,14,0,2,2,1,,,,,,,,,,,,,,,,,,,,,,,,,,,,,,,,,,,,,,,,,,,,,,,,,,,,,,,,,,,,,,,455.6106793309991,None,455.6106793309991,None,455.6106793309991,None,h,1,0.779522390999773,457.1441295229997,None,457.1441295229997,None,457.1441295229997,None,457.96097364900015,None,457.96097364900015,None,457.96097364900015,None,457.96097364900015,None,,,,,,,,,,,,,,,,,,,,,,,,,,,,,,,,,,,,,,,,,,,,001,88,2020_Feb_06_1250,spring_faces,3.1.5,60.10325643266235,
condition files/Stage0c_1.xlsx,0c,phi,beta,g,"['h', 'g']","['Chess', 'Go']","[-0.15, 0.5]","[0.15, 0.5]",1,1,0,14,14,14,0,3,3,3,,,,,,,,,,,,,,,,,,,,,,,,,,,,,,,,,,,,,,,,,,,,,,,,,,,,,,,,,,,,,,,459.9449664469994,None,459.9449664469994,None,459.9449664469994,None,g,1,0.7979977569993935,461.4777211389992,None,461.4777211389992,None,461.4777211389992,None,462.32688108099865,None,462.32688108099865,None,462.32688108099865,None,462.32688108099865,None,,,,,,,,,,,,,,,,,,,,,,,,,,,,,,,,,,,,,,,,,,,,001,88,2020_Feb_06_1250,spring_faces,3.1.5,60.10325643266235,
condition files/Stage0c_2.xlsx,0c,phi,alpha,h,"['h', 'g']","['Chess', 'Go']","[-0.15, 0.5]","[0.15, 0.5]",1,1,0,15,15,15,0,0,0,1,,,,,,,,,,,,,,,,,,,,,,,,,,,,,,,,,,,,,,,,,,,,,,,,,,,,,,,,,,,,,,,464.3107650969996,None,464.3107650969996,None,464.3107650969996,None,h,1,0.5924388189996534,465.84337266699913,None,465.84337266699913,None,465.84337266699913,None,466.49357945599877,None,466.49357945599877,None,466.49357945599877,None,466.49357945599877,None,,,,,,,,,,,,,,,,,,,,,,,,,,,,,,,,,,,,,,,,,,,,001,88,2020_Feb_06_1250,spring_faces,3.1.5,60.10325643266235,
condition files/Stage0c_2.xlsx,0c,beta,phi,g,"['h', 'g']","['Chess', 'Go']","[-0.15, 0.5]","[0.15, 0.5]",1,1,0,15,15,15,0,1,1,3,,,,,,,,,,,,,,,,,,,,,,,,,,,,,,,,,,,,,,,,,,,,,,,,,,,,,,,,,,,,,,,468.46077559900004,None,468.46077559900004,None,468.46077559900004,None,g,1,0.6500478229991131,469.99365375399975,None,469.99365375399975,None,469.99365375399975,None,470.6942674969996,None,470.6942674969996,None,470.6942674969996,None,470.6942674969996,None,,,,,,,,,,,,,,,,,,,,,,,,,,,,,,,,,,,,,,,,,,,,001,88,2020_Feb_06_1250,spring_faces,3.1.5,60.10325643266235,
condition files/Stage0c_2.xlsx,0c,theta,beta,g,"['h', 'g']","['Chess', 'Go']","[-0.15, 0.5]","[0.15, 0.5]",1,1,0,15,15,15,0,2,2,2,,,,,,,,,,,,,,,,,,,,,,,,,,,,,,,,,,,,,,,,,,,,,,,,,,,,,,,,,,,,,,,472.66070224599935,None,472.66070224599935,None,472.66070224599935,None,g,1,0.7535134329991706,474.1942341009999,None,474.1942341009999,None,474.1942341009999,None,474.9956831089985,None,474.9956831089985,None,474.9956831089985,None,474.9956831089985,None,,,,,,,,,,,,,,,,,,,,,,,,,,,,,,,,,,,,,,,,,,,,001,88,2020_Feb_06_1250,spring_faces,3.1.5,60.10325643266235,
condition files/Stage0c_2.xlsx,0c,alpha,theta,h,"['h', 'g']","['Chess', 'Go']","[-0.15, 0.5]","[0.15, 0.5]",1,1,0,15,15,15,0,3,3,0,,,,,,,,,,,,,,,,,,,,,,,,,,,,,,,,,,,,,,,,,,,,,,,,,,,,,,,,,,,,,,,476.97720622999987,None,476.97720622999987,None,476.97720622999987,None,h,1,0.5807854779995978,478.5109521579998,None,478.5109521579998,None,478.5109521579998,None,479.14432806900004,None,479.14432806900004,None,479.14432806900004,None,479.14432806900004,None,,,,,,,,,,,,,,,,,,,,,,,,,,,,,,,,,,,,,,,,,,,,001,88,2020_Feb_06_1250,spring_faces,3.1.5,60.10325643266235,
condition files/Stage0c_1.xlsx,0c,beta,theta,g,"['h', 'g']","['Chess', 'Go']","[-0.15, 0.5]","[0.15, 0.5]",1,1,0,16,16,16,0,0,0,2,,,,,,,,,,,,,,,,,,,,,,,,,,,,,,,,,,,,,,,,,,,,,,,,,,,,,,,,,,,,,,,481.1277593229988,None,481.1277593229988,None,481.1277593229988,None,g,1,0.7506059650004318,482.66111836599885,None,482.66111836599885,None,482.66111836599885,None,483.4776975529985,None,483.4776975529985,None,483.4776975529985,None,483.4776975529985,None,,,,,,,,,,,,,,,,,,,,,,,,,,,,,,,,,,,,,,,,,,,,001,88,2020_Feb_06_1250,spring_faces,3.1.5,60.10325643266235,
condition files/Stage0c_1.xlsx,0c,alpha,phi,h,"['h', 'g']","['Chess', 'Go']","[-0.15, 0.5]","[0.15, 0.5]",1,1,0,16,16,16,0,1,1,1,,,,,,,,,,,,,,,,,,,,,,,,,,,,,,,,,,,,,,,,,,,,,,,,,,,,,,,,,,,,,,,485.44396515599874,None,485.44396515599874,None,485.44396515599874,None,h,1,0.6101991869982157,486.97760374300015,None,486.97760374300015,None,486.97760374300015,None,487.64390509999976,None,487.64390509999976,None,487.64390509999976,None,487.64390509999976,None,,,,,,,,,,,,,,,,,,,,,,,,,,,,,,,,,,,,,,,,,,,,001,88,2020_Feb_06_1250,spring_faces,3.1.5,60.10325643266235,
condition files/Stage0c_1.xlsx,0c,phi,beta,g,"['h', 'g']","['Chess', 'Go']","[-0.15, 0.5]","[0.15, 0.5]",1,1,0,16,16,16,0,2,2,3,,,,,,,,,,,,,,,,,,,,,,,,,,,,,,,,,,,,,,,,,,,,,,,,,,,,,,,,,,,,,,,489.6107043389984,None,489.6107043389984,None,489.6107043389984,None,g,1,0.7154439900004945,491.14429530599955,None,491.14429530599955,None,491.14429530599955,None,491.9104906829998,None,491.9104906829998,None,491.9104906829998,None,491.9104906829998,None,,,,,,,,,,,,,,,,,,,,,,,,,,,,,,,,,,,,,,,,,,,,001,88,2020_Feb_06_1250,spring_faces,3.1.5,60.10325643266235,
condition files/Stage0c_1.xlsx,0c,theta,alpha,h,"['h', 'g']","['Chess', 'Go']","[-0.15, 0.5]","[0.15, 0.5]",1,1,0,16,16,16,0,3,3,0,,,,,,,,,,,,,,,,,,,,,,,,,,,,,,,,,,,,,,,,,,,,,,,,,,,,,,,,,,,,,,,493.8771914230001,None,493.8771914230001,None,493.8771914230001,None,h,1,0.4651692480001657,495.4105704019985,None,495.4105704019985,None,495.4105704019985,None,495.9272742719986,None,495.9272742719986,None,495.9272742719986,None,495.9272742719986,None,,,,,,,,,,,,,,,,,,,,,,,,,,,,,,,,,,,,,,,,,,,,001,88,2020_Feb_06_1250,spring_faces,3.1.5,60.10325643266235,
condition files/Stage0c_2.xlsx,0c,alpha,theta,h,"['h', 'g']","['Chess', 'Go']","[-0.15, 0.5]","[0.15, 0.5]",1,1,0,17,17,17,0,0,0,0,,,,,,,,,,,,,,,,,,,,,,,,,,,,,,,,,,,,,,,,,,,,,,,,,,,,,,,,,,,,,,,497.910890707999,None,497.910890707999,None,497.910890707999,None,h,1,0.671438057001069,499.4443160439987,None,499.4443160439987,None,499.4443160439987,None,500.16027498899894,None,500.16027498899894,None,500.16027498899894,None,500.16027498899894,None,,,,,,,,,,,,,,,,,,,,,,,,,,,,,,,,,,,,,,,,,,,,001,88,2020_Feb_06_1250,spring_faces,3.1.5,60.10325643266235,
condition files/Stage0c_2.xlsx,0c,beta,phi,g,"['h', 'g']","['Chess', 'Go']","[-0.15, 0.5]","[0.15, 0.5]",1,1,0,17,17,17,0,1,1,3,,,,,,,,,,,,,,,,,,,,,,,,,,,,,,,,,,,,,,,,,,,,,,,,,,,,,,,,,,,,,,,502.1441116999995,None,502.1441116999995,None,502.1441116999995,None,g,1,0.5979692100008833,503.6777160829988,None,503.6777160829988,None,503.6777160829988,None,504.3275901749985,None,504.3275901749985,None,504.3275901749985,None,504.3275901749985,None,,,,,,,,,,,,,,,,,,,,,,,,,,,,,,,,,,,,,,,,,,,,001,88,2020_Feb_06_1250,spring_faces,3.1.5,60.10325643266235,
condition files/Stage0c_2.xlsx,0c,theta,beta,g,"['h', 'g']","['Chess', 'Go']","[-0.15, 0.5]","[0.15, 0.5]",1,1,0,17,17,17,0,2,2,2,,,,,,,,,,,,,,,,,,,,,,,,,,,,,,,,,,,,,,,,,,,,,,,,,,,,,,,,,,,,,,,506.2941122149987,None,506.2941122149987,None,506.2941122149987,None,g,1,0.7687516089990822,507.827000538,None,507.827000538,None,507.827000538,None,508.6450279289984,None,508.6450279289984,None,508.6450279289984,None,508.6450279289984,None,,,,,,,,,,,,,,,,,,,,,,,,,,,,,,,,,,,,,,,,,,,,001,88,2020_Feb_06_1250,spring_faces,3.1.5,60.10325643266235,
condition files/Stage0c_2.xlsx,0c,phi,alpha,h,"['h', 'g']","['Chess', 'Go']","[-0.15, 0.5]","[0.15, 0.5]",1,1,0,17,17,17,0,3,3,1,,,,,,,,,,,,,,,,,,,,,,,,,,,,,,,,,,,,,,,,,,,,,,,,,,,,,,,,,,,,,,,510.6267886729984,None,510.6267886729984,None,510.6267886729984,None,h,1,0.7071142029999464,512.1606339559985,None,512.1606339559985,None,512.1606339559985,None,512.9271605479989,None,512.9271605479989,None,512.9271605479989,None,512.9271605479989,None,,,,,,,,,,,,,,,,,,,,,,,,,,,,,,,,,,,,,,,,,,,,001,88,2020_Feb_06_1250,spring_faces,3.1.5,60.10325643266235,
,,,,,,,,,,,,,,,,,,,,,,,,,,,,,,,,,,,,,,,,,,,,,,,,,,,,,,,,,,,,,,,,,,,,,,,,,,,,,,,,,,,,,,,,,,,,,,,,,,,,,,,,514.9112191489985,None,space,15.581032690999564,519.9107277929998,None,,,,,,,,,,,,,,,,,,,,,,,,,,,,,,,,,,,,,,001,88,2020_Feb_06_1250,spring_faces,3.1.5,60.10325643266235,
condition files/Stage1_1.xlsx,,B2,T1,m,"['c', 'm']","['Clue', 'Monopoly']","[-0.15, 0.5]","[0.15, 0.5]",1,1,,,,,,,,,0,0,0,0,0,0,0,2,,,,,,,,,,,,,,,,,,,,,,,,,,,,,,,,,,,,,,,,,,,,,,,,,,,,,,,535.5437867649998,None,535.5437867649998,None,535.5437867649998,None,c,0,2.206455318000735,537.0773503719993,None,537.0773503719993,None,537.0773503719993,None,539.3607563509995,None,539.3607563509995,None,539.3607563509995,None,539.3607563509995,None,,,,,,,519.9107277929998,None,,,,,,,,,,,,,,,,,,,,,,,,,,,,,,,,,,,,001,88,2020_Feb_06_1250,spring_faces,3.1.5,60.10325643266235,
condition files/Stage1_1.xlsx,,B4,T4,m,"['c', 'm']","['Clue', 'Monopoly']","[-0.15, 0.5]","[0.15, 0.5]",1,1,,,,,,,,,0,0,0,0,0,1,1,7,,,,,,,,,,,,,,,,,,,,,,,,,,,,,,,,,,,,,,,,,,,,,,,,,,,,,,,541.3106646589986,None,541.3106646589986,None,541.3106646589986,None,c,0,0.8379686270000093,542.8458674329995,None,542.8458674329995,None,542.8458674329995,None,543.7441896539985,None,543.7441896539985,None,543.7441896539985,None,543.7441896539985,None,,,,,,,,,,,,,,,,,,,,,,,,,,,,,,,,,,,,,,,,,,,,001,88,2020_Feb_06_1250,spring_faces,3.1.5,60.10325643266235,
condition files/Stage1_1.xlsx,,T4,B3,m,"['c', 'm']","['Clue', 'Monopoly']","[-0.15, 0.5]","[0.15, 0.5]",1,1,,,,,,,,,0,0,0,0,0,2,2,6,,,,,,,,,,,,,,,,,,,,,,,,,,,,,,,,,,,,,,,,,,,,,,,,,,,,,,,545.7112233110001,None,545.7112233110001,None,545.7112233110001,None,m,1,0.7570987939998304,547.2465847759995,None,547.2465847759995,None,547.2465847759995,None,548.0608597559985,None,548.0608597559985,None,548.0608597559985,None,548.0608597559985,None,,,,,,,,,,,,,,,,,,,,,,,,,,,,,,,,,,,,,,,,,,,,001,88,2020_Feb_06_1250,spring_faces,3.1.5,60.10325643266235,
condition files/Stage1_1.xlsx,,T3,B4,c,"['c', 'm']","['Clue', 'Monopoly']","[-0.15, 0.5]","[0.15, 0.5]",1,1,,,,,,,,,0,0,0,0,0,3,3,5,,,,,,,,,,,,,,,,,,,,,,,,,,,,,,,,,,,,,,,,,,,,,,,,,,,,,,,550.0267998849995,None,550.0267998849995,None,550.0267998849995,None,m,0,0.9530912199988961,551.5626690999998,None,551.5626690999998,None,551.5626690999998,None,552.5780489009994,None,552.5780489009994,None,552.5780489009994,None,552.5780489009994,None,,,,,,,,,,,,,,,,,,,,,,,,,,,,,,,,,,,,,,,,,,,,001,88,2020_Feb_06_1250,spring_faces,3.1.5,60.10325643266235,
condition files/Stage1_1.xlsx,,B3,T3,c,"['c', 'm']","['Clue', 'Monopoly']","[-0.15, 0.5]","[0.15, 0.5]",1,1,,,,,,,,,0,0,0,0,0,4,4,4,,,,,,,,,,,,,,,,,,,,,,,,,,,,,,,,,,,,,,,,,,,,,,,,,,,,,,,554.5440784659986,None,554.5440784659986,None,554.5440784659986,None,c,1,1.7492162809994625,556.094527281999,None,556.094527281999,None,556.094527281999,None,557.8935269139984,None,557.8935269139984,None,557.8935269139984,None,557.8935269139984,None,,,,,,,,,,,,,,,,,,,,,,,,,,,,,,,,,,,,,,,,,,,,001,88,2020_Feb_06_1250,spring_faces,3.1.5,60.10325643266235,
condition files/Stage1_1.xlsx,,B1,T2,c,"['c', 'm']","['Clue', 'Monopoly']","[-0.15, 0.5]","[0.15, 0.5]",1,1,,,,,,,,,0,0,0,0,0,5,5,1,,,,,,,,,,,,,,,,,,,,,,,,,,,,,,,,,,,,,,,,,,,,,,,,,,,,,,,559.8608738489984,None,559.8608738489984,None,559.8608738489984,None,m,0,1.4256640130006417,561.394166013999,None,561.394166013999,None,561.394166013999,None,562.8776100259984,None,562.8776100259984,None,562.8776100259984,None,562.8776100259984,None,,,,,,,,,,,,,,,,,,,,,,,,,,,,,,,,,,,,,,,,,,,,001,88,2020_Feb_06_1250,spring_faces,3.1.5,60.10325643266235,
condition files/Stage1_1.xlsx,,T2,B2,m,"['c', 'm']","['Clue', 'Monopoly']","[-0.15, 0.5]","[0.15, 0.5]",1,1,,,,,,,,,0,0,0,0,0,6,6,3,,,,,,,,,,,,,,,,,,,,,,,,,,,,,,,,,,,,,,,,,,,,,,,,,,,,,,,564.8441999769984,None,564.8441999769984,None,564.8441999769984,None,c,0,1.2410816690007778,566.3787320259999,None,566.3787320259999,None,566.3787320259999,None,567.6776551509993,None,567.6776551509993,None,567.6776551509993,None,567.6776551509993,None,,,,,,,,,,,,,,,,,,,,,,,,,,,,,,,,,,,,,,,,,,,,001,88,2020_Feb_06_1250,spring_faces,3.1.5,60.10325643266235,
condition files/Stage1_1.xlsx,,T1,B1,c,"['c', 'm']","['Clue', 'Monopoly']","[-0.15, 0.5]","[0.15, 0.5]",1,1,,,,,,,,,0,0,0,0,0,7,7,0,,,,,,,,,,,,,,,,,,,,,,,,,,,,,,,,,,,,,,,,,,,,,,,,,,,,,,,569.6441461249997,None,569.6441461249997,None,569.6441461249997,None,m,0,3.0180184669989103,571.1776745819989,None,571.1776745819989,None,571.1776745819989,None,574.2609570389995,None,574.2609570389995,None,574.2609570389995,None,574.2609570389995,None,,,,,,,,,,,,,,,,,,,,,,,,,,,,,,,,,,,,,,,,,,,,001,88,2020_Feb_06_1250,spring_faces,3.1.5,60.10325643266235,
condition files/Stage1_2.xlsx,,T4,B4,m,"['c', 'm']","['Clue', 'Monopoly']","[-0.15, 0.5]","[0.15, 0.5]",1,1,,,,,,,,,0,1,1,1,0,0,0,7,,,,,,,,,,,,,,,,,,,,,,,,,,,,,,,,,,,,,,,,,,,,,,,,,,,,,,,576.2438633459988,None,576.2438633459988,None,576.2438633459988,None,m,1,1.537840041999516,577.7779503009988,None,577.7779503009988,None,577.7779503009988,None,579.3781577350001,None,579.3781577350001,None,579.3781577350001,None,579.3781577350001,None,,,,,,,,,,,,,,,,,,,,,,,,,,,,,,,,,,,,,,,,,,,,001,88,2020_Feb_06_1250,spring_faces,3.1.5,60.10325643266235,
condition files/Stage1_2.xlsx,,T3,B3,c,"['c', 'm']","['Clue', 'Monopoly']","[-0.15, 0.5]","[0.15, 0.5]",1,1,,,,,,,,,0,1,1,1,0,1,1,4,,,,,,,,,,,,,,,,,,,,,,,,,,,,,,,,,,,,,,,,,,,,,,,,,,,,,,,581.3440206759988,None,581.3440206759988,None,581.3440206759988,None,c,1,1.159215873998619,582.8766119319989,None,582.8766119319989,None,582.8766119319989,None,584.0960547569994,None,584.0960547569994,None,584.0960547569994,None,584.0960547569994,None,,,,,,,,,,,,,,,,,,,,,,,,,,,,,,,,,,,,,,,,,,,,001,88,2020_Feb_06_1250,spring_faces,3.1.5,60.10325643266235,
condition files/Stage1_2.xlsx,,T1,B2,m,"['c', 'm']","['Clue', 'Monopoly']","[-0.15, 0.5]","[0.15, 0.5]",1,1,,,,,,,,,0,1,1,1,0,2,2,2,,,,,,,,,,,,,,,,,,,,,,,,,,,,,,,,,,,,,,,,,,,,,,,,,,,,,,,586.0605073119987,None,586.0605073119987,None,586.0605073119987,None,c,0,1.5124146899997868,587.595296558,None,587.595296558,None,587.595296558,None,589.1776683169992,None,589.1776683169992,None,589.1776683169992,None,589.1776683169992,None,,,,,,,,,,,,,,,,,,,,,,,,,,,,,,,,,,,,,,,,,,,,001,88,2020_Feb_06_1250,spring_faces,3.1.5,60.10325643266235,
condition files/Stage1_2.xlsx,,B4,T3,c,"['c', 'm']","['Clue', 'Monopoly']","[-0.15, 0.5]","[0.15, 0.5]",1,1,,,,,,,,,0,1,1,1,0,3,3,5,,,,,,,,,,,,,,,,,,,,,,,,,,,,,,,,,,,,,,,,,,,,,,,,,,,,,,,591.1269593599991,None,591.1269593599991,None,591.1269593599991,None,c,1,1.519206643999496,592.6605618859994,None,592.6605618859994,None,592.6605618859994,None,594.2609593649995,None,594.2609593649995,None,594.2609593649995,None,594.2609593649995,None,,,,,,,,,,,,,,,,,,,,,,,,,,,,,,,,,,,,,,,,,,,,001,88,2020_Feb_06_1250,spring_faces,3.1.5,60.10325643266235,
condition files/Stage1_2.xlsx,,B3,T4,m,"['c', 'm']","['Clue', 'Monopoly']","[-0.15, 0.5]","[0.15, 0.5]",1,1,,,,,,,,,0,1,1,1,0,4,4,6,,,,,,,,,,,,,,,,,,,,,,,,,,,,,,,,,,,,,,,,,,,,,,,,,,,,,,,596.2106669899986,None,596.2106669899986,None,596.2106669899986,None,m,1,1.170685446000789,597.7450829439986,None,597.7450829439986,None,597.7450829439986,None,598.9795191189987,None,598.9795191189987,None,598.9795191189987,None,598.9795191189987,None,,,,,,,,,,,,,,,,,,,,,,,,,,,,,,,,,,,,,,,,,,,,001,88,2020_Feb_06_1250,spring_faces,3.1.5,60.10325643266235,
condition files/Stage1_2.xlsx,,B1,T1,c,"['c', 'm']","['Clue', 'Monopoly']","[-0.15, 0.5]","[0.15, 0.5]",1,1,,,,,,,,,0,1,1,1,0,5,5,0,,,,,,,,,,,,,,,,,,,,,,,,,,,,,,,,,,,,,,,,,,,,,,,,,,,,,,,600.944181506,None,600.944181506,None,600.944181506,None,c,1,1.7190822760003357,602.4766614769997,None,602.4766614769997,None,602.4766614769997,None,604.2609655759989,None,604.2609655759989,None,604.2609655759989,None,604.2609655759989,None,,,,,,,,,,,,,,,,,,,,,,,,,,,,,,,,,,,,,,,,,,,,001,88,2020_Feb_06_1250,spring_faces,3.1.5,60.10325643266235,
condition files/Stage1_2.xlsx,,T2,B1,c,"['c', 'm']","['Clue', 'Monopoly']","[-0.15, 0.5]","[0.15, 0.5]",1,1,,,,,,,,,0,1,1,1,0,6,6,1,,,,,,,,,,,,,,,,,,,,,,,,,,,,,,,,,,,,,,,,,,,,,,,,,,,,,,,606.2274729829987,None,606.2274729829987,None,606.2274729829987,None,c,1,1.2819341810009064,607.7778053779984,None,607.7778053779984,None,607.7778053779984,None,609.1104783559986,None,609.1104783559986,None,609.1104783559986,None,609.1104783559986,None,,,,,,,,,,,,,,,,,,,,,,,,,,,,,,,,,,,,,,,,,,,,001,88,2020_Feb_06_1250,spring_faces,3.1.5,60.10325643266235,
condition files/Stage1_2.xlsx,,B2,T2,m,"['c', 'm']","['Clue', 'Monopoly']","[-0.15, 0.5]","[0.15, 0.5]",1,1,,,,,,,,,0,1,1,1,0,7,7,3,,,,,,,,,,,,,,,,,,,,,,,,,,,,,,,,,,,,,,,,,,,,,,,,,,,,,,,611.0768982219997,None,611.0768982219997,None,611.0768982219997,None,c,0,1.3110623149987077,612.6126941209986,None,612.6126941209986,None,612.6126941209986,None,613.9942763449999,None,613.9942763449999,None,613.9942763449999,None,613.9942763449999,None,,,,,,,,,,,,,,,,,,,,,,,,,,,,,,,,,,,,,,,,,,,,001,88,2020_Feb_06_1250,spring_faces,3.1.5,60.10325643266235,
condition files/Stage1_1.xlsx,,T3,B4,c,"['c', 'm']","['Clue', 'Monopoly']","[-0.15, 0.5]","[0.15, 0.5]",1,1,,,,,,,,,0,2,2,2,0,0,0,5,,,,,,,,,,,,,,,,,,,,,,,,,,,,,,,,,,,,,,,,,,,,,,,,,,,,,,,615.9607437729992,None,615.9607437729992,None,615.9607437729992,None,c,1,0.924667295999825,617.5111609779997,None,617.5111609779997,None,617.5111609779997,None,618.5111308189989,None,618.5111308189989,None,618.5111308189989,None,618.5111308189989,None,,,,,,,,,,,,,,,,,,,,,,,,,,,,,,,,,,,,,,,,,,,,001,88,2020_Feb_06_1250,spring_faces,3.1.5,60.10325643266235,
condition files/Stage1_1.xlsx,,B3,T3,c,"['c', 'm']","['Clue', 'Monopoly']","[-0.15, 0.5]","[0.15, 0.5]",1,1,,,,,,,,,0,2,2,2,0,1,1,4,,,,,,,,,,,,,,,,,,,,,,,,,,,,,,,,,,,,,,,,,,,,,,,,,,,,,,,620.460744951999,None,620.460744951999,None,620.460744951999,None,c,1,0.6313302840007964,621.9964129089985,None,621.9964129089985,None,621.9964129089985,None,622.6773568389999,None,622.6773568389999,None,622.6773568389999,None,622.6773568389999,None,,,,,,,,,,,,,,,,,,,,,,,,,,,,,,,,,,,,,,,,,,,,001,88,2020_Feb_06_1250,spring_faces,3.1.5,60.10325643266235,
condition files/Stage1_1.xlsx,,T1,B1,c,"['c', 'm']","['Clue', 'Monopoly']","[-0.15, 0.5]","[0.15, 0.5]",1,1,,,,,,,,,0,2,2,2,0,2,2,0,,,,,,,,,,,,,,,,,,,,,,,,,,,,,,,,,,,,,,,,,,,,,,,,,,,,,,,624.6443055199998,None,624.6443055199998,None,624.6443055199998,None,c,1,1.3774120950001816,626.1783141659998,None,626.1783141659998,None,626.1783141659998,None,627.6111809260001,None,627.6111809260001,None,627.6111809260001,None,627.6111809260001,None,,,,,,,,,,,,,,,,,,,,,,,,,,,,,,,,,,,,,,,,,,,,001,88,2020_Feb_06_1250,spring_faces,3.1.5,60.10325643266235,
condition files/Stage1_1.xlsx,,B4,T4,m,"['c', 'm']","['Clue', 'Monopoly']","[-0.15, 0.5]","[0.15, 0.5]",1,1,,,,,,,,,0,2,2,2,0,3,3,7,,,,,,,,,,,,,,,,,,,,,,,,,,,,,,,,,,,,,,,,,,,,,,,,,,,,,,,629.577449163,None,629.577449163,None,629.577449163,None,m,1,0.956540627999857,631.1272691059985,None,631.1272691059985,None,631.1272691059985,None,632.16074897,None,632.16074897,None,632.16074897,None,632.16074897,None,,,,,,,,,,,,,,,,,,,,,,,,,,,,,,,,,,,,,,,,,,,,001,88,2020_Feb_06_1250,spring_faces,3.1.5,60.10325643266235,
condition files/Stage1_1.xlsx,,T4,B3,m,"['c', 'm']","['Clue', 'Monopoly']","[-0.15, 0.5]","[0.15, 0.5]",1,1,,,,,,,,,0,2,2,2,0,4,4,6,,,,,,,,,,,,,,,,,,,,,,,,,,,,,,,,,,,,,,,,,,,,,,,,,,,,,,,634.1106663189985,None,634.1106663189985,None,634.1106663189985,None,m,1,0.7589872570006264,635.6447473049993,None,635.6447473049993,None,635.6447473049993,None,636.4614337399998,None,636.4614337399998,None,636.4614337399998,None,636.4614337399998,None,,,,,,,,,,,,,,,,,,,,,,,,,,,,,,,,,,,,,,,,,,,,001,88,2020_Feb_06_1250,spring_faces,3.1.5,60.10325643266235,
condition files/Stage1_1.xlsx,,B2,T1,m,"['c', 'm']","['Clue', 'Monopoly']","[-0.15, 0.5]","[0.15, 0.5]",1,1,,,,,,,,,0,2,2,2,0,5,5,2,,,,,,,,,,,,,,,,,,,,,,,,,,,,,,,,,,,,,,,,,,,,,,,,,,,,,,,638.4272817129986,None,638.4272817129986,None,638.4272817129986,None,c,0,1.2431620660008775,639.9605804769999,None,639.9605804769999,None,639.9605804769999,None,641.2609667969991,None,641.2609667969991,None,641.2609667969991,None,641.2609667969991,None,,,,,,,,,,,,,,,,,,,,,,,,,,,,,,,,,,,,,,,,,,,,001,88,2020_Feb_06_1250,spring_faces,3.1.5,60.10325643266235,
condition files/Stage1_1.xlsx,,B1,T2,c,"['c', 'm']","['Clue', 'Monopoly']","[-0.15, 0.5]","[0.15, 0.5]",1,1,,,,,,,,,0,2,2,2,0,6,6,1,,,,,,,,,,,,,,,,,,,,,,,,,,,,,,,,,,,,,,,,,,,,,,,,,,,,,,,643.227548425999,None,643.227548425999,None,643.227548425999,None,c,1,2.552612417999626,644.7631579499994,None,644.7631579499994,None,644.7631579499994,None,647.3770247389984,None,647.3770247389984,None,647.3770247389984,None,647.3770247389984,None,,,,,,,,,,,,,,,,,,,,,,,,,,,,,,,,,,,,,,,,,,,,001,88,2020_Feb_06_1250,spring_faces,3.1.5,60.10325643266235,
condition files/Stage1_1.xlsx,,T2,B2,m,"['c', 'm']","['Clue', 'Monopoly']","[-0.15, 0.5]","[0.15, 0.5]",1,1,,,,,,,,,0,2,2,2,0,7,7,3,,,,,,,,,,,,,,,,,,,,,,,,,,,,,,,,,,,,,,,,,,,,,,,,,,,,,,,649.3435983999989,None,649.3435983999989,None,649.3435983999989,None,c,0,0.9962315150005452,650.8795279239985,None,650.8795279239985,None,650.8795279239985,None,651.9273000699995,None,651.9273000699995,None,651.9273000699995,None,651.9273000699995,None,,,,,,,,,,,,,,,,,,,,,,,,,,,,,,,,,,,,,,,,,,,,001,88,2020_Feb_06_1250,spring_faces,3.1.5,60.10325643266235,
condition files/Stage1_2.xlsx,,B4,T3,c,"['c', 'm']","['Clue', 'Monopoly']","[-0.15, 0.5]","[0.15, 0.5]",1,1,,,,,,,,,0,3,3,3,0,0,0,5,,,,,,,,,,,,,,,,,,,,,,,,,,,,,,,,,,,,,,,,,,,,,,,,,,,,,,,653.9110184779984,None,653.9110184779984,None,653.9110184779984,None,c,1,0.9598868910015881,655.443844894,None,655.443844894,None,655.443844894,None,656.4616287899989,None,656.4616287899989,None,656.4616287899989,None,656.4616287899989,None,,,,,,,,,,,,,,,,,,,,,,,,,,,,,,,,,,,,,,,,,,,,001,88,2020_Feb_06_1250,spring_faces,3.1.5,60.10325643266235,
condition files/Stage1_2.xlsx,,B3,T4,m,"['c', 'm']","['Clue', 'Monopoly']","[-0.15, 0.5]","[0.15, 0.5]",1,1,,,,,,,,,0,3,3,3,0,1,1,6,,,,,,,,,,,,,,,,,,,,,,,,,,,,,,,,,,,,,,,,,,,,,,,,,,,,,,,658.427511943999,None,658.427511943999,None,658.427511943999,None,m,1,1.096518553000351,659.963240179999,None,659.963240179999,None,659.963240179999,None,661.1122499339999,None,661.1122499339999,None,661.1122499339999,None,661.1122499339999,None,,,,,,,,,,,,,,,,,,,,,,,,,,,,,,,,,,,,,,,,,,,,001,88,2020_Feb_06_1250,spring_faces,3.1.5,60.10325643266235,
condition files/Stage1_2.xlsx,,T2,B1,c,"['c', 'm']","['Clue', 'Monopoly']","[-0.15, 0.5]","[0.15, 0.5]",1,1,,,,,,,,,0,3,3,3,0,2,2,1,,,,,,,,,,,,,,,,,,,,,,,,,,,,,,,,,,,,,,,,,,,,,,,,,,,,,,,663.077424567,None,663.077424567,None,663.077424567,None,c,1,0.9603312570015987,664.6114409189995,None,664.6114409189995,None,664.6114409189995,None,665.628851817999,None,665.628851817999,None,665.628851817999,None,665.628851817999,None,,,,,,,,,,,,,,,,,,,,,,,,,,,,,,,,,,,,,,,,,,,,001,88,2020_Feb_06_1250,spring_faces,3.1.5,60.10325643266235,
condition files/Stage1_2.xlsx,,T3,B3,c,"['c', 'm']","['Clue', 'Monopoly']","[-0.15, 0.5]","[0.15, 0.5]",1,1,,,,,,,,,0,3,3,3,0,3,3,4,,,,,,,,,,,,,,,,,,,,,,,,,,,,,,,,,,,,,,,,,,,,,,,,,,,,,,,667.5941320599995,None,667.5941320599995,None,667.5941320599995,None,c,1,1.18064301800041,669.1270611809996,None,669.1270611809996,None,669.1270611809996,None,670.3608993149992,None,670.3608993149992,None,670.3608993149992,None,670.3608993149992,None,,,,,,,,,,,,,,,,,,,,,,,,,,,,,,,,,,,,,,,,,,,,001,88,2020_Feb_06_1250,spring_faces,3.1.5,60.10325643266235,
condition files/Stage1_2.xlsx,,B1,T1,c,"['c', 'm']","['Clue', 'Monopoly']","[-0.15, 0.5]","[0.15, 0.5]",1,1,,,,,,,,,0,3,3,3,0,4,4,0,,,,,,,,,,,,,,,,,,,,,,,,,,,,,,,,,,,,,,,,,,,,,,,,,,,,,,,672.3272867469987,None,672.3272867469987,None,672.3272867469987,None,m,0,1.0219919349983684,673.8777630579989,None,673.8777630579989,None,673.8777630579989,None,674.9610293559999,None,674.9610293559999,None,674.9610293559999,None,674.9610293559999,None,,,,,,,,,,,,,,,,,,,,,,,,,,,,,,,,,,,,,,,,,,,,001,88,2020_Feb_06_1250,spring_faces,3.1.5,60.10325643266235,
condition files/Stage1_2.xlsx,,B2,T2,m,"['c', 'm']","['Clue', 'Monopoly']","[-0.15, 0.5]","[0.15, 0.5]",1,1,,,,,,,,,0,3,3,3,0,5,5,3,,,,,,,,,,,,,,,,,,,,,,,,,,,,,,,,,,,,,,,,,,,,,,,,,,,,,,,676.9272317239993,None,676.9272317239993,None,676.9272317239993,None,c,0,1.685559146999367,678.4622101589994,None,678.4622101589994,None,678.4622101589994,None,680.2105908369995,None,680.2105908369995,None,680.2105908369995,None,680.2105908369995,None,,,,,,,,,,,,,,,,,,,,,,,,,,,,,,,,,,,,,,,,,,,,001,88,2020_Feb_06_1250,spring_faces,3.1.5,60.10325643266235,
condition files/Stage1_2.xlsx,,T1,B2,m,"['c', 'm']","['Clue', 'Monopoly']","[-0.15, 0.5]","[0.15, 0.5]",1,1,,,,,,,,,0,3,3,3,0,6,6,2,,,,,,,,,,,,,,,,,,,,,,,,,,,,,,,,,,,,,,,,,,,,,,,,,,,,,,,682.1772756459995,None,682.1772756459995,None,682.1772756459995,None,m,1,1.5405566899989935,683.7112700319994,None,683.7112700319994,None,683.7112700319994,None,685.3110093790001,None,685.3110093790001,None,685.3110093790001,None,685.3110093790001,None,,,,,,,,,,,,,,,,,,,,,,,,,,,,,,,,,,,,,,,,,,,,001,88,2020_Feb_06_1250,spring_faces,3.1.5,60.10325643266235,
condition files/Stage1_2.xlsx,,T4,B4,m,"['c', 'm']","['Clue', 'Monopoly']","[-0.15, 0.5]","[0.15, 0.5]",1,1,,,,,,,,,0,3,3,3,0,7,7,7,,,,,,,,,,,,,,,,,,,,,,,,,,,,,,,,,,,,,,,,,,,,,,,,,,,,,,,687.2771077889993,None,687.2771077889993,None,687.2771077889993,None,m,1,0.8553259830005118,688.8125055499986,None,688.8125055499986,None,688.8125055499986,None,689.7277174430001,None,689.7277174430001,None,689.7277174430001,None,689.7277174430001,None,,,,,,,,,,,,,,,,,,,,,,,,,,,,,,,,,,,,,,,,,,,,001,88,2020_Feb_06_1250,spring_faces,3.1.5,60.10325643266235,
condition files/Stage1_1.xlsx,,B2,T1,m,"['c', 'm']","['Clue', 'Monopoly']","[-0.15, 0.5]","[0.15, 0.5]",1,1,,,,,,,,,0,4,4,4,0,0,0,2,,,,,,,,,,,,,,,,,,,,,,,,,,,,,,,,,,,,,,,,,,,,,,,,,,,,,,,691.7112121689988,None,691.7112121689988,None,691.7112121689988,None,m,1,1.8958005010008492,693.2439298619993,None,693.2439298619993,None,693.2439298619993,None,695.1943433719989,None,695.1943433719989,None,695.1943433719989,None,695.1943433719989,None,,,,,,,,,,,,,,,,,,,,,,,,,,,,,,,,,,,,,,,,,,,,001,88,2020_Feb_06_1250,spring_faces,3.1.5,60.10325643266235,
condition files/Stage1_1.xlsx,,T1,B1,c,"['c', 'm']","['Clue', 'Monopoly']","[-0.15, 0.5]","[0.15, 0.5]",1,1,,,,,,,,,0,4,4,4,0,1,1,0,,,,,,,,,,,,,,,,,,,,,,,,,,,,,,,,,,,,,,,,,,,,,,,,,,,,,,,697.1607184899985,None,697.1607184899985,None,697.1607184899985,None,m,0,1.2431308459999855,698.6966469049985,None,698.6966469049985,None,698.6966469049985,None,699.9947482629996,None,699.9947482629996,None,699.9947482629996,None,699.9947482629996,None,,,,,,,,,,,,,,,,,,,,,,,,,,,,,,,,,,,,,,,,,,,,001,88,2020_Feb_06_1250,spring_faces,3.1.5,60.10325643266235,
condition files/Stage1_1.xlsx,,B3,T3,c,"['c', 'm']","['Clue', 'Monopoly']","[-0.15, 0.5]","[0.15, 0.5]",1,1,,,,,,,,,0,4,4,4,0,2,2,4,,,,,,,,,,,,,,,,,,,,,,,,,,,,,,,,,,,,,,,,,,,,,,,,,,,,,,,701.9601567119989,None,701.9601567119989,None,701.9601567119989,None,c,1,1.0050599240003066,703.4947325639987,None,703.4947325639987,None,703.4947325639987,None,704.560907006,None,704.560907006,None,704.560907006,None,704.560907006,None,,,,,,,,,,,,,,,,,,,,,,,,,,,,,,,,,,,,,,,,,,,,001,88,2020_Feb_06_1250,spring_faces,3.1.5,60.10325643266235,
condition files/Stage1_1.xlsx,,T3,B4,c,"['c', 'm']","['Clue', 'Monopoly']","[-0.15, 0.5]","[0.15, 0.5]",1,1,,,,,,,,,0,4,4,4,0,3,3,5,,,,,,,,,,,,,,,,,,,,,,,,,,,,,,,,,,,,,,,,,,,,,,,,,,,,,,,706.5270163810001,None,706.5270163810001,None,706.5270163810001,None,c,1,0.9503292350000265,708.0614091979987,None,708.0614091979987,None,708.0614091979987,None,709.0775677080001,None,709.0775677080001,None,709.0775677080001,None,709.0775677080001,None,,,,,,,,,,,,,,,,,,,,,,,,,,,,,,,,,,,,,,,,,,,,001,88,2020_Feb_06_1250,spring_faces,3.1.5,60.10325643266235,
condition files/Stage1_1.xlsx,,T4,B3,m,"['c', 'm']","['Clue', 'Monopoly']","[-0.15, 0.5]","[0.15, 0.5]",1,1,,,,,,,,,0,4,4,4,0,4,4,6,,,,,,,,,,,,,,,,,,,,,,,,,,,,,,,,,,,,,,,,,,,,,,,,,,,,,,,711.0440291279992,None,711.0440291279992,None,711.0440291279992,None,m,1,1.0731277550003142,712.594680926999,None,712.594680926999,None,712.594680926999,None,713.7284865829988,None,713.7284865829988,None,713.7284865829988,None,713.7284865829988,None,,,,,,,,,,,,,,,,,,,,,,,,,,,,,,,,,,,,,,,,,,,,001,88,2020_Feb_06_1250,spring_faces,3.1.5,60.10325643266235,
condition files/Stage1_1.xlsx,,B4,T4,m,"['c', 'm']","['Clue', 'Monopoly']","[-0.15, 0.5]","[0.15, 0.5]",1,1,,,,,,,,,0,4,4,4,0,5,5,7,,,,,,,,,,,,,,,,,,,,,,,,,,,,,,,,,,,,,,,,,,,,,,,,,,,,,,,715.694067127999,None,715.694067127999,None,715.694067127999,None,m,1,0.87221458500062,717.2275577619985,None,717.2275577619985,None,717.2275577619985,None,718.1609294760001,None,718.1609294760001,None,718.1609294760001,None,718.1609294760001,None,,,,,,,,,,,,,,,,,,,,,,,,,,,,,,,,,,,,,,,,,,,,001,88,2020_Feb_06_1250,spring_faces,3.1.5,60.10325643266235,
condition files/Stage1_1.xlsx,,T2,B2,m,"['c', 'm']","['Clue', 'Monopoly']","[-0.15, 0.5]","[0.15, 0.5]",1,1,,,,,,,,,0,4,4,4,0,6,6,3,,,,,,,,,,,,,,,,,,,,,,,,,,,,,,,,,,,,,,,,,,,,,,,,,,,,,,,720.127535657999,None,720.127535657999,None,720.127535657999,None,c,0,1.27015081799982,721.677608259999,None,721.677608259999,None,721.677608259999,None,723.0110501749987,None,723.0110501749987,None,723.0110501749987,None,723.0110501749987,None,,,,,,,,,,,,,,,,,,,,,,,,,,,,,,,,,,,,,,,,,,,,001,88,2020_Feb_06_1250,spring_faces,3.1.5,60.10325643266235,
condition files/Stage1_1.xlsx,,B1,T2,c,"['c', 'm']","['Clue', 'Monopoly']","[-0.15, 0.5]","[0.15, 0.5]",1,1,,,,,,,,,0,4,4,4,0,7,7,1,,,,,,,,,,,,,,,,,,,,,,,,,,,,,,,,,,,,,,,,,,,,,,,,,,,,,,,724.97743429,None,724.97743429,None,724.97743429,None,c,1,2.5651848090001295,726.5105705199985,None,726.5105705199985,None,726.5105705199985,None,729.1442759889997,None,729.1442759889997,None,729.1442759889997,None,729.1442759889997,None,,,,,,,,,,,,,,,,,,,,,,,,,,,,,,,,,,,,,,,,,,,,001,88,2020_Feb_06_1250,spring_faces,3.1.5,60.10325643266235,
condition files/Stage1_2.xlsx,,B3,T4,m,"['c', 'm']","['Clue', 'Monopoly']","[-0.15, 0.5]","[0.15, 0.5]",1,1,,,,,,,,,0,5,5,5,0,0,0,6,,,,,,,,,,,,,,,,,,,,,,,,,,,,,,,,,,,,,,,,,,,,,,,,,,,,,,,731.1109958529996,None,731.1109958529996,None,731.1109958529996,None,m,1,0.9119604070001515,732.643748388,None,732.643748388,None,732.643748388,None,733.6110288839991,None,733.6110288839991,None,733.6110288839991,None,733.6110288839991,None,,,,,,,,,,,,,,,,,,,,,,,,,,,,,,,,,,,,,,,,,,,,001,88,2020_Feb_06_1250,spring_faces,3.1.5,60.10325643266235,
condition files/Stage1_2.xlsx,,T4,B4,m,"['c', 'm']","['Clue', 'Monopoly']","[-0.15, 0.5]","[0.15, 0.5]",1,1,,,,,,,,,0,5,5,5,0,1,1,7,,,,,,,,,,,,,,,,,,,,,,,,,,,,,,,,,,,,,,,,,,,,,,,,,,,,,,,735.5765321959989,None,735.5765321959989,None,735.5765321959989,None,m,1,0.8612489989991445,737.1104898469985,None,737.1104898469985,None,737.1104898469985,None,738.027192436999,None,738.027192436999,None,738.027192436999,None,738.027192436999,None,,,,,,,,,,,,,,,,,,,,,,,,,,,,,,,,,,,,,,,,,,,,001,88,2020_Feb_06_1250,spring_faces,3.1.5,60.10325643266235,
condition files/Stage1_2.xlsx,,T3,B3,c,"['c', 'm']","['Clue', 'Monopoly']","[-0.15, 0.5]","[0.15, 0.5]",1,1,,,,,,,,,0,5,5,5,0,2,2,4,,,,,,,,,,,,,,,,,,,,,,,,,,,,,,,,,,,,,,,,,,,,,,,,,,,,,,,739.9937051219986,None,739.9937051219986,None,739.9937051219986,None,c,1,0.9237568980006472,741.5280669499989,None,741.5280669499989,None,741.5280669499989,None,742.5277876719992,None,742.5277876719992,None,742.5277876719992,None,742.5277876719992,None,,,,,,,,,,,,,,,,,,,,,,,,,,,,,,,,,,,,,,,,,,,,001,88,2020_Feb_06_1250,spring_faces,3.1.5,60.10325643266235,
condition files/Stage1_2.xlsx,,B4,T3,c,"['c', 'm']","['Clue', 'Monopoly']","[-0.15, 0.5]","[0.15, 0.5]",1,1,,,,,,,,,0,5,5,5,0,3,3,5,,,,,,,,,,,,,,,,,,,,,,,,,,,,,,,,,,,,,,,,,,,,,,,,,,,,,,,744.4770589259988,None,744.4770589259988,None,744.4770589259988,None,c,1,0.8562339460004296,746.0275828489994,None,746.0275828489994,None,746.0275828489994,None,746.9442362749996,None,746.9442362749996,None,746.9442362749996,None,746.9442362749996,None,,,,,,,,,,,,,,,,,,,,,,,,,,,,,,,,,,,,,,,,,,,,001,88,2020_Feb_06_1250,spring_faces,3.1.5,60.10325643266235,
condition files/Stage1_2.xlsx,,B2,T2,m,"['c', 'm']","['Clue', 'Monopoly']","[-0.15, 0.5]","[0.15, 0.5]",1,1,,,,,,,,,0,5,5,5,0,4,4,3,,,,,,,,,,,,,,,,,,,,,,,,,,,,,,,,,,,,,,,,,,,,,,,,,,,,,,,748.9106871749991,None,748.9106871749991,None,748.9106871749991,None,c,0,1.847245966000628,750.4445141289998,None,750.4445141289998,None,750.4445141289998,None,752.3461680579985,None,752.3461680579985,None,752.3461680579985,None,752.3461680579985,None,,,,,,,,,,,,,,,,,,,,,,,,,,,,,,,,,,,,,,,,,,,,001,88,2020_Feb_06_1250,spring_faces,3.1.5,60.10325643266235,
condition files/Stage1_2.xlsx,,T1,B2,m,"['c', 'm']","['Clue', 'Monopoly']","[-0.15, 0.5]","[0.15, 0.5]",1,1,,,,,,,,,0,5,5,5,0,5,5,2,,,,,,,,,,,,,,,,,,,,,,,,,,,,,,,,,,,,,,,,,,,,,,,,,,,,,,,754.3101589459984,None,754.3101589459984,None,754.3101589459984,None,c,0,0.912195212998995,755.8435576060001,None,755.8435576060001,None,755.8435576060001,None,756.8106309989998,None,756.8106309989998,None,756.8106309989998,None,756.8106309989998,None,,,,,,,,,,,,,,,,,,,,,,,,,,,,,,,,,,,,,,,,,,,,001,88,2020_Feb_06_1250,spring_faces,3.1.5,60.10325643266235,
condition files/Stage1_2.xlsx,,B1,T1,c,"['c', 'm']","['Clue', 'Monopoly']","[-0.15, 0.5]","[0.15, 0.5]",1,1,,,,,,,,,0,5,5,5,0,6,6,0,,,,,,,,,,,,,,,,,,,,,,,,,,,,,,,,,,,,,,,,,,,,,,,,,,,,,,,758.7783209079989,None,758.7783209079989,None,758.7783209079989,None,c,1,1.4197384779999993,760.312055729999,None,760.312055729999,None,760.312055729999,None,761.7954170550001,None,761.7954170550001,None,761.7954170550001,None,761.7954170550001,None,,,,,,,,,,,,,,,,,,,,,,,,,,,,,,,,,,,,,,,,,,,,001,88,2020_Feb_06_1250,spring_faces,3.1.5,60.10325643266235,
condition files/Stage1_2.xlsx,,T2,B1,c,"['c', 'm']","['Clue', 'Monopoly']","[-0.15, 0.5]","[0.15, 0.5]",1,1,,,,,,,,,0,5,5,5,0,7,7,1,,,,,,,,,,,,,,,,,,,,,,,,,,,,,,,,,,,,,,,,,,,,,,,,,,,,,,,763.7609271999991,None,763.7609271999991,None,763.7609271999991,None,c,1,1.6859398750002583,765.2938307149998,None,765.2938307149998,None,765.2938307149998,None,767.044597307,None,767.044597307,None,767.044597307,None,767.044597307,None,,,,,,,,,,,,,,,,,,,,,,,,,,,,,,,,,,,,,,,,,,,,001,88,2020_Feb_06_1250,spring_faces,3.1.5,60.10325643266235,
condition files/Stage1_1.xlsx,,T1,B1,c,"['c', 'm']","['Clue', 'Monopoly']","[-0.15, 0.5]","[0.15, 0.5]",1,1,,,,,,,,,0,6,6,6,0,0,0,0,,,,,,,,,,,,,,,,,,,,,,,,,,,,,,,,,,,,,,,,,,,,,,,,,,,,,,,769.0276553160002,None,769.0276553160002,None,769.0276553160002,None,c,1,1.3630324049991032,770.5607434590002,None,770.5607434590002,None,770.5607434590002,None,771.977249743999,None,771.977249743999,None,771.977249743999,None,771.977249743999,None,,,,,,,,,,,,,,,,,,,,,,,,,,,,,,,,,,,,,,,,,,,,001,88,2020_Feb_06_1250,spring_faces,3.1.5,60.10325643266235,
condition files/Stage1_1.xlsx,,T4,B3,m,"['c', 'm']","['Clue', 'Monopoly']","[-0.15, 0.5]","[0.15, 0.5]",1,1,,,,,,,,,0,6,6,6,0,1,1,6,,,,,,,,,,,,,,,,,,,,,,,,,,,,,,,,,,,,,,,,,,,,,,,,,,,,,,,773.9439910609999,None,773.9439910609999,None,773.9439910609999,None,m,1,0.7488703080016421,775.4788674519987,None,775.4788674519987,None,775.4788674519987,None,776.2803198879992,None,776.2803198879992,None,776.2803198879992,None,776.2803198879992,None,,,,,,,,,,,,,,,,,,,,,,,,,,,,,,,,,,,,,,,,,,,,001,88,2020_Feb_06_1250,spring_faces,3.1.5,60.10325643266235,
condition files/Stage1_1.xlsx,,B1,T2,c,"['c', 'm']","['Clue', 'Monopoly']","[-0.15, 0.5]","[0.15, 0.5]",1,1,,,,,,,,,0,6,6,6,0,2,2,1,,,,,,,,,,,,,,,,,,,,,,,,,,,,,,,,,,,,,,,,,,,,,,,,,,,,,,,778.2434683449992,None,778.2434683449992,None,778.2434683449992,None,c,1,1.2971939350009052,779.7785648190002,None,779.7785648190002,None,779.7785648190002,None,781.128590545999,None,781.128590545999,None,781.128590545999,None,781.128590545999,None,,,,,,,,,,,,,,,,,,,,,,,,,,,,,,,,,,,,,,,,,,,,001,88,2020_Feb_06_1250,spring_faces,3.1.5,60.10325643266235,
condition files/Stage1_1.xlsx,,B2,T1,m,"['c', 'm']","['Clue', 'Monopoly']","[-0.15, 0.5]","[0.15, 0.5]",1,1,,,,,,,,,0,6,6,6,0,3,3,2,,,,,,,,,,,,,,,,,,,,,,,,,,,,,,,,,,,,,,,,,,,,,,,,,,,,,,,783.094342983999,None,783.094342983999,None,783.094342983999,None,m,1,1.3118662159995438,784.6278548189985,None,784.6278548189985,None,784.6278548189985,None,785.995898924999,None,785.995898924999,None,785.995898924999,None,785.995898924999,None,,,,,,,,,,,,,,,,,,,,,,,,,,,,,,,,,,,,,,,,,,,,001,88,2020_Feb_06_1250,spring_faces,3.1.5,60.10325643266235,
condition files/Stage1_1.xlsx,,B4,T4,m,"['c', 'm']","['Clue', 'Monopoly']","[-0.15, 0.5]","[0.15, 0.5]",1,1,,,,,,,,,0,6,6,6,0,4,4,7,,,,,,,,,,,,,,,,,,,,,,,,,,,,,,,,,,,,,,,,,,,,,,,,,,,,,,,787.9607167879985,None,787.9607167879985,None,787.9607167879985,None,m,1,0.829183522000676,789.4945881779986,None,789.4945881779986,None,789.4945881779986,None,790.3780192009999,None,790.3780192009999,None,790.3780192009999,None,790.3780192009999,None,,,,,,,,,,,,,,,,,,,,,,,,,,,,,,,,,,,,,,,,,,,,001,88,2020_Feb_06_1250,spring_faces,3.1.5,60.10325643266235,
condition files/Stage1_1.xlsx,,T2,B2,m,"['c', 'm']","['Clue', 'Monopoly']","[-0.15, 0.5]","[0.15, 0.5]",1,1,,,,,,,,,0,6,6,6,0,5,5,3,,,,,,,,,,,,,,,,,,,,,,,,,,,,,,,,,,,,,,,,,,,,,,,,,,,,,,,792.3441147220001,None,792.3441147220001,None,792.3441147220001,None,c,0,1.0533054160005122,793.8944442739994,None,793.8944442739994,None,793.8944442739994,None,795.0107360859984,None,795.0107360859984,None,795.0107360859984,None,795.0107360859984,None,,,,,,,,,,,,,,,,,,,,,,,,,,,,,,,,,,,,,,,,,,,,001,88,2020_Feb_06_1250,spring_faces,3.1.5,60.10325643266235,
condition files/Stage1_1.xlsx,,T3,B4,c,"['c', 'm']","['Clue', 'Monopoly']","[-0.15, 0.5]","[0.15, 0.5]",1,1,,,,,,,,,0,6,6,6,0,6,6,5,,,,,,,,,,,,,,,,,,,,,,,,,,,,,,,,,,,,,,,,,,,,,,,,,,,,,,,796.9772830080001,None,796.9772830080001,None,796.9772830080001,None,c,1,0.7095080710005277,798.5103283159988,None,798.5103283159988,None,798.5103283159988,None,799.294276564,None,799.294276564,None,799.294276564,None,799.294276564,None,,,,,,,,,,,,,,,,,,,,,,,,,,,,,,,,,,,,,,,,,,,,001,88,2020_Feb_06_1250,spring_faces,3.1.5,60.10325643266235,
condition files/Stage1_1.xlsx,,B3,T3,c,"['c', 'm']","['Clue', 'Monopoly']","[-0.15, 0.5]","[0.15, 0.5]",1,1,,,,,,,,,0,6,6,6,0,7,7,4,,,,,,,,,,,,,,,,,,,,,,,,,,,,,,,,,,,,,,,,,,,,,,,,,,,,,,,801.2437041559988,None,801.2437041559988,None,801.2437041559988,None,c,1,0.7630233030013187,802.7766833149999,None,802.7766833149999,None,802.7766833149999,None,803.5944589849987,None,803.5944589849987,None,803.5944589849987,None,803.5944589849987,None,,,,,,,,,,,,,,,,,,,,,,,,,,,,,,,,,,,,,,,,,,,,001,88,2020_Feb_06_1250,spring_faces,3.1.5,60.10325643266235,
condition files/Stage1_2.xlsx,,B3,T4,m,"['c', 'm']","['Clue', 'Monopoly']","[-0.15, 0.5]","[0.15, 0.5]",1,1,,,,,,,,,0,7,7,7,0,0,0,6,,,,,,,,,,,,,,,,,,,,,,,,,,,,,,,,,,,,,,,,,,,,,,,,,,,,,,,805.577676031,None,805.577676031,None,805.577676031,None,m,1,0.7151888450007391,807.1125341009993,None,807.1125341009993,None,807.1125341009993,None,807.8936881049995,None,807.8936881049995,None,807.8936881049995,None,807.8936881049995,None,,,,,,,,,,,,,,,,,,,,,,,,,,,,,,,,,,,,,,,,,,,,001,88,2020_Feb_06_1250,spring_faces,3.1.5,60.10325643266235,
condition files/Stage1_2.xlsx,,T4,B4,m,"['c', 'm']","['Clue', 'Monopoly']","[-0.15, 0.5]","[0.15, 0.5]",1,1,,,,,,,,,0,7,7,7,0,1,1,7,,,,,,,,,,,,,,,,,,,,,,,,,,,,,,,,,,,,,,,,,,,,,,,,,,,,,,,809.8439760289984,None,809.8439760289984,None,809.8439760289984,None,m,1,0.9445567289985775,811.3792068530001,None,811.3792068530001,None,811.3792068530001,None,812.3777586819997,None,812.3777586819997,None,812.3777586819997,None,812.3777586819997,None,,,,,,,,,,,,,,,,,,,,,,,,,,,,,,,,,,,,,,,,,,,,001,88,2020_Feb_06_1250,spring_faces,3.1.5,60.10325643266235,
condition files/Stage1_2.xlsx,,T2,B1,c,"['c', 'm']","['Clue', 'Monopoly']","[-0.15, 0.5]","[0.15, 0.5]",1,1,,,,,,,,,0,7,7,7,0,2,2,1,,,,,,,,,,,,,,,,,,,,,,,,,,,,,,,,,,,,,,,,,,,,,,,,,,,,,,,814.3437789419986,None,814.3437789419986,None,814.3437789419986,None,c,1,1.3745476000003691,815.877291883,None,815.877291883,None,815.877291883,None,817.3104897649991,None,817.3104897649991,None,817.3104897649991,None,817.3104897649991,None,,,,,,,,,,,,,,,,,,,,,,,,,,,,,,,,,,,,,,,,,,,,001,88,2020_Feb_06_1250,spring_faces,3.1.5,60.10325643266235,
condition files/Stage1_2.xlsx,,B1,T1,c,"['c', 'm']","['Clue', 'Monopoly']","[-0.15, 0.5]","[0.15, 0.5]",1,1,,,,,,,,,0,7,7,7,0,3,3,0,,,,,,,,,,,,,,,,,,,,,,,,,,,,,,,,,,,,,,,,,,,,,,,,,,,,,,,819.2773268479996,None,819.2773268479996,None,819.2773268479996,None,c,1,0.9211465229982423,820.8106286849998,None,820.8106286849998,None,820.8106286849998,None,821.7943256569997,None,821.7943256569997,None,821.7943256569997,None,821.7943256569997,None,,,,,,,,,,,,,,,,,,,,,,,,,,,,,,,,,,,,,,,,,,,,001,88,2020_Feb_06_1250,spring_faces,3.1.5,60.10325643266235,
condition files/Stage1_2.xlsx,,B4,T3,c,"['c', 'm']","['Clue', 'Monopoly']","[-0.15, 0.5]","[0.15, 0.5]",1,1,,,,,,,,,0,7,7,7,0,4,4,5,,,,,,,,,,,,,,,,,,,,,,,,,,,,,,,,,,,,,,,,,,,,,,,,,,,,,,,823.7607145040001,None,823.7607145040001,None,823.7607145040001,None,c,1,0.7413899509992916,825.2944507399989,None,825.2944507399989,None,825.2944507399989,None,826.0941921889989,None,826.0941921889989,None,826.0941921889989,None,826.0941921889989,None,,,,,,,,,,,,,,,,,,,,,,,,,,,,,,,,,,,,,,,,,,,,001,88,2020_Feb_06_1250,spring_faces,3.1.5,60.10325643266235,
condition files/Stage1_2.xlsx,,T1,B2,m,"['c', 'm']","['Clue', 'Monopoly']","[-0.15, 0.5]","[0.15, 0.5]",1,1,,,,,,,,,0,7,7,7,0,5,5,2,,,,,,,,,,,,,,,,,,,,,,,,,,,,,,,,,,,,,,,,,,,,,,,,,,,,,,,828.0608556989991,None,828.0608556989991,None,828.0608556989991,None,m,1,1.4324784559994441,829.6112672239997,None,829.6112672239997,None,829.6112672239997,None,831.1109505669992,None,831.1109505669992,None,831.1109505669992,None,831.1109505669992,None,,,,,,,,,,,,,,,,,,,,,,,,,,,,,,,,,,,,,,,,,,,,001,88,2020_Feb_06_1250,spring_faces,3.1.5,60.10325643266235,
condition files/Stage1_2.xlsx,,T3,B3,c,"['c', 'm']","['Clue', 'Monopoly']","[-0.15, 0.5]","[0.15, 0.5]",1,1,,,,,,,,,0,7,7,7,0,6,6,4,,,,,,,,,,,,,,,,,,,,,,,,,,,,,,,,,,,,,,,,,,,,,,,,,,,,,,,833.0601424669985,None,833.0601424669985,None,833.0601424669985,None,c,1,0.7676409910000075,834.5961286949987,None,834.5961286949987,None,834.5961286949987,None,835.4274324919988,None,835.4274324919988,None,835.4274324919988,None,835.4274324919988,None,,,,,,,,,,,,,,,,,,,,,,,,,,,,,,,,,,,,,,,,,,,,001,88,2020_Feb_06_1250,spring_faces,3.1.5,60.10325643266235,
condition files/Stage1_2.xlsx,,B2,T2,m,"['c', 'm']","['Clue', 'Monopoly']","[-0.15, 0.5]","[0.15, 0.5]",1,1,,,,,,,,,0,7,7,7,0,7,7,3,,,,,,,,,,,,,,,,,,,,,,,,,,,,,,,,,,,,,,,,,,,,,,,,,,,,,,,837.394147903,None,837.394147903,None,837.394147903,None,m,1,1.37999580199903,838.9277649999985,None,838.9277649999985,None,838.9277649999985,None,840.3604086549985,None,840.3604086549985,None,840.3604086549985,None,840.3604086549985,None,,,,,,,,,,,,,,,,,,,,,,,,,,,,,,,,,,,,,,,,,,,,001,88,2020_Feb_06_1250,spring_faces,3.1.5,60.10325643266235,
condition files/Stage1_1.xlsx,,B4,T4,m,"['c', 'm']","['Clue', 'Monopoly']","[-0.15, 0.5]","[0.15, 0.5]",1,1,,,,,,,,,0,8,8,8,0,0,0,7,,,,,,,,,,,,,,,,,,,,,,,,,,,,,,,,,,,,,,,,,,,,,,,,,,,,,,,842.3439035519987,None,842.3439035519987,None,842.3439035519987,None,m,1,0.7807182130000001,843.879057487,None,843.879057487,None,843.879057487,None,844.7105367489985,None,844.7105367489985,None,844.7105367489985,None,844.7105367489985,None,,,,,,,,,,,,,,,,,,,,,,,,,,,,,,,,,,,,,,,,,,,,001,88,2020_Feb_06_1250,spring_faces,3.1.5,60.10325643266235,
condition files/Stage1_1.xlsx,,T3,B4,c,"['c', 'm']","['Clue', 'Monopoly']","[-0.15, 0.5]","[0.15, 0.5]",1,1,,,,,,,,,0,8,8,8,0,1,1,5,,,,,,,,,,,,,,,,,,,,,,,,,,,,,,,,,,,,,,,,,,,,,,,,,,,,,,,846.6766012519984,None,846.6766012519984,None,846.6766012519984,None,c,1,0.9758734730003198,848.2278401489984,None,848.2278401489984,None,848.2278401489984,None,849.2603125959995,None,849.2603125959995,None,849.2603125959995,None,849.2603125959995,None,,,,,,,,,,,,,,,,,,,,,,,,,,,,,,,,,,,,,,,,,,,,001,88,2020_Feb_06_1250,spring_faces,3.1.5,60.10325643266235,
condition files/Stage1_1.xlsx,,B2,T1,m,"['c', 'm']","['Clue', 'Monopoly']","[-0.15, 0.5]","[0.15, 0.5]",1,1,,,,,,,,,0,8,8,8,0,2,2,2,,,,,,,,,,,,,,,,,,,,,,,,,,,,,,,,,,,,,,,,,,,,,,,,,,,,,,,851.2268285819991,None,851.2268285819991,None,851.2268285819991,None,m,1,1.5306973820006533,852.7610728669988,None,852.7610728669988,None,852.7610728669988,None,854.3462692469984,None,854.3462692469984,None,854.3462692469984,None,854.3462692469984,None,,,,,,,,,,,,,,,,,,,,,,,,,,,,,,,,,,,,,,,,,,,,001,88,2020_Feb_06_1250,spring_faces,3.1.5,60.10325643266235,
condition files/Stage1_1.xlsx,,B1,T2,c,"['c', 'm']","['Clue', 'Monopoly']","[-0.15, 0.5]","[0.15, 0.5]",1,1,,,,,,,,,0,8,8,8,0,3,3,1,,,,,,,,,,,,,,,,,,,,,,,,,,,,,,,,,,,,,,,,,,,,,,,,,,,,,,,856.3106873449997,None,856.3106873449997,None,856.3106873449997,None,c,1,2.0637124100012443,857.8440027279994,None,857.8440027279994,None,857.8440027279994,None,859.9775472410001,None,859.9775472410001,None,859.9775472410001,None,859.9775472410001,None,,,,,,,,,,,,,,,,,,,,,,,,,,,,,,,,,,,,,,,,,,,,001,88,2020_Feb_06_1250,spring_faces,3.1.5,60.10325643266235,
condition files/Stage1_1.xlsx,,B3,T3,c,"['c', 'm']","['Clue', 'Monopoly']","[-0.15, 0.5]","[0.15, 0.5]",1,1,,,,,,,,,0,8,8,8,0,4,4,4,,,,,,,,,,,,,,,,,,,,,,,,,,,,,,,,,,,,,,,,,,,,,,,,,,,,,,,861.9269566919993,None,861.9269566919993,None,861.9269566919993,None,c,1,0.8782114229998115,863.4615109049992,None,863.4615109049992,None,863.4615109049992,None,864.3939628769986,None,864.3939628769986,None,864.3939628769986,None,864.3939628769986,None,,,,,,,,,,,,,,,,,,,,,,,,,,,,,,,,,,,,,,,,,,,,001,88,2020_Feb_06_1250,spring_faces,3.1.5,60.10325643266235,
condition files/Stage1_1.xlsx,,T2,B2,m,"['c', 'm']","['Clue', 'Monopoly']","[-0.15, 0.5]","[0.15, 0.5]",1,1,,,,,,,,,0,8,8,8,0,5,5,3,,,,,,,,,,,,,,,,,,,,,,,,,,,,,,,,,,,,,,,,,,,,,,,,,,,,,,,866.3604847729985,None,866.3604847729985,None,866.3604847729985,None,m,1,2.17299310800081,867.8948445039987,None,867.8948445039987,None,867.8948445039987,None,870.1288030609994,None,870.1288030609994,None,870.1288030609994,None,870.1288030609994,None,,,,,,,,,,,,,,,,,,,,,,,,,,,,,,,,,,,,,,,,,,,,001,88,2020_Feb_06_1250,spring_faces,3.1.5,60.10325643266235,
condition files/Stage1_1.xlsx,,T1,B1,c,"['c', 'm']","['Clue', 'Monopoly']","[-0.15, 0.5]","[0.15, 0.5]",1,1,,,,,,,,,0,8,8,8,0,6,6,0,,,,,,,,,,,,,,,,,,,,,,,,,,,,,,,,,,,,,,,,,,,,,,,,,,,,,,,872.0940488549986,None,872.0940488549986,None,872.0940488549986,None,c,1,1.494971338999676,873.6287663759995,None,873.6287663759995,None,873.6287663759995,None,875.1942582839984,None,875.1942582839984,None,875.1942582839984,None,875.1942582839984,None,,,,,,,,,,,,,,,,,,,,,,,,,,,,,,,,,,,,,,,,,,,,001,88,2020_Feb_06_1250,spring_faces,3.1.5,60.10325643266235,
condition files/Stage1_1.xlsx,,T4,B3,m,"['c', 'm']","['Clue', 'Monopoly']","[-0.15, 0.5]","[0.15, 0.5]",1,1,,,,,,,,,0,8,8,8,0,7,7,6,,,,,,,,,,,,,,,,,,,,,,,,,,,,,,,,,,,,,,,,,,,,,,,,,,,,,,,877.1440511789988,None,877.1440511789988,None,877.1440511789988,None,m,1,0.8126997999988816,878.6790651109986,None,878.6790651109986,None,878.6790651109986,None,879.5443598469992,None,879.5443598469992,None,879.5443598469992,None,879.5443598469992,None,,,,,,,,,,,,,,,,,,,,,,,,,,,,,,,,,,,,,,,,,,,,001,88,2020_Feb_06_1250,spring_faces,3.1.5,60.10325643266235,
condition files/Stage1_2.xlsx,,B2,T2,m,"['c', 'm']","['Clue', 'Monopoly']","[-0.15, 0.5]","[0.15, 0.5]",1,1,,,,,,,,,0,9,9,9,0,0,0,3,,,,,,,,,,,,,,,,,,,,,,,,,,,,,,,,,,,,,,,,,,,,,,,,,,,,,,,881.5273717949985,None,881.5273717949985,None,881.5273717949985,None,m,1,0.9430954229992494,883.0606355339987,None,883.0606355339987,None,883.0606355339987,None,884.0611401359984,None,884.0611401359984,None,884.0611401359984,None,884.0611401359984,None,,,,,,,,,,,,,,,,,,,,,,,,,,,,,,,,,,,,,,,,,,,,001,88,2020_Feb_06_1250,spring_faces,3.1.5,60.10325643266235,
condition files/Stage1_2.xlsx,,T3,B3,c,"['c', 'm']","['Clue', 'Monopoly']","[-0.15, 0.5]","[0.15, 0.5]",1,1,,,,,,,,,0,9,9,9,0,1,1,4,,,,,,,,,,,,,,,,,,,,,,,,,,,,,,,,,,,,,,,,,,,,,,,,,,,,,,,886.0271076239987,None,886.0271076239987,None,886.0271076239987,None,c,1,0.8113368649992481,887.5603877599988,None,887.5603877599988,None,887.5603877599988,None,888.4270777900001,None,888.4270777900001,None,888.4270777900001,None,888.4270777900001,None,,,,,,,,,,,,,,,,,,,,,,,,,,,,,,,,,,,,,,,,,,,,001,88,2020_Feb_06_1250,spring_faces,3.1.5,60.10325643266235,
condition files/Stage1_2.xlsx,,B4,T3,c,"['c', 'm']","['Clue', 'Monopoly']","[-0.15, 0.5]","[0.15, 0.5]",1,1,,,,,,,,,0,9,9,9,0,2,2,5,,,,,,,,,,,,,,,,,,,,,,,,,,,,,,,,,,,,,,,,,,,,,,,,,,,,,,,890.3940471339993,None,890.3940471339993,None,890.3940471339993,None,c,1,0.8119718630005082,891.9278053529997,None,891.9278053529997,None,891.9278053529997,None,892.7939507809988,None,892.7939507809988,None,892.7939507809988,None,892.7939507809988,None,,,,,,,,,,,,,,,,,,,,,,,,,,,,,,,,,,,,,,,,,,,,001,88,2020_Feb_06_1250,spring_faces,3.1.5,60.10325643266235,
condition files/Stage1_2.xlsx,,B1,T1,c,"['c', 'm']","['Clue', 'Monopoly']","[-0.15, 0.5]","[0.15, 0.5]",1,1,,,,,,,,,0,9,9,9,0,3,3,0,,,,,,,,,,,,,,,,,,,,,,,,,,,,,,,,,,,,,,,,,,,,,,,,,,,,,,,894.760283444999,None,894.760283444999,None,894.760283444999,None,c,1,1.932944280000811,896.3108060249997,None,896.3108060249997,None,896.3108060249997,None,898.2943462059993,None,898.2943462059993,None,898.2943462059993,None,898.2943462059993,None,,,,,,,,,,,,,,,,,,,,,,,,,,,,,,,,,,,,,,,,,,,,001,88,2020_Feb_06_1250,spring_faces,3.1.5,60.10325643266235,
condition files/Stage1_2.xlsx,,T1,B2,m,"['c', 'm']","['Clue', 'Monopoly']","[-0.15, 0.5]","[0.15, 0.5]",1,1,,,,,,,,,0,9,9,9,0,4,4,2,,,,,,,,,,,,,,,,,,,,,,,,,,,,,,,,,,,,,,,,,,,,,,,,,,,,,,,900.2604774479987,None,900.2604774479987,None,900.2604774479987,None,m,1,0.9754804700005479,901.7962567710001,None,901.7962567710001,None,901.7962567710001,None,902.8291680289985,None,902.8291680289985,None,902.8291680289985,None,902.8291680289985,None,,,,,,,,,,,,,,,,,,,,,,,,,,,,,,,,,,,,,,,,,,,,001,88,2020_Feb_06_1250,spring_faces,3.1.5,60.10325643266235,
condition files/Stage1_2.xlsx,,B3,T4,m,"['c', 'm']","['Clue', 'Monopoly']","[-0.15, 0.5]","[0.15, 0.5]",1,1,,,,,,,,,0,9,9,9,0,5,5,6,,,,,,,,,,,,,,,,,,,,,,,,,,,,,,,,,,,,,,,,,,,,,,,,,,,,,,,904.7934005049992,None,904.7934005049992,None,904.7934005049992,None,m,1,0.8590936309992685,906.3287487159996,None,906.3287487159996,None,906.3287487159996,None,907.2445195189994,None,907.2445195189994,None,907.2445195189994,None,907.2445195189994,None,,,,,,,,,,,,,,,,,,,,,,,,,,,,,,,,,,,,,,,,,,,,001,88,2020_Feb_06_1250,spring_faces,3.1.5,60.10325643266235,
condition files/Stage1_2.xlsx,,T2,B1,c,"['c', 'm']","['Clue', 'Monopoly']","[-0.15, 0.5]","[0.15, 0.5]",1,1,,,,,,,,,0,9,9,9,0,6,6,1,,,,,,,,,,,,,,,,,,,,,,,,,,,,,,,,,,,,,,,,,,,,,,,,,,,,,,,909.2107235679996,None,909.2107235679996,None,909.2107235679996,None,c,1,1.3218612470009248,910.7459678380001,None,910.7459678380001,None,910.7459678380001,None,912.1295104739984,None,912.1295104739984,None,912.1295104739984,None,912.1295104739984,None,,,,,,,,,,,,,,,,,,,,,,,,,,,,,,,,,,,,,,,,,,,,001,88,2020_Feb_06_1250,spring_faces,3.1.5,60.10325643266235,
condition files/Stage1_2.xlsx,,T4,B4,m,"['c', 'm']","['Clue', 'Monopoly']","[-0.15, 0.5]","[0.15, 0.5]",1,1,,,,,,,,,0,9,9,9,0,7,7,7,,,,,,,,,,,,,,,,,,,,,,,,,,,,,,,,,,,,,,,,,,,,,,,,,,,,,,,914.093972659999,None,914.093972659999,None,914.093972659999,None,m,1,1.2387452719995053,915.629098600999,None,915.629098600999,None,915.629098600999,None,916.9276973889991,None,916.9276973889991,None,916.9276973889991,None,916.9276973889991,None,,,,,,,,,,,,,,,,,,,,,,,,,,,,,,,,,,,,,,,,,,,,001,88,2020_Feb_06_1250,spring_faces,3.1.5,60.10325643266235,
condition files/Stage1_1.xlsx,,B4,T4,m,"['c', 'm']","['Clue', 'Monopoly']","[-0.15, 0.5]","[0.15, 0.5]",1,1,,,,,,,,,0,10,10,10,0,0,0,7,,,,,,,,,,,,,,,,,,,,,,,,,,,,,,,,,,,,,,,,,,,,,,,,,,,,,,,918.910754515,None,918.910754515,None,918.910754515,None,m,1,1.3188044670005183,920.4449685419986,None,920.4449685419986,None,920.4449685419986,None,921.8276058759984,None,921.8276058759984,None,921.8276058759984,None,921.8276058759984,None,,,,,,,,,,,,,,,,,,,,,,,,,,,,,,,,,,,,,,,,,,,,001,88,2020_Feb_06_1250,spring_faces,3.1.5,60.10325643266235,
condition files/Stage1_1.xlsx,,T2,B2,m,"['c', 'm']","['Clue', 'Monopoly']","[-0.15, 0.5]","[0.15, 0.5]",1,1,,,,,,,,,0,10,10,10,0,1,1,3,,,,,,,,,,,,,,,,,,,,,,,,,,,,,,,,,,,,,,,,,,,,,,,,,,,,,,,923.793960039,None,923.793960039,None,923.793960039,None,m,1,1.5887363000001642,925.3270511199989,None,925.3270511199989,None,925.3270511199989,None,926.9777912829995,None,926.9777912829995,None,926.9777912829995,None,926.9777912829995,None,,,,,,,,,,,,,,,,,,,,,,,,,,,,,,,,,,,,,,,,,,,,001,88,2020_Feb_06_1250,spring_faces,3.1.5,60.10325643266235,
condition files/Stage1_1.xlsx,,B3,T3,c,"['c', 'm']","['Clue', 'Monopoly']","[-0.15, 0.5]","[0.15, 0.5]",1,1,,,,,,,,,0,10,10,10,0,2,2,4,,,,,,,,,,,,,,,,,,,,,,,,,,,,,,,,,,,,,,,,,,,,,,,,,,,,,,,928.9439797229988,None,928.9439797229988,None,928.9439797229988,None,c,1,0.9505439089989522,930.4771820819988,None,930.4771820819988,None,930.4771820819988,None,931.4787802939991,None,931.4787802939991,None,931.4787802939991,None,931.4787802939991,None,,,,,,,,,,,,,,,,,,,,,,,,,,,,,,,,,,,,,,,,,,,,001,88,2020_Feb_06_1250,spring_faces,3.1.5,60.10325643266235,
condition files/Stage1_1.xlsx,,B2,T1,m,"['c', 'm']","['Clue', 'Monopoly']","[-0.15, 0.5]","[0.15, 0.5]",1,1,,,,,,,,,0,10,10,10,0,3,3,2,,,,,,,,,,,,,,,,,,,,,,,,,,,,,,,,,,,,,,,,,,,,,,,,,,,,,,,933.4441900649999,None,933.4441900649999,None,933.4441900649999,None,m,1,1.0266459220001707,934.9770707019998,None,934.9770707019998,None,934.9770707019998,None,936.0774459999993,None,936.0774459999993,None,936.0774459999993,None,936.0774459999993,None,,,,,,,,,,,,,,,,,,,,,,,,,,,,,,,,,,,,,,,,,,,,001,88,2020_Feb_06_1250,spring_faces,3.1.5,60.10325643266235,
condition files/Stage1_1.xlsx,,T3,B4,c,"['c', 'm']","['Clue', 'Monopoly']","[-0.15, 0.5]","[0.15, 0.5]",1,1,,,,,,,,,0,10,10,10,0,4,4,5,,,,,,,,,,,,,,,,,,,,,,,,,,,,,,,,,,,,,,,,,,,,,,,,,,,,,,,938.0274172019999,None,938.0274172019999,None,938.0274172019999,None,c,1,1.2741513479995774,939.5616919589993,None,939.5616919589993,None,939.5616919589993,None,940.8948249659989,None,940.8948249659989,None,940.8948249659989,None,940.8948249659989,None,,,,,,,,,,,,,,,,,,,,,,,,,,,,,,,,,,,,,,,,,,,,001,88,2020_Feb_06_1250,spring_faces,3.1.5,60.10325643266235,
condition files/Stage1_1.xlsx,,T1,B1,c,"['c', 'm']","['Clue', 'Monopoly']","[-0.15, 0.5]","[0.15, 0.5]",1,1,,,,,,,,,0,10,10,10,0,5,5,0,,,,,,,,,,,,,,,,,,,,,,,,,,,,,,,,,,,,,,,,,,,,,,,,,,,,,,,942.860840456,None,942.860840456,None,942.860840456,None,c,1,1.128531185000611,944.4112057859984,None,944.4112057859984,None,944.4112057859984,None,945.593721367999,None,945.593721367999,None,945.593721367999,None,945.593721367999,None,,,,,,,,,,,,,,,,,,,,,,,,,,,,,,,,,,,,,,,,,,,,001,88,2020_Feb_06_1250,spring_faces,3.1.5,60.10325643266235,
condition files/Stage1_1.xlsx,,T4,B3,m,"['c', 'm']","['Clue', 'Monopoly']","[-0.15, 0.5]","[0.15, 0.5]",1,1,,,,,,,,,0,10,10,10,0,6,6,6,,,,,,,,,,,,,,,,,,,,,,,,,,,,,,,,,,,,,,,,,,,,,,,,,,,,,,,947.5606887569993,None,947.5606887569993,None,947.5606887569993,None,m,1,0.7969065569996019,949.1107699699987,None,949.1107699699987,None,949.1107699699987,None,949.977968363999,None,949.977968363999,None,949.977968363999,None,949.977968363999,None,,,,,,,,,,,,,,,,,,,,,,,,,,,,,,,,,,,,,,,,,,,,001,88,2020_Feb_06_1250,spring_faces,3.1.5,60.10325643266235,
condition files/Stage1_1.xlsx,,B1,T2,c,"['c', 'm']","['Clue', 'Monopoly']","[-0.15, 0.5]","[0.15, 0.5]",1,1,,,,,,,,,0,10,10,10,0,7,7,1,,,,,,,,,,,,,,,,,,,,,,,,,,,,,,,,,,,,,,,,,,,,,,,,,,,,,,,951.9274954839984,None,951.9274954839984,None,951.9274954839984,None,c,1,1.215150771999106,953.4606131159999,None,953.4606131159999,None,953.4606131159999,None,954.7293922199988,None,954.7293922199988,None,954.7293922199988,None,954.7293922199988,None,,,,,,,,,,,,,,,,,,,,,,,,,,,,,,,,,,,,,,,,,,,,001,88,2020_Feb_06_1250,spring_faces,3.1.5,60.10325643266235,
condition files/Stage1_2.xlsx,,B2,T2,m,"['c', 'm']","['Clue', 'Monopoly']","[-0.15, 0.5]","[0.15, 0.5]",1,1,,,,,,,,,0,11,11,11,0,0,0,3,,,,,,,,,,,,,,,,,,,,,,,,,,,,,,,,,,,,,,,,,,,,,,,,,,,,,,,956.7106175439985,None,956.7106175439985,None,956.7106175439985,None,m,1,1.0709811849992548,958.260788263,None,958.260788263,None,958.260788263,None,959.4107705009992,None,959.4107705009992,None,959.4107705009992,None,959.4107705009992,None,,,,,,,,,,,,,,,,,,,,,,,,,,,,,,,,,,,,,,,,,,,,001,88,2020_Feb_06_1250,spring_faces,3.1.5,60.10325643266235,
condition files/Stage1_2.xlsx,,T3,B3,c,"['c', 'm']","['Clue', 'Monopoly']","[-0.15, 0.5]","[0.15, 0.5]",1,1,,,,,,,,,0,11,11,11,0,1,1,4,,,,,,,,,,,,,,,,,,,,,,,,,,,,,,,,,,,,,,,,,,,,,,,,,,,,,,,961.3605242189988,None,961.3605242189988,None,961.3605242189988,None,c,1,0.6773230399994645,962.9104890660001,None,962.9104890660001,None,962.9104890660001,None,963.6607896959995,None,963.6607896959995,None,963.6607896959995,None,963.6607896959995,None,,,,,,,,,,,,,,,,,,,,,,,,,,,,,,,,,,,,,,,,,,,,001,88,2020_Feb_06_1250,spring_faces,3.1.5,60.10325643266235,
condition files/Stage1_2.xlsx,,T1,B2,m,"['c', 'm']","['Clue', 'Monopoly']","[-0.15, 0.5]","[0.15, 0.5]",1,1,,,,,,,,,0,11,11,11,0,2,2,2,,,,,,,,,,,,,,,,,,,,,,,,,,,,,,,,,,,,,,,,,,,,,,,,,,,,,,,965.6107044119999,None,965.6107044119999,None,965.6107044119999,None,m,1,1.4830605400002241,967.1446608719998,None,967.1446608719998,None,967.1446608719998,None,968.696474983999,None,968.696474983999,None,968.696474983999,None,968.696474983999,None,,,,,,,,,,,,,,,,,,,,,,,,,,,,,,,,,,,,,,,,,,,,001,88,2020_Feb_06_1250,spring_faces,3.1.5,60.10325643266235,
condition files/Stage1_2.xlsx,,T4,B4,m,"['c', 'm']","['Clue', 'Monopoly']","[-0.15, 0.5]","[0.15, 0.5]",1,1,,,,,,,,,0,11,11,11,0,3,3,7,,,,,,,,,,,,,,,,,,,,,,,,,,,,,,,,,,,,,,,,,,,,,,,,,,,,,,,970.660593777,None,970.660593777,None,970.660593777,None,m,1,1.4731310859988298,972.1947084529984,None,972.1947084529984,None,972.1947084529984,None,973.7271162879988,None,973.7271162879988,None,973.7271162879988,None,973.7271162879988,None,,,,,,,,,,,,,,,,,,,,,,,,,,,,,,,,,,,,,,,,,,,,001,88,2020_Feb_06_1250,spring_faces,3.1.5,60.10325643266235,
condition files/Stage1_2.xlsx,,T2,B1,c,"['c', 'm']","['Clue', 'Monopoly']","[-0.15, 0.5]","[0.15, 0.5]",1,1,,,,,,,,,0,11,11,11,0,4,4,1,,,,,,,,,,,,,,,,,,,,,,,,,,,,,,,,,,,,,,,,,,,,,,,,,,,,,,,975.6937878669996,None,975.6937878669996,None,975.6937878669996,None,c,1,1.6086126059999515,977.227216850999,None,977.227216850999,None,977.227216850999,None,978.8945644750002,None,978.8945644750002,None,978.8945644750002,None,978.8945644750002,None,,,,,,,,,,,,,,,,,,,,,,,,,,,,,,,,,,,,,,,,,,,,001,88,2020_Feb_06_1250,spring_faces,3.1.5,60.10325643266235,
condition files/Stage1_2.xlsx,,B1,T1,c,"['c', 'm']","['Clue', 'Monopoly']","[-0.15, 0.5]","[0.15, 0.5]",1,1,,,,,,,,,0,11,11,11,0,5,5,0,,,,,,,,,,,,,,,,,,,,,,,,,,,,,,,,,,,,,,,,,,,,,,,,,,,,,,,980.8608554859984,None,980.8608554859984,None,980.8608554859984,None,c,1,1.0486517950012058,982.4111026439987,None,982.4111026439987,None,982.4111026439987,None,983.5109870169999,None,983.5109870169999,None,983.5109870169999,None,983.5109870169999,None,,,,,,,,,,,,,,,,,,,,,,,,,,,,,,,,,,,,,,,,,,,,001,88,2020_Feb_06_1250,spring_faces,3.1.5,60.10325643266235,
condition files/Stage1_2.xlsx,,B4,T3,c,"['c', 'm']","['Clue', 'Monopoly']","[-0.15, 0.5]","[0.15, 0.5]",1,1,,,,,,,,,0,11,11,11,0,6,6,5,,,,,,,,,,,,,,,,,,,,,,,,,,,,,,,,,,,,,,,,,,,,,,,,,,,,,,,985.4772046929993,None,985.4772046929993,None,985.4772046929993,None,c,1,0.6561956069999724,987.0276291219998,None,987.0276291219998,None,987.0276291219998,None,987.7440314019987,None,987.7440314019987,None,987.7440314019987,None,987.7440314019987,None,,,,,,,,,,,,,,,,,,,,,,,,,,,,,,,,,,,,,,,,,,,,001,88,2020_Feb_06_1250,spring_faces,3.1.5,60.10325643266235,
condition files/Stage1_2.xlsx,,B3,T4,m,"['c', 'm']","['Clue', 'Monopoly']","[-0.15, 0.5]","[0.15, 0.5]",1,1,,,,,,,,,0,11,11,11,0,7,7,6,,,,,,,,,,,,,,,,,,,,,,,,,,,,,,,,,,,,,,,,,,,,,,,,,,,,,,,989.7107338829992,None,989.7107338829992,None,989.7107338829992,None,m,1,0.8400532420000673,991.2437958499995,None,991.2437958499995,None,991.2437958499995,None,992.143891407999,None,992.143891407999,None,992.143891407999,None,992.143891407999,None,,,,,,,,,,,,,,,,,,,,,,,,,,,,,,,,,,,,,,,,,,,,001,88,2020_Feb_06_1250,spring_faces,3.1.5,60.10325643266235,
,,,,,,,,,,,,,,,,,,,,,,,,,,,,,,,,,,,,,,,,,,,,,,,,,,,,,,,,,,,,,,,,,,,,,,,,,,,,,,,,,,,,,,,,,,,,,,,,,,,,,,,,,,,,,,,,994.1278187759999,None,space,10.92436565999924,999.127468147999,None,,,,,,,,,,,,,,,,,,,,,,,,,,,,,,001,88,2020_Feb_06_1250,spring_faces,3.1.5,60.10325643266235,
condition files/Stage2_1.xlsx,,T5,B5,s,"['s', 'r']","['Stratego', 'Risk']","[-0.15, 0.5]","[0.15, 0.5]",1,1,,,,,,,,,,,,,,,,,0,0,0,0,0,0,0,0,,,,,,,,,,,,,,,,,,,,,,,,,,,,,,,,,,,,,,,,,,,,,,,1010.1106915229993,None,1010.1106915229993,None,1010.1106915229993,None,r,0,1.3359427060004236,1011.6278199989993,None,1011.6278199989993,None,1011.6278199989993,None,1013.0287470499989,None,1013.0287470499989,None,1013.0287470499989,None,1013.0287470499989,None,,,,,,,,,,,,,,,999.127468147999,None,,,,,,,,,,,,,,,,,,,,,,,,,,,,001,88,2020_Feb_06_1250,spring_faces,3.1.5,60.10325643266235,
condition files/Stage2_1.xlsx,,T1,B1,s,"['s', 'r']","['Stratego', 'Risk']","[-0.15, 0.5]","[0.15, 0.5]",1,1,,,,,,,,,,,,,,,,,0,0,0,0,0,1,1,2,,,,,,,,,,,,,,,,,,,,,,,,,,,,,,,,,,,,,,,,,,,,,,,1014.9940046060001,None,1014.9940046060001,None,1014.9940046060001,None,s,1,1.5393564230016636,1016.5284817249994,None,1016.5284817249994,None,1016.5284817249994,None,1018.1272527860001,None,1018.1272527860001,None,1018.1272527860001,None,1018.1272527860001,None,,,,,,,,,,,,,,,,,,,,,,,,,,,,,,,,,,,,,,,,,,,,001,88,2020_Feb_06_1250,spring_faces,3.1.5,60.10325643266235,
condition files/Stage2_1.xlsx,,T3,B3,s,"['s', 'r']","['Stratego', 'Risk']","[-0.15, 0.5]","[0.15, 0.5]",1,1,,,,,,,,,,,,,,,,,0,0,0,0,0,2,2,4,,,,,,,,,,,,,,,,,,,,,,,,,,,,,,,,,,,,,,,,,,,,,,,1020.0934064329995,None,1020.0934064329995,None,1020.0934064329995,None,r,0,1.464057971999864,1021.6277092719993,None,1021.6277092719993,None,1021.6277092719993,None,1023.1441429499992,None,1023.1441429499992,None,1023.1441429499992,None,1023.1441429499992,None,,,,,,,,,,,,,,,,,,,,,,,,,,,,,,,,,,,,,,,,,,,,001,88,2020_Feb_06_1250,spring_faces,3.1.5,60.10325643266235,
condition files/Stage2_1.xlsx,,B6,T6,r,"['s', 'r']","['Stratego', 'Risk']","[-0.15, 0.5]","[0.15, 0.5]",1,1,,,,,,,,,,,,,,,,,0,0,0,0,0,3,3,1,,,,,,,,,,,,,,,,,,,,,,,,,,,,,,,,,,,,,,,,,,,,,,,1025.1107016839997,None,1025.1107016839997,None,1025.1107016839997,None,r,1,1.3586253659996146,1026.6611859749992,None,1026.6611859749992,None,1026.6611859749992,None,1028.0768037729995,None,1028.0768037729995,None,1028.0768037729995,None,1028.0768037729995,None,,,,,,,,,,,,,,,,,,,,,,,,,,,,,,,,,,,,,,,,,,,,001,88,2020_Feb_06_1250,spring_faces,3.1.5,60.10325643266235,
condition files/Stage2_1.xlsx,,B4,T4,r,"['s', 'r']","['Stratego', 'Risk']","[-0.15, 0.5]","[0.15, 0.5]",1,1,,,,,,,,,,,,,,,,,0,0,0,0,0,4,4,5,,,,,,,,,,,,,,,,,,,,,,,,,,,,,,,,,,,,,,,,,,,,,,,1030.044075107,None,1030.044075107,None,1030.044075107,None,s,0,1.3546845679993567,1031.5770959849997,None,1031.5770959849997,None,1031.5770959849997,None,1032.9939741499984,None,1032.9939741499984,None,1032.9939741499984,None,1032.9939741499984,None,,,,,,,,,,,,,,,,,,,,,,,,,,,,,,,,,,,,,,,,,,,,001,88,2020_Feb_06_1250,spring_faces,3.1.5,60.10325643266235,
condition files/Stage2_1.xlsx,,B2,T2,r,"['s', 'r']","['Stratego', 'Risk']","[-0.15, 0.5]","[0.15, 0.5]",1,1,,,,,,,,,,,,,,,,,0,0,0,0,0,5,5,3,,,,,,,,,,,,,,,,,,,,,,,,,,,,,,,,,,,,,,,,,,,,,,,1034.9604575459998,None,1034.9604575459998,None,1034.9604575459998,None,r,1,1.6216670739995607,1036.4941229839987,None,1036.4941229839987,None,1036.4941229839987,None,1038.177231013,None,1038.177231013,None,1038.177231013,None,1038.177231013,None,,,,,,,,,,,,,,,,,,,,,,,,,,,,,,,,,,,,,,,,,,,,001,88,2020_Feb_06_1250,spring_faces,3.1.5,60.10325643266235,
condition files/Stage2_2.xlsx,,B3,T3,s,"['s', 'r']","['Stratego', 'Risk']","[-0.15, 0.5]","[0.15, 0.5]",1,1,,,,,,,,,,,,,,,,,0,1,1,1,0,0,0,4,,,,,,,,,,,,,,,,,,,,,,,,,,,,,,,,,,,,,,,,,,,,,,,1040.160551555,None,1040.160551555,None,1040.160551555,None,s,1,2.9010244810015138,1041.6947170249987,None,1041.6947170249987,None,1041.6947170249987,None,1044.6629156499985,None,1044.6629156499985,None,1044.6629156499985,None,1044.6629156499985,None,,,,,,,,,,,,,,,,,,,,,,,,,,,,,,,,,,,,,,,,,,,,001,88,2020_Feb_06_1250,spring_faces,3.1.5,60.10325643266235,
condition files/Stage2_2.xlsx,,B1,T1,s,"['s', 'r']","['Stratego', 'Risk']","[-0.15, 0.5]","[0.15, 0.5]",1,1,,,,,,,,,,,,,,,,,0,1,1,1,0,1,1,2,,,,,,,,,,,,,,,,,,,,,,,,,,,,,,,,,,,,,,,,,,,,,,,1046.627357424999,None,1046.627357424999,None,1046.627357424999,None,s,1,1.315434976000688,1048.1603197289987,None,1048.1603197289987,None,1048.1603197289987,None,1049.527140143,None,1049.527140143,None,1049.527140143,None,1049.527140143,None,,,,,,,,,,,,,,,,,,,,,,,,,,,,,,,,,,,,,,,,,,,,001,88,2020_Feb_06_1250,spring_faces,3.1.5,60.10325643266235,
condition files/Stage2_2.xlsx,,T2,B2,r,"['s', 'r']","['Stratego', 'Risk']","[-0.15, 0.5]","[0.15, 0.5]",1,1,,,,,,,,,,,,,,,,,0,1,1,1,0,2,2,3,,,,,,,,,,,,,,,,,,,,,,,,,,,,,,,,,,,,,,,,,,,,,,,1051.4941357689986,None,1051.4941357689986,None,1051.4941357689986,None,r,1,1.7765475770011108,1053.0272004170001,None,1053.0272004170001,None,1053.0272004170001,None,1054.862949507,None,1054.862949507,None,1054.862949507,None,1054.862949507,None,,,,,,,,,,,,,,,,,,,,,,,,,,,,,,,,,,,,,,,,,,,,001,88,2020_Feb_06_1250,spring_faces,3.1.5,60.10325643266235,
condition files/Stage2_2.xlsx,,T6,B6,r,"['s', 'r']","['Stratego', 'Risk']","[-0.15, 0.5]","[0.15, 0.5]",1,1,,,,,,,,,,,,,,,,,0,1,1,1,0,3,3,1,,,,,,,,,,,,,,,,,,,,,,,,,,,,,,,,,,,,,,,,,,,,,,,1056.827545794,None,1056.827545794,None,1056.827545794,None,r,1,1.7224935310005094,1058.3613435379993,None,1058.3613435379993,None,1058.3613435379993,None,1060.1437234979985,None,1060.1437234979985,None,1060.1437234979985,None,1060.1437234979985,None,,,,,,,,,,,,,,,,,,,,,,,,,,,,,,,,,,,,,,,,,,,,001,88,2020_Feb_06_1250,spring_faces,3.1.5,60.10325643266235,
condition files/Stage2_2.xlsx,,T4,B4,r,"['s', 'r']","['Stratego', 'Risk']","[-0.15, 0.5]","[0.15, 0.5]",1,1,,,,,,,,,,,,,,,,,0,1,1,1,0,4,4,5,,,,,,,,,,,,,,,,,,,,,,,,,,,,,,,,,,,,,,,,,,,,,,,1062.1103340849986,None,1062.1103340849986,None,1062.1103340849986,None,r,1,1.638783398000669,1063.6609790080001,None,1063.6609790080001,None,1063.6609790080001,None,1065.3610090589991,None,1065.3610090589991,None,1065.3610090589991,None,1065.3610090589991,None,,,,,,,,,,,,,,,,,,,,,,,,,,,,,,,,,,,,,,,,,,,,001,88,2020_Feb_06_1250,spring_faces,3.1.5,60.10325643266235,
condition files/Stage2_2.xlsx,,B5,T5,s,"['s', 'r']","['Stratego', 'Risk']","[-0.15, 0.5]","[0.15, 0.5]",1,1,,,,,,,,,,,,,,,,,0,1,1,1,0,5,5,0,,,,,,,,,,,,,,,,,,,,,,,,,,,,,,,,,,,,,,,,,,,,,,,1067.3268116609997,None,1067.3268116609997,None,1067.3268116609997,None,s,1,1.0947594560002472,1068.861003647,None,1068.861003647,None,1068.861003647,None,1070.0126576189996,None,1070.0126576189996,None,1070.0126576189996,None,1070.0126576189996,None,,,,,,,,,,,,,,,,,,,,,,,,,,,,,,,,,,,,,,,,,,,,001,88,2020_Feb_06_1250,spring_faces,3.1.5,60.10325643266235,
condition files/Stage2_1.xlsx,,T1,B1,s,"['s', 'r']","['Stratego', 'Risk']","[-0.15, 0.5]","[0.15, 0.5]",1,1,,,,,,,,,,,,,,,,,0,2,2,2,0,0,0,2,,,,,,,,,,,,,,,,,,,,,,,,,,,,,,,,,,,,,,,,,,,,,,,1071.9940183269991,None,1071.9940183269991,None,1071.9940183269991,None,r,0,1.756267418000789,1073.5275767549992,None,1073.5275767549992,None,1073.5275767549992,None,1075.3440184789997,None,1075.3440184789997,None,1075.3440184789997,None,1075.3440184789997,None,,,,,,,,,,,,,,,,,,,,,,,,,,,,,,,,,,,,,,,,,,,,001,88,2020_Feb_06_1250,spring_faces,3.1.5,60.10325643266235,
condition files/Stage2_1.xlsx,,B6,T6,r,"['s', 'r']","['Stratego', 'Risk']","[-0.15, 0.5]","[0.15, 0.5]",1,1,,,,,,,,,,,,,,,,,0,2,2,2,0,1,1,1,,,,,,,,,,,,,,,,,,,,,,,,,,,,,,,,,,,,,,,,,,,,,,,1077.3104566889997,None,1077.3104566889997,None,1077.3104566889997,None,r,1,1.445213815999523,1078.8465520629998,None,1078.8465520629998,None,1078.8465520629998,None,1080.3456003929987,None,1080.3456003929987,None,1080.3456003929987,None,1080.3456003929987,None,,,,,,,,,,,,,,,,,,,,,,,,,,,,,,,,,,,,,,,,,,,,001,88,2020_Feb_06_1250,spring_faces,3.1.5,60.10325643266235,
condition files/Stage2_1.xlsx,,T3,B3,s,"['s', 'r']","['Stratego', 'Risk']","[-0.15, 0.5]","[0.15, 0.5]",1,1,,,,,,,,,,,,,,,,,0,2,2,2,0,2,2,4,,,,,,,,,,,,,,,,,,,,,,,,,,,,,,,,,,,,,,,,,,,,,,,1082.3108311769993,None,1082.3108311769993,None,1082.3108311769993,None,s,1,1.5988923390013952,1083.844877903999,None,1083.844877903999,None,1083.844877903999,None,1085.5111910709984,None,1085.5111910709984,None,1085.5111910709984,None,1085.5111910709984,None,,,,,,,,,,,,,,,,,,,,,,,,,,,,,,,,,,,,,,,,,,,,001,88,2020_Feb_06_1250,spring_faces,3.1.5,60.10325643266235,
condition files/Stage2_1.xlsx,,B4,T4,r,"['s', 'r']","['Stratego', 'Risk']","[-0.15, 0.5]","[0.15, 0.5]",1,1,,,,,,,,,,,,,,,,,0,2,2,2,0,3,3,5,,,,,,,,,,,,,,,,,,,,,,,,,,,,,,,,,,,,,,,,,,,,,,,1087.4607019729992,None,1087.4607019729992,None,1087.4607019729992,None,r,1,1.5536633589999838,1088.9941161440001,None,1088.9941161440001,None,1088.9941161440001,None,1090.627581027,None,1090.627581027,None,1090.627581027,None,1090.627581027,None,,,,,,,,,,,,,,,,,,,,,,,,,,,,,,,,,,,,,,,,,,,,001,88,2020_Feb_06_1250,spring_faces,3.1.5,60.10325643266235,
condition files/Stage2_1.xlsx,,T5,B5,s,"['s', 'r']","['Stratego', 'Risk']","[-0.15, 0.5]","[0.15, 0.5]",1,1,,,,,,,,,,,,,,,,,0,2,2,2,0,4,4,0,,,,,,,,,,,,,,,,,,,,,,,,,,,,,,,,,,,,,,,,,,,,,,,1092.5774294809999,None,1092.5774294809999,None,1092.5774294809999,None,r,0,1.5402056189996074,1094.1276187249987,None,1094.1276187249987,None,1094.1276187249987,None,1095.744370163,None,1095.744370163,None,1095.744370163,None,1095.744370163,None,,,,,,,,,,,,,,,,,,,,,,,,,,,,,,,,,,,,,,,,,,,,001,88,2020_Feb_06_1250,spring_faces,3.1.5,60.10325643266235,
condition files/Stage2_1.xlsx,,B2,T2,r,"['s', 'r']","['Stratego', 'Risk']","[-0.15, 0.5]","[0.15, 0.5]",1,1,,,,,,,,,,,,,,,,,0,2,2,2,0,5,5,3,,,,,,,,,,,,,,,,,,,,,,,,,,,,,,,,,,,,,,,,,,,,,,,1097.6941432109998,None,1097.6941432109998,None,1097.6941432109998,None,r,1,1.2870972140008234,1099.244666822,None,1099.244666822,None,1099.244666822,None,1100.5961242879985,None,1100.5961242879985,None,1100.5961242879985,None,1100.5961242879985,None,,,,,,,,,,,,,,,,,,,,,,,,,,,,,,,,,,,,,,,,,,,,001,88,2020_Feb_06_1250,spring_faces,3.1.5,60.10325643266235,
condition files/Stage2_2.xlsx,,B1,T1,s,"['s', 'r']","['Stratego', 'Risk']","[-0.15, 0.5]","[0.15, 0.5]",1,1,,,,,,,,,,,,,,,,,0,3,3,3,0,0,0,2,,,,,,,,,,,,,,,,,,,,,,,,,,,,,,,,,,,,,,,,,,,,,,,1102.5775901979996,None,1102.5775901979996,None,1102.5775901979996,None,s,1,2.565506868999364,1104.0942584650002,None,1104.0942584650002,None,1104.0942584650002,None,1106.713273551999,None,1106.713273551999,None,1106.713273551999,None,1106.713273551999,None,,,,,,,,,,,,,,,,,,,,,,,,,,,,,,,,,,,,,,,,,,,,001,88,2020_Feb_06_1250,spring_faces,3.1.5,60.10325643266235,
condition files/Stage2_2.xlsx,,T4,B4,r,"['s', 'r']","['Stratego', 'Risk']","[-0.15, 0.5]","[0.15, 0.5]",1,1,,,,,,,,,,,,,,,,,0,3,3,3,0,1,1,5,,,,,,,,,,,,,,,,,,,,,,,,,,,,,,,,,,,,,,,,,,,,,,,1108.6771825299984,None,1108.6771825299984,None,1108.6771825299984,None,r,1,1.8233444050001708,1110.2124939629994,None,1110.2124939629994,None,1110.2124939629994,None,1112.1107806629989,None,1112.1107806629989,None,1112.1107806629989,None,1112.1107806629989,None,,,,,,,,,,,,,,,,,,,,,,,,,,,,,,,,,,,,,,,,,,,,001,88,2020_Feb_06_1250,spring_faces,3.1.5,60.10325643266235,
condition files/Stage2_2.xlsx,,T2,B2,r,"['s', 'r']","['Stratego', 'Risk']","[-0.15, 0.5]","[0.15, 0.5]",1,1,,,,,,,,,,,,,,,,,0,3,3,3,0,2,2,3,,,,,,,,,,,,,,,,,,,,,,,,,,,,,,,,,,,,,,,,,,,,,,,1114.0606289339994,None,1114.0606289339994,None,1114.0606289339994,None,r,1,1.1452938060010638,1115.5944754029988,None,1115.5944754029988,None,1115.5944754029988,None,1116.79428172,None,1116.79428172,None,1116.79428172,None,1116.79428172,None,,,,,,,,,,,,,,,,,,,,,,,,,,,,,,,,,,,,,,,,,,,,001,88,2020_Feb_06_1250,spring_faces,3.1.5,60.10325643266235,
condition files/Stage2_2.xlsx,,B5,T5,s,"['s', 'r']","['Stratego', 'Risk']","[-0.15, 0.5]","[0.15, 0.5]",1,1,,,,,,,,,,,,,,,,,0,3,3,3,0,3,3,0,,,,,,,,,,,,,,,,,,,,,,,,,,,,,,,,,,,,,,,,,,,,,,,1118.7604276479997,None,1118.7604276479997,None,1118.7604276479997,None,s,1,2.10730674899969,1120.2964449479987,None,1120.2964449479987,None,1120.2964449479987,None,1122.4776608889988,None,1122.4776608889988,None,1122.4776608889988,None,1122.4776608889988,None,,,,,,,,,,,,,,,,,,,,,,,,,,,,,,,,,,,,,,,,,,,,001,88,2020_Feb_06_1250,spring_faces,3.1.5,60.10325643266235,
condition files/Stage2_2.xlsx,,T6,B6,r,"['s', 'r']","['Stratego', 'Risk']","[-0.15, 0.5]","[0.15, 0.5]",1,1,,,,,,,,,,,,,,,,,0,3,3,3,0,4,4,1,,,,,,,,,,,,,,,,,,,,,,,,,,,,,,,,,,,,,,,,,,,,,,,1124.4270627799997,None,1124.4270627799997,None,1124.4270627799997,None,r,1,1.034293284999876,1125.9614400629998,None,1125.9614400629998,None,1125.9614400629998,None,1127.0619361479985,None,1127.0619361479985,None,1127.0619361479985,None,1127.0619361479985,None,,,,,,,,,,,,,,,,,,,,,,,,,,,,,,,,,,,,,,,,,,,,001,88,2020_Feb_06_1250,spring_faces,3.1.5,60.10325643266235,
condition files/Stage2_2.xlsx,,B3,T3,s,"['s', 'r']","['Stratego', 'Risk']","[-0.15, 0.5]","[0.15, 0.5]",1,1,,,,,,,,,,,,,,,,,0,3,3,3,0,5,5,4,,,,,,,,,,,,,,,,,,,,,,,,,,,,,,,,,,,,,,,,,,,,,,,1129.0270178189985,None,1129.0270178189985,None,1129.0270178189985,None,s,1,1.7784590989995195,1130.561312721,None,1130.561312721,None,1130.561312721,None,1132.411171271,None,1132.411171271,None,1132.411171271,None,1132.411171271,None,,,,,,,,,,,,,,,,,,,,,,,,,,,,,,,,,,,,,,,,,,,,001,88,2020_Feb_06_1250,spring_faces,3.1.5,60.10325643266235,
condition files/Stage2_1.xlsx,,T1,B1,s,"['s', 'r']","['Stratego', 'Risk']","[-0.15, 0.5]","[0.15, 0.5]",1,1,,,,,,,,,,,,,,,,,0,4,4,4,0,0,0,2,,,,,,,,,,,,,,,,,,,,,,,,,,,,,,,,,,,,,,,,,,,,,,,1134.377721077999,None,1134.377721077999,None,1134.377721077999,None,s,1,1.6118218880001223,1135.9119664929985,None,1135.9119664929985,None,1135.9119664929985,None,1137.5774108829992,None,1137.5774108829992,None,1137.5774108829992,None,1137.5774108829992,None,,,,,,,,,,,,,,,,,,,,,,,,,,,,,,,,,,,,,,,,,,,,001,88,2020_Feb_06_1250,spring_faces,3.1.5,60.10325643266235,
condition files/Stage2_1.xlsx,,B2,T2,r,"['s', 'r']","['Stratego', 'Risk']","[-0.15, 0.5]","[0.15, 0.5]",1,1,,,,,,,,,,,,,,,,,0,4,4,4,0,1,1,3,,,,,,,,,,,,,,,,,,,,,,,,,,,,,,,,,,,,,,,,,,,,,,,1139.5440355809988,None,1139.5440355809988,None,1139.5440355809988,None,r,1,0.830704276000688,1141.077065985999,None,1141.077065985999,None,1141.077065985999,None,1141.9605479559996,None,1141.9605479559996,None,1141.9605479559996,None,1141.9605479559996,None,,,,,,,,,,,,,,,,,,,,,,,,,,,,,,,,,,,,,,,,,,,,001,88,2020_Feb_06_1250,spring_faces,3.1.5,60.10325643266235,
condition files/Stage2_1.xlsx,,B4,T4,r,"['s', 'r']","['Stratego', 'Risk']","[-0.15, 0.5]","[0.15, 0.5]",1,1,,,,,,,,,,,,,,,,,0,4,4,4,0,2,2,5,,,,,,,,,,,,,,,,,,,,,,,,,,,,,,,,,,,,,,,,,,,,,,,1143.9274553659998,None,1143.9274553659998,None,1143.9274553659998,None,r,1,0.9584782799993263,1145.4613707439985,None,1145.4613707439985,None,1145.4613707439985,None,1146.477830205,None,1146.477830205,None,1146.477830205,None,1146.477830205,None,,,,,,,,,,,,,,,,,,,,,,,,,,,,,,,,,,,,,,,,,,,,001,88,2020_Feb_06_1250,spring_faces,3.1.5,60.10325643266235,
condition files/Stage2_1.xlsx,,T5,B5,s,"['s', 'r']","['Stratego', 'Risk']","[-0.15, 0.5]","[0.15, 0.5]",1,1,,,,,,,,,,,,,,,,,0,4,4,4,0,3,3,0,,,,,,,,,,,,,,,,,,,,,,,,,,,,,,,,,,,,,,,,,,,,,,,1148.4436042319994,None,1148.4436042319994,None,1148.4436042319994,None,s,1,1.7998299840000982,1149.9799448819995,None,1149.9799448819995,None,1149.9799448819995,None,1151.8445191479987,None,1151.8445191479987,None,1151.8445191479987,None,1151.8445191479987,None,,,,,,,,,,,,,,,,,,,,,,,,,,,,,,,,,,,,,,,,,,,,001,88,2020_Feb_06_1250,spring_faces,3.1.5,60.10325643266235,
