condsFile,subStage,cue1,cue2,correct,responseKeys,responseNames,cue1Position,cue2Position,cue1Opacity,cue2Opacity,stageLoop0.thisRepN,stageLoop0.thisTrialN,stageLoop0.thisN,stageLoop0.thisIndex,blockLoop0.thisRepN,blockLoop0.thisTrialN,blockLoop0.thisN,blockLoop0.thisIndex,stage1Loop.thisRepN,stage1Loop.thisTrialN,stage1Loop.thisN,stage1Loop.thisIndex,blockLoop1.thisRepN,blockLoop1.thisTrialN,blockLoop1.thisN,blockLoop1.thisIndex,stage2Loop.thisRepN,stage2Loop.thisTrialN,stage2Loop.thisN,stage2Loop.thisIndex,blockLoop2.thisRepN,blockLoop2.thisTrialN,blockLoop2.thisN,blockLoop2.thisIndex,testLoop.thisRepN,testLoop.thisTrialN,testLoop.thisN,testLoop.thisIndex,blockLoopTest.thisRepN,blockLoopTest.thisTrialN,blockLoopTest.thisN,blockLoopTest.thisIndex,cuePics,id_instr_text.started,id_instr_text.stopped,space_to_continue_2.started,space_to_continue_2.stopped,end_instructions_resp_3.keys,end_instructions_resp_3.rt,end_instructions_resp_3.started,end_instructions_resp_3.stopped,id_input_instr.started,id_input_instr.stopped,id_input_rect.started,id_input_rect.stopped,id_input_resp.keys,id_input_resp.rt,id_input_resp.started,id_input_resp.stopped,sonaID,id_input_text.started,id_input_text.stopped,final_text.started,final_text.stopped,instructions.started,instructions.stopped,end_instructions_resp.keys,end_instructions_resp.rt,end_instructions_resp.started,end_instructions_resp.stopped,space_to_continue.started,space_to_continue.stopped,instructions_stage0.started,instructions_stage0.stopped,end_instructions_resp_stage0.keys,end_instructions_resp_stage0.rt,end_instructions_resp_stage0.started,end_instructions_resp_stage0.stopped,space_to_continue_stage0.started,space_to_continue_stage0.stopped,text.started,text.stopped,resp_text1.started,resp_text1.stopped,resp_text2.started,resp_text2.stopped,trial_resp.keys,trial_resp.corr,trial_resp.rt,trial_resp.started,trial_resp.stopped,cue1Image.started,cue1Image.stopped,cue2Image.started,cue2Image.stopped,cue1Image_fb.started,cue1Image_fb.stopped,cue2Image_fb.started,cue2Image_fb.stopped,fb_text_answer.started,fb_text_answer.stopped,feedback_image.started,feedback_image.stopped,instructions_stage1.started,instructions_stage1.stopped,end_instructions_resp_stage1.keys,end_instructions_resp_stage1.rt,end_instructions_resp_stage1.started,end_instructions_resp_stage1.stopped,space_to_continue_stage1.started,space_to_continue_stage1.stopped,instructions_2.started,instructions_2.stopped,end_instructions_resp_2.keys,end_instructions_resp_2.rt,end_instructions_resp_2.started,end_instructions_resp_2.stopped,press_space_to_continue_stage2.started,press_space_to_continue_stage2.stopped,instructions_testStage1.started,instructions_testStage1.stopped,end_instructions_resp_test1.keys,end_instructions_resp_test1.rt,end_instructions_resp_test1.started,end_instructions_resp_test1.stopped,press_space_to_continue_test1.started,press_space_to_continue_test1.stopped,cue1Image_testChoice.started,cue1Image_testChoice.stopped,cue2Image_testChoice.started,cue2Image_testChoice.stopped,test_resp.keys,test_resp.corr,test_resp.rt,test_resp.started,test_resp.stopped,cue1Image_testConf.started,cue1Image_testConf.stopped,cue2Image_testConf.started,cue2Image_testConf.stopped,conf_reminder.started,conf_reminder.stopped,conf_rating.response,conf_rating.rt,conf_rating.started,conf_rating.stopped,session,participant,date,expName,psychopyVersion,frameRate,
,,,,,,,,,,,,,,,,,,,,,,,,,,,,,,,,,,,,,,,,,,,"{'none': 'pictures/20M_AN_C.png', 'alpha': 'pictures/SHINEd_apple.png', 'beta': 'pictures/SHINEd_pepper.png', 'theta': 'pictures/SHINEd_melon.png', 'phi': 'pictures/SHINEd_pear.png', 'T1': 'pictures/23M_AN_C.png', 'T2': 'pictures/36M_AN_C.png', 'T3': 'pictures/26M_AN_C.png', 'T4': 'pictures/34M_AN_C.png', 'T5': 'pictures/32M_AN_C.png', 'T6': 'pictures/20M_AN_C.png', 'B1': 'pictures/37M_NE_C.png', 'B2': 'pictures/31M_NE_C.png', 'B3': 'pictures/33M_NE_C.png', 'B4': 'pictures/22M_NE_C.png', 'B5': 'pictures/25M_NE_C.png', 'B6': 'pictures/38M_NE_C.png'}",9.54817297900081,None,14.548104426001373,None,space,685.8122822149999,14.548104426001373,None,,,,,,,,,,,,,,,,,,,,,,,,,,,,,,,,,,,,,,,,,,,,,,,,,,,,,,,,,,,,,,,,,,,,,,,,,,,,,,,,,,,,,,,,,,,,,,,,001,92,2020_Feb_06_1344,spring_faces,3.1.5,59.964885521660776,
,,,,,,,,,,,,,,,,,,,,,,,,,,,,,,,,,,,,,,,,,,,,,,,,,,,,700.7815693060002,None,700.7815693060002,None,"['1', '2', '2', '9', 'j', 'u', 'l', 'a', 's']","[4.3787251689973345, 4.554750413997681, 9.994740281999839, 10.570748439000454, 13.002755667999736, 13.258808262999082, 18.37875048099886, 18.71474463800041, 19.018695506998483]",700.7815693060002,None,,,,,,,,,,,,,,,,,,,,,,,,,,,,,,,,,,,,,,,,,,,,,,,,,,,,,,,,,,,,,,,,,,,,,,,,,,,,,,,,,,,,,,,,001,92,2020_Feb_06_1344,spring_faces,3.1.5,59.964885521660776,
,,,,,,,,,,,,,,,,,,,,,,,,,,,,,,,,,,,,,,,,,,,,,,,,,,,,,,,,,,,,1229julas,700.7815693060002,None,700.7815693060002,None,724.8806362760006,None,space,1.134778573999938,729.8815030930018,None,,,,,,,,,,,,,,,,,,,,,,,,,,,,,,,,,,,,,,,,,,,,,,,,,,,,,,,,,,,,,,,,,,,,,,,,,,,,,001,92,2020_Feb_06_1344,spring_faces,3.1.5,59.964885521660776,
,,,,,,,,,,,,,,,,,,,,,,,,,,,,,,,,,,,,,,,,,,,,,,,,,,,,,,,,,,,,,,,,,,,,,,,729.8815030930018,None,731.0650849340018,None,space,4.13558597699739,736.0647526809989,None,,,,,,,,,,,,,,,,,,,,,,,,,,,,,,,,,,,,,,,,,,,,,,,,,,,,,,,,,,,,,,,,,,,,,001,92,2020_Feb_06_1344,spring_faces,3.1.5,59.964885521660776,
condition files/Stage0a.xlsx,0a,beta,none,g,"['h', 'g']","['Chess', 'Go']","[0, 0.5]","[0, 0]",1,0,0,0,0,0,0,0,0,1,,,,,,,,,,,,,,,,,,,,,,,,,,,,,,,,,,,,,,,,,,,,,,,,,,,,,,,,,,,,,736.0647526809989,None,740.2649988900012,None,740.2649988900012,None,740.2649988900012,None,h,0,1.8404662479988474,741.8479029949995,None,741.8479029949995,None,741.8479029949995,None,743.7650358319988,None,743.7650358319988,None,743.7650358319988,None,743.7650358319988,None,,,,,,,,,,,,,,,,,,,,,,,,,,,,,,,,,,,,,,,,,,,,001,92,2020_Feb_06_1344,spring_faces,3.1.5,59.964885521660776,
condition files/Stage0a.xlsx,0a,alpha,none,h,"['h', 'g']","['Chess', 'Go']","[0, 0.5]","[0, 0]",1,0,0,0,0,0,0,1,1,0,,,,,,,,,,,,,,,,,,,,,,,,,,,,,,,,,,,,,,,,,,,,,,,,,,,,,,,,,,,,,,,745.7153083420017,None,745.7153083420017,None,745.7153083420017,None,g,0,1.9577500820014393,747.2506355279984,None,747.2506355279984,None,747.2506355279984,None,749.2659484610012,None,749.2659484610012,None,749.2659484610012,None,749.2659484610012,None,,,,,,,,,,,,,,,,,,,,,,,,,,,,,,,,,,,,,,,,,,,,001,92,2020_Feb_06_1344,spring_faces,3.1.5,59.964885521660776,
condition files/Stage0a.xlsx,0a,alpha,none,h,"['h', 'g']","['Chess', 'Go']","[0, 0.5]","[0, 0]",1,0,0,1,1,1,0,0,0,0,,,,,,,,,,,,,,,,,,,,,,,,,,,,,,,,,,,,,,,,,,,,,,,,,,,,,,,,,,,,,,,751.2483473190005,None,751.2483473190005,None,751.2483473190005,None,h,1,1.0506443080012104,752.7816563580018,None,752.7816563580018,None,752.7816563580018,None,753.8982737810002,None,753.8982737810002,None,753.8982737810002,None,753.8982737810002,None,,,,,,,,,,,,,,,,,,,,,,,,,,,,,,,,,,,,,,,,,,,,001,92,2020_Feb_06_1344,spring_faces,3.1.5,59.964885521660776,
condition files/Stage0a.xlsx,0a,beta,none,g,"['h', 'g']","['Chess', 'Go']","[0, 0.5]","[0, 0]",1,0,0,1,1,1,0,1,1,1,,,,,,,,,,,,,,,,,,,,,,,,,,,,,,,,,,,,,,,,,,,,,,,,,,,,,,,,,,,,,,,755.8659936190015,None,755.8659936190015,None,755.8659936190015,None,g,1,1.5704033649999474,757.3979418820018,None,757.3979418820018,None,757.3979418820018,None,759.0313866139986,None,759.0313866139986,None,759.0313866139986,None,759.0313866139986,None,,,,,,,,,,,,,,,,,,,,,,,,,,,,,,,,,,,,,,,,,,,,001,92,2020_Feb_06_1344,spring_faces,3.1.5,59.964885521660776,
condition files/Stage0a.xlsx,0a,alpha,none,h,"['h', 'g']","['Chess', 'Go']","[0, 0.5]","[0, 0]",1,0,0,2,2,2,0,0,0,0,,,,,,,,,,,,,,,,,,,,,,,,,,,,,,,,,,,,,,,,,,,,,,,,,,,,,,,,,,,,,,,761.0148241550014,None,761.0148241550014,None,761.0148241550014,None,h,1,0.9328465800026606,762.5314739819987,None,762.5314739819987,None,762.5314739819987,None,763.5145394120009,None,763.5145394120009,None,763.5145394120009,None,763.5145394120009,None,,,,,,,,,,,,,,,,,,,,,,,,,,,,,,,,,,,,,,,,,,,,001,92,2020_Feb_06_1344,spring_faces,3.1.5,59.964885521660776,
condition files/Stage0a.xlsx,0a,beta,none,g,"['h', 'g']","['Chess', 'Go']","[0, 0.5]","[0, 0]",1,0,0,2,2,2,0,1,1,1,,,,,,,,,,,,,,,,,,,,,,,,,,,,,,,,,,,,,,,,,,,,,,,,,,,,,,,,,,,,,,,765.4978852239983,None,765.4978852239983,None,765.4978852239983,None,g,1,0.7215056929999264,767.0148265239986,None,767.0148265239986,None,767.0148265239986,None,767.7981437080016,None,767.7981437080016,None,767.7981437080016,None,767.7981437080016,None,,,,,,,,,,,,,,,,,,,,,,,,,,,,,,,,,,,,,,,,,,,,001,92,2020_Feb_06_1344,spring_faces,3.1.5,59.964885521660776,
condition files/Stage0a.xlsx,0a,beta,none,g,"['h', 'g']","['Chess', 'Go']","[0, 0.5]","[0, 0]",1,0,0,3,3,3,0,0,0,1,,,,,,,,,,,,,,,,,,,,,,,,,,,,,,,,,,,,,,,,,,,,,,,,,,,,,,,,,,,,,,,769.7813191720015,None,769.7813191720015,None,769.7813191720015,None,g,1,0.7899007810010517,771.2984806960012,None,771.2984806960012,None,771.2984806960012,None,772.148186557999,None,772.148186557999,None,772.148186557999,None,772.148186557999,None,,,,,,,,,,,,,,,,,,,,,,,,,,,,,,,,,,,,,,,,,,,,001,92,2020_Feb_06_1344,spring_faces,3.1.5,59.964885521660776,
condition files/Stage0a.xlsx,0a,alpha,none,h,"['h', 'g']","['Chess', 'Go']","[0, 0.5]","[0, 0]",1,0,0,3,3,3,0,1,1,0,,,,,,,,,,,,,,,,,,,,,,,,,,,,,,,,,,,,,,,,,,,,,,,,,,,,,,,,,,,,,,,774.1146313370009,None,774.1146313370009,None,774.1146313370009,None,h,1,1.2872089250013232,775.6491302089998,None,775.6491302089998,None,775.6491302089998,None,776.9977075429997,None,776.9977075429997,None,776.9977075429997,None,776.9977075429997,None,,,,,,,,,,,,,,,,,,,,,,,,,,,,,,,,,,,,,,,,,,,,001,92,2020_Feb_06_1344,spring_faces,3.1.5,59.964885521660776,
condition files/Stage0a.xlsx,0a,alpha,none,h,"['h', 'g']","['Chess', 'Go']","[0, 0.5]","[0, 0]",1,0,0,4,4,4,0,0,0,0,,,,,,,,,,,,,,,,,,,,,,,,,,,,,,,,,,,,,,,,,,,,,,,,,,,,,,,,,,,,,,,778.9808199200015,None,778.9808199200015,None,778.9808199200015,None,h,1,0.8705690390015661,780.4977792069985,None,780.4977792069985,None,780.4977792069985,None,781.4314883650004,None,781.4314883650004,None,781.4314883650004,None,781.4314883650004,None,,,,,,,,,,,,,,,,,,,,,,,,,,,,,,,,,,,,,,,,,,,,001,92,2020_Feb_06_1344,spring_faces,3.1.5,59.964885521660776,
condition files/Stage0a.xlsx,0a,beta,none,g,"['h', 'g']","['Chess', 'Go']","[0, 0.5]","[0, 0]",1,0,0,4,4,4,0,1,1,1,,,,,,,,,,,,,,,,,,,,,,,,,,,,,,,,,,,,,,,,,,,,,,,,,,,,,,,,,,,,,,,783.3978751380018,None,783.3978751380018,None,783.3978751380018,None,g,1,0.5492684339988045,784.9310720030007,None,784.9310720030007,None,784.9310720030007,None,785.5317639979985,None,785.5317639979985,None,785.5317639979985,None,785.5317639979985,None,,,,,,,,,,,,,,,,,,,,,,,,,,,,,,,,,,,,,,,,,,,,001,92,2020_Feb_06_1344,spring_faces,3.1.5,59.964885521660776,
condition files/Stage0a.xlsx,0a,beta,none,g,"['h', 'g']","['Chess', 'Go']","[0, 0.5]","[0, 0]",1,0,0,5,5,5,0,0,0,1,,,,,,,,,,,,,,,,,,,,,,,,,,,,,,,,,,,,,,,,,,,,,,,,,,,,,,,,,,,,,,,787.5148214740002,None,787.5148214740002,None,787.5148214740002,None,g,1,0.8481962530022429,789.0481330920011,None,789.0481330920011,None,789.0481330920011,None,789.9482224880012,None,789.9482224880012,None,789.9482224880012,None,789.9482224880012,None,,,,,,,,,,,,,,,,,,,,,,,,,,,,,,,,,,,,,,,,,,,,001,92,2020_Feb_06_1344,spring_faces,3.1.5,59.964885521660776,
condition files/Stage0a.xlsx,0a,alpha,none,h,"['h', 'g']","['Chess', 'Go']","[0, 0.5]","[0, 0]",1,0,0,5,5,5,0,1,1,0,,,,,,,,,,,,,,,,,,,,,,,,,,,,,,,,,,,,,,,,,,,,,,,,,,,,,,,,,,,,,,,791.9145620400013,None,791.9145620400013,None,791.9145620400013,None,h,1,0.7527993629992125,793.4475166660013,None,793.4475166660013,None,793.4475166660013,None,794.2650047019997,None,794.2650047019997,None,794.2650047019997,None,794.2650047019997,None,,,,,,,,,,,,,,,,,,,,,,,,,,,,,,,,,,,,,,,,,,,,001,92,2020_Feb_06_1344,spring_faces,3.1.5,59.964885521660776,
condition files/Stage0b_1.xlsx,0b,alpha,none,h,"['h', 'g']","['Chess', 'Go']","[-0.15, 0.5]","[0.15, 0.5]",1,0,0,6,6,6,0,0,0,0,,,,,,,,,,,,,,,,,,,,,,,,,,,,,,,,,,,,,,,,,,,,,,,,,,,,,,,,,,,,,,,796.2482085180018,None,796.2482085180018,None,796.2482085180018,None,h,1,0.8673852059982892,797.7809043279995,None,797.7809043279995,None,797.7809043279995,None,798.6981432489993,None,798.6981432489993,None,798.6981432489993,None,798.6981432489993,None,,,,,,,,,,,,,,,,,,,,,,,,,,,,,,,,,,,,,,,,,,,,001,92,2020_Feb_06_1344,spring_faces,3.1.5,59.964885521660776,
condition files/Stage0b_1.xlsx,0b,none,beta,g,"['h', 'g']","['Chess', 'Go']","[-0.15, 0.5]","[0.15, 0.5]",0,1,0,6,6,6,0,1,1,1,,,,,,,,,,,,,,,,,,,,,,,,,,,,,,,,,,,,,,,,,,,,,,,,,,,,,,,,,,,,,,,800.6638571389994,None,800.6638571389994,None,800.6638571389994,None,g,1,1.0901378769995063,802.2141798000011,None,802.2141798000011,None,802.2141798000011,None,803.3699909169991,None,803.3699909169991,None,803.3699909169991,None,803.3699909169991,None,,,,,,,,,,,,,,,,,,,,,,,,,,,,,,,,,,,,,,,,,,,,001,92,2020_Feb_06_1344,spring_faces,3.1.5,59.964885521660776,
condition files/Stage0b_2.xlsx,0b,none,alpha,h,"['h', 'g']","['Chess', 'Go']","[-0.15, 0.5]","[0.15, 0.5]",0,1,0,7,7,7,0,0,0,0,,,,,,,,,,,,,,,,,,,,,,,,,,,,,,,,,,,,,,,,,,,,,,,,,,,,,,,,,,,,,,,805.3475753999992,None,805.3475753999992,None,805.3475753999992,None,h,1,0.5831644450008753,806.881174918999,None,806.881174918999,None,806.881174918999,None,807.5151223819994,None,807.5151223819994,None,807.5151223819994,None,807.5151223819994,None,,,,,,,,,,,,,,,,,,,,,,,,,,,,,,,,,,,,,,,,,,,,001,92,2020_Feb_06_1344,spring_faces,3.1.5,59.964885521660776,
condition files/Stage0b_2.xlsx,0b,beta,none,g,"['h', 'g']","['Chess', 'Go']","[-0.15, 0.5]","[0.15, 0.5]",1,0,0,7,7,7,0,1,1,1,,,,,,,,,,,,,,,,,,,,,,,,,,,,,,,,,,,,,,,,,,,,,,,,,,,,,,,,,,,,,,,809.4812469659992,None,809.4812469659992,None,809.4812469659992,None,g,1,0.5922702409989142,811.0320326469991,None,811.0320326469991,None,811.0320326469991,None,811.6856171700019,None,811.6856171700019,None,811.6856171700019,None,811.6856171700019,None,,,,,,,,,,,,,,,,,,,,,,,,,,,,,,,,,,,,,,,,,,,,001,92,2020_Feb_06_1344,spring_faces,3.1.5,59.964885521660776,
condition files/Stage0b_1.xlsx,0b,alpha,none,h,"['h', 'g']","['Chess', 'Go']","[-0.15, 0.5]","[0.15, 0.5]",1,0,0,8,8,8,0,0,0,0,,,,,,,,,,,,,,,,,,,,,,,,,,,,,,,,,,,,,,,,,,,,,,,,,,,,,,,,,,,,,,,813.6647834940013,None,813.6647834940013,None,813.6647834940013,None,h,1,0.7303104170023289,815.1979541209985,None,815.1979541209985,None,815.1979541209985,None,815.9816799969994,None,815.9816799969994,None,815.9816799969994,None,815.9816799969994,None,,,,,,,,,,,,,,,,,,,,,,,,,,,,,,,,,,,,,,,,,,,,001,92,2020_Feb_06_1344,spring_faces,3.1.5,59.964885521660776,
condition files/Stage0b_1.xlsx,0b,none,beta,g,"['h', 'g']","['Chess', 'Go']","[-0.15, 0.5]","[0.15, 0.5]",0,1,0,8,8,8,0,1,1,1,,,,,,,,,,,,,,,,,,,,,,,,,,,,,,,,,,,,,,,,,,,,,,,,,,,,,,,,,,,,,,,817.9471669099985,None,817.9471669099985,None,817.9471669099985,None,g,1,0.6348175570019521,819.4855086589996,None,819.4855086589996,None,819.4855086589996,None,820.1982192799987,None,820.1982192799987,None,820.1982192799987,None,820.1982192799987,None,,,,,,,,,,,,,,,,,,,,,,,,,,,,,,,,,,,,,,,,,,,,001,92,2020_Feb_06_1344,spring_faces,3.1.5,59.964885521660776,
condition files/Stage0b_2.xlsx,0b,beta,none,g,"['h', 'g']","['Chess', 'Go']","[-0.15, 0.5]","[0.15, 0.5]",1,0,0,9,9,9,0,0,0,1,,,,,,,,,,,,,,,,,,,,,,,,,,,,,,,,,,,,,,,,,,,,,,,,,,,,,,,,,,,,,,,822.164249155001,None,822.164249155001,None,822.164249155001,None,g,1,0.6600275870005134,823.7002495560009,None,823.7002495560009,None,823.7002495560009,None,824.4145582749989,None,824.4145582749989,None,824.4145582749989,None,824.4145582749989,None,,,,,,,,,,,,,,,,,,,,,,,,,,,,,,,,,,,,,,,,,,,,001,92,2020_Feb_06_1344,spring_faces,3.1.5,59.964885521660776,
condition files/Stage0b_2.xlsx,0b,none,alpha,h,"['h', 'g']","['Chess', 'Go']","[-0.15, 0.5]","[0.15, 0.5]",0,1,0,9,9,9,0,1,1,0,,,,,,,,,,,,,,,,,,,,,,,,,,,,,,,,,,,,,,,,,,,,,,,,,,,,,,,,,,,,,,,826.3811779489988,None,826.3811779489988,None,826.3811779489988,None,g,0,0.824469795999903,827.9198508240006,None,827.9198508240006,None,827.9198508240006,None,828.8029078190011,None,828.8029078190011,None,828.8029078190011,None,828.8029078190011,None,,,,,,,,,,,,,,,,,,,,,,,,,,,,,,,,,,,,,,,,,,,,001,92,2020_Feb_06_1344,spring_faces,3.1.5,59.964885521660776,
condition files/Stage0b_1.xlsx,0b,none,beta,g,"['h', 'g']","['Chess', 'Go']","[-0.15, 0.5]","[0.15, 0.5]",0,1,0,10,10,10,0,0,0,1,,,,,,,,,,,,,,,,,,,,,,,,,,,,,,,,,,,,,,,,,,,,,,,,,,,,,,,,,,,,,,,830.7815256649992,None,830.7815256649992,None,830.7815256649992,None,g,1,0.5898247420009284,832.3145456019993,None,832.3145456019993,None,832.3145456019993,None,832.9642435179994,None,832.9642435179994,None,832.9642435179994,None,832.9642435179994,None,,,,,,,,,,,,,,,,,,,,,,,,,,,,,,,,,,,,,,,,,,,,001,92,2020_Feb_06_1344,spring_faces,3.1.5,59.964885521660776,
condition files/Stage0b_1.xlsx,0b,alpha,none,h,"['h', 'g']","['Chess', 'Go']","[-0.15, 0.5]","[0.15, 0.5]",1,0,0,10,10,10,0,1,1,0,,,,,,,,,,,,,,,,,,,,,,,,,,,,,,,,,,,,,,,,,,,,,,,,,,,,,,,,,,,,,,,834.9312696230008,None,834.9312696230008,None,834.9312696230008,None,h,1,0.9155009480018634,836.4688273700012,None,836.4688273700012,None,836.4688273700012,None,837.4653304480016,None,837.4653304480016,None,837.4653304480016,None,837.4653304480016,None,,,,,,,,,,,,,,,,,,,,,,,,,,,,,,,,,,,,,,,,,,,,001,92,2020_Feb_06_1344,spring_faces,3.1.5,59.964885521660776,
condition files/Stage0b_2.xlsx,0b,none,alpha,h,"['h', 'g']","['Chess', 'Go']","[-0.15, 0.5]","[0.15, 0.5]",0,1,0,11,11,11,0,0,0,0,,,,,,,,,,,,,,,,,,,,,,,,,,,,,,,,,,,,,,,,,,,,,,,,,,,,,,,,,,,,,,,839.4315486080013,None,839.4315486080013,None,839.4315486080013,None,h,1,1.2346719710003526,840.9656752519986,None,840.9656752519986,None,840.9656752519986,None,842.2645520980004,None,842.2645520980004,None,842.2645520980004,None,842.2645520980004,None,,,,,,,,,,,,,,,,,,,,,,,,,,,,,,,,,,,,,,,,,,,,001,92,2020_Feb_06_1344,spring_faces,3.1.5,59.964885521660776,
condition files/Stage0b_2.xlsx,0b,beta,none,g,"['h', 'g']","['Chess', 'Go']","[-0.15, 0.5]","[0.15, 0.5]",1,0,0,11,11,11,0,1,1,1,,,,,,,,,,,,,,,,,,,,,,,,,,,,,,,,,,,,,,,,,,,,,,,,,,,,,,,,,,,,,,,844.2312561639992,None,844.2312561639992,None,844.2312561639992,None,g,1,0.9931583990000945,845.7671548110011,None,845.7671548110011,None,845.7671548110011,None,846.8177795970005,None,846.8177795970005,None,846.8177795970005,None,846.8177795970005,None,,,,,,,,,,,,,,,,,,,,,,,,,,,,,,,,,,,,,,,,,,,,001,92,2020_Feb_06_1344,spring_faces,3.1.5,59.964885521660776,
condition files/Stage0c_1.xlsx,0c,alpha,phi,h,"['h', 'g']","['Chess', 'Go']","[-0.15, 0.5]","[0.15, 0.5]",1,1,0,12,12,12,0,0,0,1,,,,,,,,,,,,,,,,,,,,,,,,,,,,,,,,,,,,,,,,,,,,,,,,,,,,,,,,,,,,,,,848.798089535001,None,848.798089535001,None,848.798089535001,None,h,1,2.988450830001966,850.331825489,None,850.331825489,None,850.331825489,None,853.3813805450009,None,853.3813805450009,None,853.3813805450009,None,853.3813805450009,None,,,,,,,,,,,,,,,,,,,,,,,,,,,,,,,,,,,,,,,,,,,,001,92,2020_Feb_06_1344,spring_faces,3.1.5,59.964885521660776,
condition files/Stage0c_1.xlsx,0c,beta,theta,g,"['h', 'g']","['Chess', 'Go']","[-0.15, 0.5]","[0.15, 0.5]",1,1,0,12,12,12,0,1,1,2,,,,,,,,,,,,,,,,,,,,,,,,,,,,,,,,,,,,,,,,,,,,,,,,,,,,,,,,,,,,,,,855.3470984560008,None,855.3470984560008,None,855.3470984560008,None,g,1,0.8068481819973385,856.8815112070006,None,856.8815112070006,None,856.8815112070006,None,857.7481903900007,None,857.7481903900007,None,857.7481903900007,None,857.7481903900007,None,,,,,,,,,,,,,,,,,,,,,,,,,,,,,,,,,,,,,,,,,,,,001,92,2020_Feb_06_1344,spring_faces,3.1.5,59.964885521660776,
condition files/Stage0c_1.xlsx,0c,phi,beta,g,"['h', 'g']","['Chess', 'Go']","[-0.15, 0.5]","[0.15, 0.5]",1,1,0,12,12,12,0,2,2,3,,,,,,,,,,,,,,,,,,,,,,,,,,,,,,,,,,,,,,,,,,,,,,,,,,,,,,,,,,,,,,,859.714493686999,None,859.714493686999,None,859.714493686999,None,g,1,0.8239151280031365,861.2483595330013,None,861.2483595330013,None,861.2483595330013,None,862.1180152330016,None,862.1180152330016,None,862.1180152330016,None,862.1180152330016,None,,,,,,,,,,,,,,,,,,,,,,,,,,,,,,,,,,,,,,,,,,,,001,92,2020_Feb_06_1344,spring_faces,3.1.5,59.964885521660776,
condition files/Stage0c_1.xlsx,0c,theta,alpha,h,"['h', 'g']","['Chess', 'Go']","[-0.15, 0.5]","[0.15, 0.5]",1,1,0,12,12,12,0,3,3,0,,,,,,,,,,,,,,,,,,,,,,,,,,,,,,,,,,,,,,,,,,,,,,,,,,,,,,,,,,,,,,,864.0980300260017,None,864.0980300260017,None,864.0980300260017,None,h,1,0.584710286999325,865.6315684190013,None,865.6315684190013,None,865.6315684190013,None,866.2816575729994,None,866.2816575729994,None,866.2816575729994,None,866.2816575729994,None,,,,,,,,,,,,,,,,,,,,,,,,,,,,,,,,,,,,,,,,,,,,001,92,2020_Feb_06_1344,spring_faces,3.1.5,59.964885521660776,
condition files/Stage0c_2.xlsx,0c,beta,phi,g,"['h', 'g']","['Chess', 'Go']","[-0.15, 0.5]","[0.15, 0.5]",1,1,0,13,13,13,0,0,0,3,,,,,,,,,,,,,,,,,,,,,,,,,,,,,,,,,,,,,,,,,,,,,,,,,,,,,,,,,,,,,,,868.2645836410011,None,868.2645836410011,None,868.2645836410011,None,g,1,0.722621719000017,869.7816616429991,None,869.7816616429991,None,869.7816616429991,None,870.5644071499992,None,870.5644071499992,None,870.5644071499992,None,870.5644071499992,None,,,,,,,,,,,,,,,,,,,,,,,,,,,,,,,,,,,,,,,,,,,,001,92,2020_Feb_06_1344,spring_faces,3.1.5,59.964885521660776,
condition files/Stage0c_2.xlsx,0c,alpha,theta,h,"['h', 'g']","['Chess', 'Go']","[-0.15, 0.5]","[0.15, 0.5]",1,1,0,13,13,13,0,1,1,0,,,,,,,,,,,,,,,,,,,,,,,,,,,,,,,,,,,,,,,,,,,,,,,,,,,,,,,,,,,,,,,872.5312524180008,None,872.5312524180008,None,872.5312524180008,None,h,1,1.5922527350012388,874.0641202549996,None,874.0641202549996,None,874.0641202549996,None,875.7148187310013,None,875.7148187310013,None,875.7148187310013,None,875.7148187310013,None,,,,,,,,,,,,,,,,,,,,,,,,,,,,,,,,,,,,,,,,,,,,001,92,2020_Feb_06_1344,spring_faces,3.1.5,59.964885521660776,
condition files/Stage0c_2.xlsx,0c,theta,beta,g,"['h', 'g']","['Chess', 'Go']","[-0.15, 0.5]","[0.15, 0.5]",1,1,0,13,13,13,0,2,2,2,,,,,,,,,,,,,,,,,,,,,,,,,,,,,,,,,,,,,,,,,,,,,,,,,,,,,,,,,,,,,,,877.6809332070006,None,877.6809332070006,None,877.6809332070006,None,g,1,1.305903271000716,879.2144397880002,None,879.2144397880002,None,879.2144397880002,None,880.5812744700015,None,880.5812744700015,None,880.5812744700015,None,880.5812744700015,None,,,,,,,,,,,,,,,,,,,,,,,,,,,,,,,,,,,,,,,,,,,,001,92,2020_Feb_06_1344,spring_faces,3.1.5,59.964885521660776,
condition files/Stage0c_2.xlsx,0c,phi,alpha,h,"['h', 'g']","['Chess', 'Go']","[-0.15, 0.5]","[0.15, 0.5]",1,1,0,13,13,13,0,3,3,1,,,,,,,,,,,,,,,,,,,,,,,,,,,,,,,,,,,,,,,,,,,,,,,,,,,,,,,,,,,,,,,882.5474841290015,None,882.5474841290015,None,882.5474841290015,None,h,1,1.1592700990004232,884.0810082999997,None,884.0810082999997,None,884.0810082999997,None,885.2972759059994,None,885.2972759059994,None,885.2972759059994,None,885.2972759059994,None,,,,,,,,,,,,,,,,,,,,,,,,,,,,,,,,,,,,,,,,,,,,001,92,2020_Feb_06_1344,spring_faces,3.1.5,59.964885521660776,
condition files/Stage0c_1.xlsx,0c,alpha,phi,h,"['h', 'g']","['Chess', 'Go']","[-0.15, 0.5]","[0.15, 0.5]",1,1,0,14,14,14,0,0,0,1,,,,,,,,,,,,,,,,,,,,,,,,,,,,,,,,,,,,,,,,,,,,,,,,,,,,,,,,,,,,,,,887.2812844289983,None,887.2812844289983,None,887.2812844289983,None,g,0,1.0984747129987227,888.7977795980005,None,888.7977795980005,None,888.7977795980005,None,889.9321257759984,None,889.9321257759984,None,889.9321257759984,None,889.9321257759984,None,,,,,,,,,,,,,,,,,,,,,,,,,,,,,,,,,,,,,,,,,,,,001,92,2020_Feb_06_1344,spring_faces,3.1.5,59.964885521660776,
condition files/Stage0c_1.xlsx,0c,phi,beta,g,"['h', 'g']","['Chess', 'Go']","[-0.15, 0.5]","[0.15, 0.5]",1,1,0,14,14,14,0,1,1,3,,,,,,,,,,,,,,,,,,,,,,,,,,,,,,,,,,,,,,,,,,,,,,,,,,,,,,,,,,,,,,,891.9140553329999,None,891.9140553329999,None,891.9140553329999,None,h,0,1.3120273559979978,893.4482530759997,None,893.4482530759997,None,893.4482530759997,None,894.8148897210012,None,894.8148897210012,None,894.8148897210012,None,894.8148897210012,None,,,,,,,,,,,,,,,,,,,,,,,,,,,,,,,,,,,,,,,,,,,,001,92,2020_Feb_06_1344,spring_faces,3.1.5,59.964885521660776,
condition files/Stage0c_1.xlsx,0c,theta,alpha,h,"['h', 'g']","['Chess', 'Go']","[-0.15, 0.5]","[0.15, 0.5]",1,1,0,14,14,14,0,2,2,0,,,,,,,,,,,,,,,,,,,,,,,,,,,,,,,,,,,,,,,,,,,,,,,,,,,,,,,,,,,,,,,896.7813066550007,None,896.7813066550007,None,896.7813066550007,None,h,1,0.6859757989986974,898.3142804390009,None,898.3142804390009,None,898.3142804390009,None,899.0650837360008,None,899.0650837360008,None,899.0650837360008,None,899.0650837360008,None,,,,,,,,,,,,,,,,,,,,,,,,,,,,,,,,,,,,,,,,,,,,001,92,2020_Feb_06_1344,spring_faces,3.1.5,59.964885521660776,
condition files/Stage0c_1.xlsx,0c,beta,theta,g,"['h', 'g']","['Chess', 'Go']","[-0.15, 0.5]","[0.15, 0.5]",1,1,0,14,14,14,0,3,3,2,,,,,,,,,,,,,,,,,,,,,,,,,,,,,,,,,,,,,,,,,,,,,,,,,,,,,,,,,,,,,,,901.0309150559988,None,901.0309150559988,None,901.0309150559988,None,g,1,0.8998117280025326,902.5645354449989,None,902.5645354449989,None,902.5645354449989,None,903.5148789539999,None,903.5148789539999,None,903.5148789539999,None,903.5148789539999,None,,,,,,,,,,,,,,,,,,,,,,,,,,,,,,,,,,,,,,,,,,,,001,92,2020_Feb_06_1344,spring_faces,3.1.5,59.964885521660776,
condition files/Stage0c_2.xlsx,0c,alpha,theta,h,"['h', 'g']","['Chess', 'Go']","[-0.15, 0.5]","[0.15, 0.5]",1,1,0,15,15,15,0,0,0,0,,,,,,,,,,,,,,,,,,,,,,,,,,,,,,,,,,,,,,,,,,,,,,,,,,,,,,,,,,,,,,,905.4979068799985,None,905.4979068799985,None,905.4979068799985,None,h,1,2.1130368140002247,907.0313047870004,None,907.0313047870004,None,907.0313047870004,None,909.1974778750009,None,909.1974778750009,None,909.1974778750009,None,909.1974778750009,None,,,,,,,,,,,,,,,,,,,,,,,,,,,,,,,,,,,,,,,,,,,,001,92,2020_Feb_06_1344,spring_faces,3.1.5,59.964885521660776,
condition files/Stage0c_2.xlsx,0c,beta,phi,g,"['h', 'g']","['Chess', 'Go']","[-0.15, 0.5]","[0.15, 0.5]",1,1,0,15,15,15,0,1,1,3,,,,,,,,,,,,,,,,,,,,,,,,,,,,,,,,,,,,,,,,,,,,,,,,,,,,,,,,,,,,,,,911.1641508440007,None,911.1641508440007,None,911.1641508440007,None,g,1,2.5104340319994662,912.6979529759992,None,912.6979529759992,None,912.6979529759992,None,915.2648741839985,None,915.2648741839985,None,915.2648741839985,None,915.2648741839985,None,,,,,,,,,,,,,,,,,,,,,,,,,,,,,,,,,,,,,,,,,,,,001,92,2020_Feb_06_1344,spring_faces,3.1.5,59.964885521660776,
condition files/Stage0c_2.xlsx,0c,theta,beta,g,"['h', 'g']","['Chess', 'Go']","[-0.15, 0.5]","[0.15, 0.5]",1,1,0,15,15,15,0,2,2,2,,,,,,,,,,,,,,,,,,,,,,,,,,,,,,,,,,,,,,,,,,,,,,,,,,,,,,,,,,,,,,,917.2312740060006,None,917.2312740060006,None,917.2312740060006,None,g,1,1.4671548189980967,918.7651430039987,None,918.7651430039987,None,918.7651430039987,None,920.2829527840004,None,920.2829527840004,None,920.2829527840004,None,920.2829527840004,None,,,,,,,,,,,,,,,,,,,,,,,,,,,,,,,,,,,,,,,,,,,,001,92,2020_Feb_06_1344,spring_faces,3.1.5,59.964885521660776,
condition files/Stage0c_2.xlsx,0c,phi,alpha,h,"['h', 'g']","['Chess', 'Go']","[-0.15, 0.5]","[0.15, 0.5]",1,1,0,15,15,15,0,3,3,1,,,,,,,,,,,,,,,,,,,,,,,,,,,,,,,,,,,,,,,,,,,,,,,,,,,,,,,,,,,,,,,922.2815030640013,None,922.2815030640013,None,922.2815030640013,None,h,1,2.3703630730014993,923.7978847589984,None,923.7978847589984,None,923.7978847589984,None,926.2311667260001,None,926.2311667260001,None,926.2311667260001,None,926.2311667260001,None,,,,,,,,,,,,,,,,,,,,,,,,,,,,,,,,,,,,,,,,,,,,001,92,2020_Feb_06_1344,spring_faces,3.1.5,59.964885521660776,
condition files/Stage0c_1.xlsx,0c,theta,alpha,h,"['h', 'g']","['Chess', 'Go']","[-0.15, 0.5]","[0.15, 0.5]",1,1,0,16,16,16,0,0,0,0,,,,,,,,,,,,,,,,,,,,,,,,,,,,,,,,,,,,,,,,,,,,,,,,,,,,,,,,,,,,,,,928.2143999709988,None,928.2143999709988,None,928.2143999709988,None,h,1,0.9009305649997259,929.7313653140009,None,929.7313653140009,None,929.7313653140009,None,930.6839163770019,None,930.6839163770019,None,930.6839163770019,None,930.6839163770019,None,,,,,,,,,,,,,,,,,,,,,,,,,,,,,,,,,,,,,,,,,,,,001,92,2020_Feb_06_1344,spring_faces,3.1.5,59.964885521660776,
condition files/Stage0c_1.xlsx,0c,phi,beta,g,"['h', 'g']","['Chess', 'Go']","[-0.15, 0.5]","[0.15, 0.5]",1,1,0,16,16,16,0,1,1,3,,,,,,,,,,,,,,,,,,,,,,,,,,,,,,,,,,,,,,,,,,,,,,,,,,,,,,,,,,,,,,,932.6643664920011,None,932.6643664920011,None,932.6643664920011,None,g,1,0.8503594079993491,934.1979148559985,None,934.1979148559985,None,934.1979148559985,None,935.0977573620003,None,935.0977573620003,None,935.0977573620003,None,935.0977573620003,None,,,,,,,,,,,,,,,,,,,,,,,,,,,,,,,,,,,,,,,,,,,,001,92,2020_Feb_06_1344,spring_faces,3.1.5,59.964885521660776,
condition files/Stage0c_1.xlsx,0c,alpha,phi,h,"['h', 'g']","['Chess', 'Go']","[-0.15, 0.5]","[0.15, 0.5]",1,1,0,16,16,16,0,2,2,1,,,,,,,,,,,,,,,,,,,,,,,,,,,,,,,,,,,,,,,,,,,,,,,,,,,,,,,,,,,,,,,937.0647510089984,None,937.0647510089984,None,937.0647510089984,None,h,1,1.106620575999841,938.5977238349988,None,938.5977238349988,None,938.5977238349988,None,939.7649866089996,None,939.7649866089996,None,939.7649866089996,None,939.7649866089996,None,,,,,,,,,,,,,,,,,,,,,,,,,,,,,,,,,,,,,,,,,,,,001,92,2020_Feb_06_1344,spring_faces,3.1.5,59.964885521660776,
condition files/Stage0c_1.xlsx,0c,beta,theta,g,"['h', 'g']","['Chess', 'Go']","[-0.15, 0.5]","[0.15, 0.5]",1,1,0,16,16,16,0,3,3,2,,,,,,,,,,,,,,,,,,,,,,,,,,,,,,,,,,,,,,,,,,,,,,,,,,,,,,,,,,,,,,,941.7313879050016,None,941.7313879050016,None,941.7313879050016,None,g,1,1.176099427997542,943.2641770390001,None,943.2641770390001,None,943.2641770390001,None,944.4984316990012,None,944.4984316990012,None,944.4984316990012,None,944.4984316990012,None,,,,,,,,,,,,,,,,,,,,,,,,,,,,,,,,,,,,,,,,,,,,001,92,2020_Feb_06_1344,spring_faces,3.1.5,59.964885521660776,
condition files/Stage0c_2.xlsx,0c,alpha,theta,h,"['h', 'g']","['Chess', 'Go']","[-0.15, 0.5]","[0.15, 0.5]",1,1,0,17,17,17,0,0,0,0,,,,,,,,,,,,,,,,,,,,,,,,,,,,,,,,,,,,,,,,,,,,,,,,,,,,,,,,,,,,,,,946.4806026570004,None,946.4806026570004,None,946.4806026570004,None,h,1,1.0172840349987382,948.0150335489998,None,948.0150335489998,None,948.0150335489998,None,949.0982055749992,None,949.0982055749992,None,949.0982055749992,None,949.0982055749992,None,,,,,,,,,,,,,,,,,,,,,,,,,,,,,,,,,,,,,,,,,,,,001,92,2020_Feb_06_1344,spring_faces,3.1.5,59.964885521660776,
condition files/Stage0c_2.xlsx,0c,theta,beta,g,"['h', 'g']","['Chess', 'Go']","[-0.15, 0.5]","[0.15, 0.5]",1,1,0,17,17,17,0,1,1,2,,,,,,,,,,,,,,,,,,,,,,,,,,,,,,,,,,,,,,,,,,,,,,,,,,,,,,,,,,,,,,,951.0644491550011,None,951.0644491550011,None,951.0644491550011,None,g,1,2.369837030000781,952.5984578150019,None,952.5984578150019,None,952.5984578150019,None,955.0314761090012,None,955.0314761090012,None,955.0314761090012,None,955.0314761090012,None,,,,,,,,,,,,,,,,,,,,,,,,,,,,,,,,,,,,,,,,,,,,001,92,2020_Feb_06_1344,spring_faces,3.1.5,59.964885521660776,
condition files/Stage0c_2.xlsx,0c,phi,alpha,h,"['h', 'g']","['Chess', 'Go']","[-0.15, 0.5]","[0.15, 0.5]",1,1,0,17,17,17,0,2,2,1,,,,,,,,,,,,,,,,,,,,,,,,,,,,,,,,,,,,,,,,,,,,,,,,,,,,,,,,,,,,,,,956.9974755600015,None,956.9974755600015,None,956.9974755600015,None,h,1,2.1169276780019572,958.5313747770015,None,958.5313747770015,None,958.5313747770015,None,960.6978938450011,None,960.6978938450011,None,960.6978938450011,None,960.6978938450011,None,,,,,,,,,,,,,,,,,,,,,,,,,,,,,,,,,,,,,,,,,,,,001,92,2020_Feb_06_1344,spring_faces,3.1.5,59.964885521660776,
condition files/Stage0c_2.xlsx,0c,beta,phi,g,"['h', 'g']","['Chess', 'Go']","[-0.15, 0.5]","[0.15, 0.5]",1,1,0,17,17,17,0,3,3,3,,,,,,,,,,,,,,,,,,,,,,,,,,,,,,,,,,,,,,,,,,,,,,,,,,,,,,,,,,,,,,,962.6647419239998,None,962.6647419239998,None,962.6647419239998,None,g,1,1.3461669030002668,964.1981507730015,None,964.1981507730015,None,964.1981507730015,None,965.5982475400015,None,965.5982475400015,None,965.5982475400015,None,965.5982475400015,None,,,,,,,,,,,,,,,,,,,,,,,,,,,,,,,,,,,,,,,,,,,,001,92,2020_Feb_06_1344,spring_faces,3.1.5,59.964885521660776,
,,,,,,,,,,,,,,,,,,,,,,,,,,,,,,,,,,,,,,,,,,,,,,,,,,,,,,,,,,,,,,,,,,,,,,,,,,,,,,,,,,,,,,,,,,,,,,,,,,,,,,,,967.5815016050001,None,space,1.490999773999647,972.5814167509998,None,,,,,,,,,,,,,,,,,,,,,,,,,,,,,,,,,,,,,,001,92,2020_Feb_06_1344,spring_faces,3.1.5,59.964885521660776,
condition files/Stage1_1.xlsx,,B1,T2,c,"['c', 'm']","['Clue', 'Monopoly']","[-0.15, 0.5]","[0.15, 0.5]",1,1,,,,,,,,,0,0,0,0,0,0,0,1,,,,,,,,,,,,,,,,,,,,,,,,,,,,,,,,,,,,,,,,,,,,,,,,,,,,,,,974.1313147600013,None,974.1313147600013,None,974.1313147600013,None,c,1,0.6640778369983309,975.6482571449997,None,975.6482571449997,None,975.6482571449997,None,976.3815288719998,None,976.3815288719998,None,976.3815288719998,None,976.3815288719998,None,,,,,,,972.5814167509998,None,,,,,,,,,,,,,,,,,,,,,,,,,,,,,,,,,,,,001,92,2020_Feb_06_1344,spring_faces,3.1.5,59.964885521660776,
condition files/Stage1_1.xlsx,,T4,B3,m,"['c', 'm']","['Clue', 'Monopoly']","[-0.15, 0.5]","[0.15, 0.5]",1,1,,,,,,,,,0,0,0,0,0,1,1,6,,,,,,,,,,,,,,,,,,,,,,,,,,,,,,,,,,,,,,,,,,,,,,,,,,,,,,,978.3317403270012,None,978.3317403270012,None,978.3317403270012,None,m,1,0.7513873749994673,979.8648996920019,None,979.8648996920019,None,979.8648996920019,None,980.6983506840006,None,980.6983506840006,None,980.6983506840006,None,980.6983506840006,None,,,,,,,,,,,,,,,,,,,,,,,,,,,,,,,,,,,,,,,,,,,,001,92,2020_Feb_06_1344,spring_faces,3.1.5,59.964885521660776,
condition files/Stage1_1.xlsx,,T1,B1,c,"['c', 'm']","['Clue', 'Monopoly']","[-0.15, 0.5]","[0.15, 0.5]",1,1,,,,,,,,,0,0,0,0,0,2,2,0,,,,,,,,,,,,,,,,,,,,,,,,,,,,,,,,,,,,,,,,,,,,,,,,,,,,,,,982.6473835950019,None,982.6473835950019,None,982.6473835950019,None,c,1,1.0101485529994534,984.1982400880006,None,984.1982400880006,None,984.1982400880006,None,985.2653555850011,None,985.2653555850011,None,985.2653555850011,None,985.2653555850011,None,,,,,,,,,,,,,,,,,,,,,,,,,,,,,,,,,,,,,,,,,,,,001,92,2020_Feb_06_1344,spring_faces,3.1.5,59.964885521660776,
condition files/Stage1_1.xlsx,,B4,T4,m,"['c', 'm']","['Clue', 'Monopoly']","[-0.15, 0.5]","[0.15, 0.5]",1,1,,,,,,,,,0,0,0,0,0,3,3,7,,,,,,,,,,,,,,,,,,,,,,,,,,,,,,,,,,,,,,,,,,,,,,,,,,,,,,,987.2309968119989,None,987.2309968119989,None,987.2309968119989,None,m,1,1.0974367180024274,988.7668810469986,None,988.7668810469986,None,988.7668810469986,None,989.9169691850002,None,989.9169691850002,None,989.9169691850002,None,989.9169691850002,None,,,,,,,,,,,,,,,,,,,,,,,,,,,,,,,,,,,,,,,,,,,,001,92,2020_Feb_06_1344,spring_faces,3.1.5,59.964885521660776,
condition files/Stage1_1.xlsx,,T3,B4,c,"['c', 'm']","['Clue', 'Monopoly']","[-0.15, 0.5]","[0.15, 0.5]",1,1,,,,,,,,,0,0,0,0,0,4,4,5,,,,,,,,,,,,,,,,,,,,,,,,,,,,,,,,,,,,,,,,,,,,,,,,,,,,,,,991.8814807259987,None,991.8814807259987,None,991.8814807259987,None,m,0,0.8015606080007274,993.4147370880019,None,993.4147370880019,None,993.4147370880019,None,994.2982279380012,None,994.2982279380012,None,994.2982279380012,None,994.2982279380012,None,,,,,,,,,,,,,,,,,,,,,,,,,,,,,,,,,,,,,,,,,,,,001,92,2020_Feb_06_1344,spring_faces,3.1.5,59.964885521660776,
condition files/Stage1_1.xlsx,,T2,B2,m,"['c', 'm']","['Clue', 'Monopoly']","[-0.15, 0.5]","[0.15, 0.5]",1,1,,,,,,,,,0,0,0,0,0,5,5,3,,,,,,,,,,,,,,,,,,,,,,,,,,,,,,,,,,,,,,,,,,,,,,,,,,,,,,,996.2479736870009,None,996.2479736870009,None,996.2479736870009,None,c,0,1.714861848999135,997.7814848310009,None,997.7814848310009,None,997.7814848310009,None,999.5482744520014,None,999.5482744520014,None,999.5482744520014,None,999.5482744520014,None,,,,,,,,,,,,,,,,,,,,,,,,,,,,,,,,,,,,,,,,,,,,001,92,2020_Feb_06_1344,spring_faces,3.1.5,59.964885521660776,
condition files/Stage1_1.xlsx,,B2,T1,m,"['c', 'm']","['Clue', 'Monopoly']","[-0.15, 0.5]","[0.15, 0.5]",1,1,,,,,,,,,0,0,0,0,0,6,6,2,,,,,,,,,,,,,,,,,,,,,,,,,,,,,,,,,,,,,,,,,,,,,,,,,,,,,,,1001.5146504600016,None,1001.5146504600016,None,1001.5146504600016,None,m,1,1.6322962129997904,1003.0480329579987,None,1003.0480329579987,None,1003.0480329579987,None,1004.7315364860006,None,1004.7315364860006,None,1004.7315364860006,None,1004.7315364860006,None,,,,,,,,,,,,,,,,,,,,,,,,,,,,,,,,,,,,,,,,,,,,001,92,2020_Feb_06_1344,spring_faces,3.1.5,59.964885521660776,
condition files/Stage1_1.xlsx,,B3,T3,c,"['c', 'm']","['Clue', 'Monopoly']","[-0.15, 0.5]","[0.15, 0.5]",1,1,,,,,,,,,0,0,0,0,0,7,7,4,,,,,,,,,,,,,,,,,,,,,,,,,,,,,,,,,,,,,,,,,,,,,,,,,,,,,,,1006.6978151959993,None,1006.6978151959993,None,1006.6978151959993,None,c,1,0.7989650659983454,1008.233336827001,None,1008.233336827001,None,1008.233336827001,None,1009.0983713429996,None,1009.0983713429996,None,1009.0983713429996,None,1009.0983713429996,None,,,,,,,,,,,,,,,,,,,,,,,,,,,,,,,,,,,,,,,,,,,,001,92,2020_Feb_06_1344,spring_faces,3.1.5,59.964885521660776,
condition files/Stage1_2.xlsx,,T2,B1,c,"['c', 'm']","['Clue', 'Monopoly']","[-0.15, 0.5]","[0.15, 0.5]",1,1,,,,,,,,,0,1,1,1,0,0,0,1,,,,,,,,,,,,,,,,,,,,,,,,,,,,,,,,,,,,,,,,,,,,,,,,,,,,,,,1011.0818160679992,None,1011.0818160679992,None,1011.0818160679992,None,c,1,1.919237867998163,1012.6171366220005,None,1012.6171366220005,None,1012.6171366220005,None,1014.5979278420018,None,1014.5979278420018,None,1014.5979278420018,None,1014.5979278420018,None,,,,,,,,,,,,,,,,,,,,,,,,,,,,,,,,,,,,,,,,,,,,001,92,2020_Feb_06_1344,spring_faces,3.1.5,59.964885521660776,
condition files/Stage1_2.xlsx,,B3,T4,m,"['c', 'm']","['Clue', 'Monopoly']","[-0.15, 0.5]","[0.15, 0.5]",1,1,,,,,,,,,0,1,1,1,0,1,1,6,,,,,,,,,,,,,,,,,,,,,,,,,,,,,,,,,,,,,,,,,,,,,,,,,,,,,,,1016.5646294090002,None,1016.5646294090002,None,1016.5646294090002,None,m,1,2.0691591710019566,1018.0991853380001,None,1018.0991853380001,None,1018.0991853380001,None,1020.2319571810003,None,1020.2319571810003,None,1020.2319571810003,None,1020.2319571810003,None,,,,,,,,,,,,,,,,,,,,,,,,,,,,,,,,,,,,,,,,,,,,001,92,2020_Feb_06_1344,spring_faces,3.1.5,59.964885521660776,
condition files/Stage1_2.xlsx,,B1,T1,c,"['c', 'm']","['Clue', 'Monopoly']","[-0.15, 0.5]","[0.15, 0.5]",1,1,,,,,,,,,0,1,1,1,0,2,2,0,,,,,,,,,,,,,,,,,,,,,,,,,,,,,,,,,,,,,,,,,,,,,,,,,,,,,,,1022.1979573450008,None,1022.1979573450008,None,1022.1979573450008,None,c,1,0.9960198730004777,1023.7483104409985,None,1023.7483104409985,None,1023.7483104409985,None,1024.7995473800001,None,1024.7995473800001,None,1024.7995473800001,None,1024.7995473800001,None,,,,,,,,,,,,,,,,,,,,,,,,,,,,,,,,,,,,,,,,,,,,001,92,2020_Feb_06_1344,spring_faces,3.1.5,59.964885521660776,
condition files/Stage1_2.xlsx,,T4,B4,m,"['c', 'm']","['Clue', 'Monopoly']","[-0.15, 0.5]","[0.15, 0.5]",1,1,,,,,,,,,0,1,1,1,0,3,3,7,,,,,,,,,,,,,,,,,,,,,,,,,,,,,,,,,,,,,,,,,,,,,,,,,,,,,,,1026.7645377340014,None,1026.7645377340014,None,1026.7645377340014,None,m,1,1.677428022998356,1028.3148928539995,None,1028.3148928539995,None,1028.3148928539995,None,1030.0509181230009,None,1030.0509181230009,None,1030.0509181230009,None,1030.0509181230009,None,,,,,,,,,,,,,,,,,,,,,,,,,,,,,,,,,,,,,,,,,,,,001,92,2020_Feb_06_1344,spring_faces,3.1.5,59.964885521660776,
condition files/Stage1_2.xlsx,,B2,T2,m,"['c', 'm']","['Clue', 'Monopoly']","[-0.15, 0.5]","[0.15, 0.5]",1,1,,,,,,,,,0,1,1,1,0,4,4,3,,,,,,,,,,,,,,,,,,,,,,,,,,,,,,,,,,,,,,,,,,,,,,,,,,,,,,,1032.0143903060016,None,1032.0143903060016,None,1032.0143903060016,None,m,1,1.2908799309989263,1033.5495204360013,None,1033.5495204360013,None,1033.5495204360013,None,1034.8974987479996,None,1034.8974987479996,None,1034.8974987479996,None,1034.8974987479996,None,,,,,,,,,,,,,,,,,,,,,,,,,,,,,,,,,,,,,,,,,,,,001,92,2020_Feb_06_1344,spring_faces,3.1.5,59.964885521660776,
condition files/Stage1_2.xlsx,,B4,T3,c,"['c', 'm']","['Clue', 'Monopoly']","[-0.15, 0.5]","[0.15, 0.5]",1,1,,,,,,,,,0,1,1,1,0,5,5,5,,,,,,,,,,,,,,,,,,,,,,,,,,,,,,,,,,,,,,,,,,,,,,,,,,,,,,,1036.8641245789986,None,1036.8641245789986,None,1036.8641245789986,None,c,1,0.9528828589973273,1038.3994755540007,None,1038.3994755540007,None,1038.3994755540007,None,1039.4315999940009,None,1039.4315999940009,None,1039.4315999940009,None,1039.4315999940009,None,,,,,,,,,,,,,,,,,,,,,,,,,,,,,,,,,,,,,,,,,,,,001,92,2020_Feb_06_1344,spring_faces,3.1.5,59.964885521660776,
condition files/Stage1_2.xlsx,,T1,B2,m,"['c', 'm']","['Clue', 'Monopoly']","[-0.15, 0.5]","[0.15, 0.5]",1,1,,,,,,,,,0,1,1,1,0,6,6,2,,,,,,,,,,,,,,,,,,,,,,,,,,,,,,,,,,,,,,,,,,,,,,,,,,,,,,,1041.3812405280005,None,1041.3812405280005,None,1041.3812405280005,None,m,1,4.293952707001154,1042.9144356479992,None,1042.9144356479992,None,1042.9144356479992,None,1047.2646548129997,None,1047.2646548129997,None,1047.2646548129997,None,1047.2646548129997,None,,,,,,,,,,,,,,,,,,,,,,,,,,,,,,,,,,,,,,,,,,,,001,92,2020_Feb_06_1344,spring_faces,3.1.5,59.964885521660776,
condition files/Stage1_2.xlsx,,T3,B3,c,"['c', 'm']","['Clue', 'Monopoly']","[-0.15, 0.5]","[0.15, 0.5]",1,1,,,,,,,,,0,1,1,1,0,7,7,4,,,,,,,,,,,,,,,,,,,,,,,,,,,,,,,,,,,,,,,,,,,,,,,,,,,,,,,1049.231421184999,None,1049.231421184999,None,1049.231421184999,None,c,1,1.0993614500002877,1050.764982659999,None,1050.764982659999,None,1050.764982659999,None,1051.9172841949985,None,1051.9172841949985,None,1051.9172841949985,None,1051.9172841949985,None,,,,,,,,,,,,,,,,,,,,,,,,,,,,,,,,,,,,,,,,,,,,001,92,2020_Feb_06_1344,spring_faces,3.1.5,59.964885521660776,
condition files/Stage1_1.xlsx,,B3,T3,c,"['c', 'm']","['Clue', 'Monopoly']","[-0.15, 0.5]","[0.15, 0.5]",1,1,,,,,,,,,0,2,2,2,0,0,0,4,,,,,,,,,,,,,,,,,,,,,,,,,,,,,,,,,,,,,,,,,,,,,,,,,,,,,,,1053.8976444979999,None,1053.8976444979999,None,1053.8976444979999,None,m,0,1.1212157560003106,1055.4311408210015,None,1055.4311408210015,None,1055.4311408210015,None,1056.6149059960007,None,1056.6149059960007,None,1056.6149059960007,None,1056.6149059960007,None,,,,,,,,,,,,,,,,,,,,,,,,,,,,,,,,,,,,,,,,,,,,001,92,2020_Feb_06_1344,spring_faces,3.1.5,59.964885521660776,
condition files/Stage1_1.xlsx,,T3,B4,c,"['c', 'm']","['Clue', 'Monopoly']","[-0.15, 0.5]","[0.15, 0.5]",1,1,,,,,,,,,0,2,2,2,0,1,1,5,,,,,,,,,,,,,,,,,,,,,,,,,,,,,,,,,,,,,,,,,,,,,,,,,,,,,,,1058.5813042029986,None,1058.5813042029986,None,1058.5813042029986,None,m,0,1.525885921997542,1060.1145213519994,None,1060.1145213519994,None,1060.1145213519994,None,1061.6979461039991,None,1061.6979461039991,None,1061.6979461039991,None,1061.6979461039991,None,,,,,,,,,,,,,,,,,,,,,,,,,,,,,,,,,,,,,,,,,,,,001,92,2020_Feb_06_1344,spring_faces,3.1.5,59.964885521660776,
condition files/Stage1_1.xlsx,,B2,T1,m,"['c', 'm']","['Clue', 'Monopoly']","[-0.15, 0.5]","[0.15, 0.5]",1,1,,,,,,,,,0,2,2,2,0,2,2,2,,,,,,,,,,,,,,,,,,,,,,,,,,,,,,,,,,,,,,,,,,,,,,,,,,,,,,,1063.6647886870014,None,1063.6647886870014,None,1063.6647886870014,None,m,1,1.7546274369997263,1065.1977230379998,None,1065.1977230379998,None,1065.1977230379998,None,1067.0176357710006,None,1067.0176357710006,None,1067.0176357710006,None,1067.0176357710006,None,,,,,,,,,,,,,,,,,,,,,,,,,,,,,,,,,,,,,,,,,,,,001,92,2020_Feb_06_1344,spring_faces,3.1.5,59.964885521660776,
condition files/Stage1_1.xlsx,,T2,B2,m,"['c', 'm']","['Clue', 'Monopoly']","[-0.15, 0.5]","[0.15, 0.5]",1,1,,,,,,,,,0,2,2,2,0,3,3,3,,,,,,,,,,,,,,,,,,,,,,,,,,,,,,,,,,,,,,,,,,,,,,,,,,,,,,,1068.981146394999,None,1068.981146394999,None,1068.981146394999,None,c,0,1.8942427820002194,1070.5141611010004,None,1070.5141611010004,None,1070.5141611010004,None,1072.4642900430008,None,1072.4642900430008,None,1072.4642900430008,None,1072.4642900430008,None,,,,,,,,,,,,,,,,,,,,,,,,,,,,,,,,,,,,,,,,,,,,001,92,2020_Feb_06_1344,spring_faces,3.1.5,59.964885521660776,
condition files/Stage1_1.xlsx,,T4,B3,m,"['c', 'm']","['Clue', 'Monopoly']","[-0.15, 0.5]","[0.15, 0.5]",1,1,,,,,,,,,0,2,2,2,0,4,4,6,,,,,,,,,,,,,,,,,,,,,,,,,,,,,,,,,,,,,,,,,,,,,,,,,,,,,,,1074.4312231500007,None,1074.4312231500007,None,1074.4312231500007,None,c,0,1.1465352080012963,1075.9657989900006,None,1075.9657989900006,None,1075.9657989900006,None,1077.1651423510011,None,1077.1651423510011,None,1077.1651423510011,None,1077.1651423510011,None,,,,,,,,,,,,,,,,,,,,,,,,,,,,,,,,,,,,,,,,,,,,001,92,2020_Feb_06_1344,spring_faces,3.1.5,59.964885521660776,
condition files/Stage1_1.xlsx,,B1,T2,c,"['c', 'm']","['Clue', 'Monopoly']","[-0.15, 0.5]","[0.15, 0.5]",1,1,,,,,,,,,0,2,2,2,0,5,5,1,,,,,,,,,,,,,,,,,,,,,,,,,,,,,,,,,,,,,,,,,,,,,,,,,,,,,,,1079.130933929002,None,1079.130933929002,None,1079.130933929002,None,c,1,1.1826023119974707,1080.665675002001,None,1080.665675002001,None,1080.665675002001,None,1081.916581622001,None,1081.916581622001,None,1081.916581622001,None,1081.916581622001,None,,,,,,,,,,,,,,,,,,,,,,,,,,,,,,,,,,,,,,,,,,,,001,92,2020_Feb_06_1344,spring_faces,3.1.5,59.964885521660776,
condition files/Stage1_1.xlsx,,T1,B1,c,"['c', 'm']","['Clue', 'Monopoly']","[-0.15, 0.5]","[0.15, 0.5]",1,1,,,,,,,,,0,2,2,2,0,6,6,0,,,,,,,,,,,,,,,,,,,,,,,,,,,,,,,,,,,,,,,,,,,,,,,,,,,,,,,1083.8809726920008,None,1083.8809726920008,None,1083.8809726920008,None,c,1,1.0408409649971873,1085.4315493590002,None,1085.4315493590002,None,1085.4315493590002,None,1086.5318081500009,None,1086.5318081500009,None,1086.5318081500009,None,1086.5318081500009,None,,,,,,,,,,,,,,,,,,,,,,,,,,,,,,,,,,,,,,,,,,,,001,92,2020_Feb_06_1344,spring_faces,3.1.5,59.964885521660776,
condition files/Stage1_1.xlsx,,B4,T4,m,"['c', 'm']","['Clue', 'Monopoly']","[-0.15, 0.5]","[0.15, 0.5]",1,1,,,,,,,,,0,2,2,2,0,7,7,7,,,,,,,,,,,,,,,,,,,,,,,,,,,,,,,,,,,,,,,,,,,,,,,,,,,,,,,1088.497921192,None,1088.497921192,None,1088.497921192,None,m,1,1.7850545729997975,1090.0312469739983,None,1090.0312469739983,None,1090.0312469739983,None,1091.8975018550009,None,1091.8975018550009,None,1091.8975018550009,None,1091.8975018550009,None,,,,,,,,,,,,,,,,,,,,,,,,,,,,,,,,,,,,,,,,,,,,001,92,2020_Feb_06_1344,spring_faces,3.1.5,59.964885521660776,
condition files/Stage1_2.xlsx,,B4,T3,c,"['c', 'm']","['Clue', 'Monopoly']","[-0.15, 0.5]","[0.15, 0.5]",1,1,,,,,,,,,0,3,3,3,0,0,0,5,,,,,,,,,,,,,,,,,,,,,,,,,,,,,,,,,,,,,,,,,,,,,,,,,,,,,,,1093.864866336,None,1093.864866336,None,1093.864866336,None,m,0,4.480757366000034,1095.3995902569986,None,1095.3995902569986,None,1095.3995902569986,None,1099.9333805569986,None,1099.9333805569986,None,1099.9333805569986,None,1099.9333805569986,None,,,,,,,,,,,,,,,,,,,,,,,,,,,,,,,,,,,,,,,,,,,,001,92,2020_Feb_06_1344,spring_faces,3.1.5,59.964885521660776,
condition files/Stage1_2.xlsx,,T2,B1,c,"['c', 'm']","['Clue', 'Monopoly']","[-0.15, 0.5]","[0.15, 0.5]",1,1,,,,,,,,,0,3,3,3,0,1,1,1,,,,,,,,,,,,,,,,,,,,,,,,,,,,,,,,,,,,,,,,,,,,,,,,,,,,,,,1101.8978769290006,None,1101.8978769290006,None,1101.8978769290006,None,c,1,1.0092497290024767,1103.4311617620006,None,1103.4311617620006,None,1103.4311617620006,None,1104.498274687001,None,1104.498274687001,None,1104.498274687001,None,1104.498274687001,None,,,,,,,,,,,,,,,,,,,,,,,,,,,,,,,,,,,,,,,,,,,,001,92,2020_Feb_06_1344,spring_faces,3.1.5,59.964885521660776,
condition files/Stage1_2.xlsx,,B2,T2,m,"['c', 'm']","['Clue', 'Monopoly']","[-0.15, 0.5]","[0.15, 0.5]",1,1,,,,,,,,,0,3,3,3,0,2,2,3,,,,,,,,,,,,,,,,,,,,,,,,,,,,,,,,,,,,,,,,,,,,,,,,,,,,,,,1106.4645708509997,None,1106.4645708509997,None,1106.4645708509997,None,c,0,2.5680527459990117,1108.000300926,None,1108.000300926,None,1108.000300926,None,1110.632557893001,None,1110.632557893001,None,1110.632557893001,None,1110.632557893001,None,,,,,,,,,,,,,,,,,,,,,,,,,,,,,,,,,,,,,,,,,,,,001,92,2020_Feb_06_1344,spring_faces,3.1.5,59.964885521660776,
condition files/Stage1_2.xlsx,,B3,T4,m,"['c', 'm']","['Clue', 'Monopoly']","[-0.15, 0.5]","[0.15, 0.5]",1,1,,,,,,,,,0,3,3,3,0,3,3,6,,,,,,,,,,,,,,,,,,,,,,,,,,,,,,,,,,,,,,,,,,,,,,,,,,,,,,,1112.598073330999,None,1112.598073330999,None,1112.598073330999,None,c,0,1.4129128610002226,1114.1314362859994,None,1114.1314362859994,None,1114.1314362859994,None,1115.5983376170007,None,1115.5983376170007,None,1115.5983376170007,None,1115.5983376170007,None,,,,,,,,,,,,,,,,,,,,,,,,,,,,,,,,,,,,,,,,,,,,001,92,2020_Feb_06_1344,spring_faces,3.1.5,59.964885521660776,
condition files/Stage1_2.xlsx,,B1,T1,c,"['c', 'm']","['Clue', 'Monopoly']","[-0.15, 0.5]","[0.15, 0.5]",1,1,,,,,,,,,0,3,3,3,0,4,4,0,,,,,,,,,,,,,,,,,,,,,,,,,,,,,,,,,,,,,,,,,,,,,,,,,,,,,,,1117.5644420870012,None,1117.5644420870012,None,1117.5644420870012,None,c,1,0.9402443549988675,1119.1001655729997,None,1119.1001655729997,None,1119.1001655729997,None,1120.0990670060019,None,1120.0990670060019,None,1120.0990670060019,None,1120.0990670060019,None,,,,,,,,,,,,,,,,,,,,,,,,,,,,,,,,,,,,,,,,,,,,001,92,2020_Feb_06_1344,spring_faces,3.1.5,59.964885521660776,
condition files/Stage1_2.xlsx,,T1,B2,m,"['c', 'm']","['Clue', 'Monopoly']","[-0.15, 0.5]","[0.15, 0.5]",1,1,,,,,,,,,0,3,3,3,0,5,5,2,,,,,,,,,,,,,,,,,,,,,,,,,,,,,,,,,,,,,,,,,,,,,,,,,,,,,,,1122.0646210150007,None,1122.0646210150007,None,1122.0646210150007,None,m,1,1.8005308140018315,1123.5998171710016,None,1123.5998171710016,None,1123.5998171710016,None,1125.4816372189998,None,1125.4816372189998,None,1125.4816372189998,None,1125.4816372189998,None,,,,,,,,,,,,,,,,,,,,,,,,,,,,,,,,,,,,,,,,,,,,001,92,2020_Feb_06_1344,spring_faces,3.1.5,59.964885521660776,
condition files/Stage1_2.xlsx,,T4,B4,m,"['c', 'm']","['Clue', 'Monopoly']","[-0.15, 0.5]","[0.15, 0.5]",1,1,,,,,,,,,0,3,3,3,0,6,6,7,,,,,,,,,,,,,,,,,,,,,,,,,,,,,,,,,,,,,,,,,,,,,,,,,,,,,,,1127.4307309040014,None,1127.4307309040014,None,1127.4307309040014,None,m,1,2.035857284001395,1128.9644887409995,None,1128.9644887409995,None,1128.9644887409995,None,1131.0650918829997,None,1131.0650918829997,None,1131.0650918829997,None,1131.0650918829997,None,,,,,,,,,,,,,,,,,,,,,,,,,,,,,,,,,,,,,,,,,,,,001,92,2020_Feb_06_1344,spring_faces,3.1.5,59.964885521660776,
condition files/Stage1_2.xlsx,,T3,B3,c,"['c', 'm']","['Clue', 'Monopoly']","[-0.15, 0.5]","[0.15, 0.5]",1,1,,,,,,,,,0,3,3,3,0,7,7,4,,,,,,,,,,,,,,,,,,,,,,,,,,,,,,,,,,,,,,,,,,,,,,,,,,,,,,,1133.0310531860014,None,1133.0310531860014,None,1133.0310531860014,None,m,0,2.1148943640000653,1134.565446171,None,1134.565446171,None,1134.565446171,None,1136.7307746049992,None,1136.7307746049992,None,1136.7307746049992,None,1136.7307746049992,None,,,,,,,,,,,,,,,,,,,,,,,,,,,,,,,,,,,,,,,,,,,,001,92,2020_Feb_06_1344,spring_faces,3.1.5,59.964885521660776,
condition files/Stage1_1.xlsx,,B4,T4,m,"['c', 'm']","['Clue', 'Monopoly']","[-0.15, 0.5]","[0.15, 0.5]",1,1,,,,,,,,,0,4,4,4,0,0,0,7,,,,,,,,,,,,,,,,,,,,,,,,,,,,,,,,,,,,,,,,,,,,,,,,,,,,,,,1138.7148893010017,None,1138.7148893010017,None,1138.7148893010017,None,m,1,0.9417207440019411,1140.2505882859987,None,1140.2505882859987,None,1140.2505882859987,None,1141.2489791199987,None,1141.2489791199987,None,1141.2489791199987,None,1141.2489791199987,None,,,,,,,,,,,,,,,,,,,,,,,,,,,,,,,,,,,,,,,,,,,,001,92,2020_Feb_06_1344,spring_faces,3.1.5,59.964885521660776,
condition files/Stage1_1.xlsx,,B3,T3,c,"['c', 'm']","['Clue', 'Monopoly']","[-0.15, 0.5]","[0.15, 0.5]",1,1,,,,,,,,,0,4,4,4,0,1,1,4,,,,,,,,,,,,,,,,,,,,,,,,,,,,,,,,,,,,,,,,,,,,,,,,,,,,,,,1143.2144899480008,None,1143.2144899480008,None,1143.2144899480008,None,c,1,1.3715095209990977,1144.7648204690013,None,1144.7648204690013,None,1144.7648204690013,None,1146.1974764430015,None,1146.1974764430015,None,1146.1974764430015,None,1146.1974764430015,None,,,,,,,,,,,,,,,,,,,,,,,,,,,,,,,,,,,,,,,,,,,,001,92,2020_Feb_06_1344,spring_faces,3.1.5,59.964885521660776,
condition files/Stage1_1.xlsx,,B1,T2,c,"['c', 'm']","['Clue', 'Monopoly']","[-0.15, 0.5]","[0.15, 0.5]",1,1,,,,,,,,,0,4,4,4,0,2,2,1,,,,,,,,,,,,,,,,,,,,,,,,,,,,,,,,,,,,,,,,,,,,,,,,,,,,,,,1148.1646454660004,None,1148.1646454660004,None,1148.1646454660004,None,c,1,1.3173116340003617,1149.7149653150009,None,1149.7149653150009,None,1149.7149653150009,None,1151.0982348729995,None,1151.0982348729995,None,1151.0982348729995,None,1151.0982348729995,None,,,,,,,,,,,,,,,,,,,,,,,,,,,,,,,,,,,,,,,,,,,,001,92,2020_Feb_06_1344,spring_faces,3.1.5,59.964885521660776,
condition files/Stage1_1.xlsx,,T4,B3,m,"['c', 'm']","['Clue', 'Monopoly']","[-0.15, 0.5]","[0.15, 0.5]",1,1,,,,,,,,,0,4,4,4,0,3,3,6,,,,,,,,,,,,,,,,,,,,,,,,,,,,,,,,,,,,,,,,,,,,,,,,,,,,,,,1153.0644480660012,None,1153.0644480660012,None,1153.0644480660012,None,m,1,1.9064474330007215,1154.5979566310016,None,1154.5979566310016,None,1154.5979566310016,None,1156.5651021230005,None,1156.5651021230005,None,1156.5651021230005,None,1156.5651021230005,None,,,,,,,,,,,,,,,,,,,,,,,,,,,,,,,,,,,,,,,,,,,,001,92,2020_Feb_06_1344,spring_faces,3.1.5,59.964885521660776,
condition files/Stage1_1.xlsx,,T1,B1,c,"['c', 'm']","['Clue', 'Monopoly']","[-0.15, 0.5]","[0.15, 0.5]",1,1,,,,,,,,,0,4,4,4,0,4,4,0,,,,,,,,,,,,,,,,,,,,,,,,,,,,,,,,,,,,,,,,,,,,,,,,,,,,,,,1158.531261914999,None,1158.531261914999,None,1158.531261914999,None,c,1,2.4532938359989203,1160.0670580039987,None,1160.0670580039987,None,1160.0670580039987,None,1162.5983590280011,None,1162.5983590280011,None,1162.5983590280011,None,1162.5983590280011,None,,,,,,,,,,,,,,,,,,,,,,,,,,,,,,,,,,,,,,,,,,,,001,92,2020_Feb_06_1344,spring_faces,3.1.5,59.964885521660776,
condition files/Stage1_1.xlsx,,B2,T1,m,"['c', 'm']","['Clue', 'Monopoly']","[-0.15, 0.5]","[0.15, 0.5]",1,1,,,,,,,,,0,4,4,4,0,5,5,2,,,,,,,,,,,,,,,,,,,,,,,,,,,,,,,,,,,,,,,,,,,,,,,,,,,,,,,1164.54797272,None,1164.54797272,None,1164.54797272,None,m,1,1.2217441519969725,1166.082669378,None,1166.082669378,None,1166.082669378,None,1167.3654910900004,None,1167.3654910900004,None,1167.3654910900004,None,1167.3654910900004,None,,,,,,,,,,,,,,,,,,,,,,,,,,,,,,,,,,,,,,,,,,,,001,92,2020_Feb_06_1344,spring_faces,3.1.5,59.964885521660776,
condition files/Stage1_1.xlsx,,T3,B4,c,"['c', 'm']","['Clue', 'Monopoly']","[-0.15, 0.5]","[0.15, 0.5]",1,1,,,,,,,,,0,4,4,4,0,6,6,5,,,,,,,,,,,,,,,,,,,,,,,,,,,,,,,,,,,,,,,,,,,,,,,,,,,,,,,1169.3311895059996,None,1169.3311895059996,None,1169.3311895059996,None,c,1,1.382687833000091,1170.8655893959985,None,1170.8655893959985,None,1170.8655893959985,None,1172.3156252570006,None,1172.3156252570006,None,1172.3156252570006,None,1172.3156252570006,None,,,,,,,,,,,,,,,,,,,,,,,,,,,,,,,,,,,,,,,,,,,,001,92,2020_Feb_06_1344,spring_faces,3.1.5,59.964885521660776,
condition files/Stage1_1.xlsx,,T2,B2,m,"['c', 'm']","['Clue', 'Monopoly']","[-0.15, 0.5]","[0.15, 0.5]",1,1,,,,,,,,,0,4,4,4,0,7,7,3,,,,,,,,,,,,,,,,,,,,,,,,,,,,,,,,,,,,,,,,,,,,,,,,,,,,,,,1174.2810536139987,None,1174.2810536139987,None,1174.2810536139987,None,m,1,1.3762418379992596,1175.8160827850006,None,1175.8160827850006,None,1175.8160827850006,None,1177.264671732999,None,1177.264671732999,None,1177.264671732999,None,1177.264671732999,None,,,,,,,,,,,,,,,,,,,,,,,,,,,,,,,,,,,,,,,,,,,,001,92,2020_Feb_06_1344,spring_faces,3.1.5,59.964885521660776,
condition files/Stage1_2.xlsx,,B2,T2,m,"['c', 'm']","['Clue', 'Monopoly']","[-0.15, 0.5]","[0.15, 0.5]",1,1,,,,,,,,,0,5,5,5,0,0,0,3,,,,,,,,,,,,,,,,,,,,,,,,,,,,,,,,,,,,,,,,,,,,,,,,,,,,,,,1179.2316625849999,None,1179.2316625849999,None,1179.2316625849999,None,m,1,2.1225552239993704,1180.7658649209989,None,1180.7658649209989,None,1180.7658649209989,None,1182.9478760790007,None,1182.9478760790007,None,1182.9478760790007,None,1182.9478760790007,None,,,,,,,,,,,,,,,,,,,,,,,,,,,,,,,,,,,,,,,,,,,,001,92,2020_Feb_06_1344,spring_faces,3.1.5,59.964885521660776,
condition files/Stage1_2.xlsx,,B3,T4,m,"['c', 'm']","['Clue', 'Monopoly']","[-0.15, 0.5]","[0.15, 0.5]",1,1,,,,,,,,,0,5,5,5,0,1,1,6,,,,,,,,,,,,,,,,,,,,,,,,,,,,,,,,,,,,,,,,,,,,,,,,,,,,,,,1184.9147215260018,None,1184.9147215260018,None,1184.9147215260018,None,m,1,3.35042492300272,1186.449921667001,None,1186.449921667001,None,1186.449921667001,None,1189.864375696001,None,1189.864375696001,None,1189.864375696001,None,1189.864375696001,None,,,,,,,,,,,,,,,,,,,,,,,,,,,,,,,,,,,,,,,,,,,,001,92,2020_Feb_06_1344,spring_faces,3.1.5,59.964885521660776,
condition files/Stage1_2.xlsx,,T3,B3,c,"['c', 'm']","['Clue', 'Monopoly']","[-0.15, 0.5]","[0.15, 0.5]",1,1,,,,,,,,,0,5,5,5,0,2,2,4,,,,,,,,,,,,,,,,,,,,,,,,,,,,,,,,,,,,,,,,,,,,,,,,,,,,,,,1191.8307721230012,None,1191.8307721230012,None,1191.8307721230012,None,c,1,1.2989913119999983,1193.381334501999,None,1193.381334501999,None,1193.381334501999,None,1194.733424113001,None,1194.733424113001,None,1194.733424113001,None,1194.733424113001,None,,,,,,,,,,,,,,,,,,,,,,,,,,,,,,,,,,,,,,,,,,,,001,92,2020_Feb_06_1344,spring_faces,3.1.5,59.964885521660776,
condition files/Stage1_2.xlsx,,B1,T1,c,"['c', 'm']","['Clue', 'Monopoly']","[-0.15, 0.5]","[0.15, 0.5]",1,1,,,,,,,,,0,5,5,5,0,3,3,0,,,,,,,,,,,,,,,,,,,,,,,,,,,,,,,,,,,,,,,,,,,,,,,,,,,,,,,1196.6976564139986,None,1196.6976564139986,None,1196.6976564139986,None,c,1,1.1025450810011534,1198.2338009390005,None,1198.2338009390005,None,1198.2338009390005,None,1199.398056211001,None,1199.398056211001,None,1199.398056211001,None,1199.398056211001,None,,,,,,,,,,,,,,,,,,,,,,,,,,,,,,,,,,,,,,,,,,,,001,92,2020_Feb_06_1344,spring_faces,3.1.5,59.964885521660776,
condition files/Stage1_2.xlsx,,B4,T3,c,"['c', 'm']","['Clue', 'Monopoly']","[-0.15, 0.5]","[0.15, 0.5]",1,1,,,,,,,,,0,5,5,5,0,4,4,5,,,,,,,,,,,,,,,,,,,,,,,,,,,,,,,,,,,,,,,,,,,,,,,,,,,,,,,1201.3647049009996,None,1201.3647049009996,None,1201.3647049009996,None,c,1,2.0360438820025593,1202.90032058,None,1202.90032058,None,1202.90032058,None,1204.9977138020004,None,1204.9977138020004,None,1204.9977138020004,None,1204.9977138020004,None,,,,,,,,,,,,,,,,,,,,,,,,,,,,,,,,,,,,,,,,,,,,001,92,2020_Feb_06_1344,spring_faces,3.1.5,59.964885521660776,
condition files/Stage1_2.xlsx,,T4,B4,m,"['c', 'm']","['Clue', 'Monopoly']","[-0.15, 0.5]","[0.15, 0.5]",1,1,,,,,,,,,0,5,5,5,0,5,5,7,,,,,,,,,,,,,,,,,,,,,,,,,,,,,,,,,,,,,,,,,,,,,,,,,,,,,,,1206.9646450010005,None,1206.9646450010005,None,1206.9646450010005,None,m,1,1.7663123679994897,1208.4980199189995,None,1208.4980199189995,None,1208.4980199189995,None,1210.3315612900005,None,1210.3315612900005,None,1210.3315612900005,None,1210.3315612900005,None,,,,,,,,,,,,,,,,,,,,,,,,,,,,,,,,,,,,,,,,,,,,001,92,2020_Feb_06_1344,spring_faces,3.1.5,59.964885521660776,
condition files/Stage1_2.xlsx,,T1,B2,m,"['c', 'm']","['Clue', 'Monopoly']","[-0.15, 0.5]","[0.15, 0.5]",1,1,,,,,,,,,0,5,5,5,0,6,6,2,,,,,,,,,,,,,,,,,,,,,,,,,,,,,,,,,,,,,,,,,,,,,,,,,,,,,,,1212.2809087269998,None,1212.2809087269998,None,1212.2809087269998,None,m,1,3.5202871930014226,1213.8160693729988,None,1213.8160693729988,None,1213.8160693729988,None,1217.3978190000016,None,1217.3978190000016,None,1217.3978190000016,None,1217.3978190000016,None,,,,,,,,,,,,,,,,,,,,,,,,,,,,,,,,,,,,,,,,,,,,001,92,2020_Feb_06_1344,spring_faces,3.1.5,59.964885521660776,
condition files/Stage1_2.xlsx,,T2,B1,c,"['c', 'm']","['Clue', 'Monopoly']","[-0.15, 0.5]","[0.15, 0.5]",1,1,,,,,,,,,0,5,5,5,0,7,7,1,,,,,,,,,,,,,,,,,,,,,,,,,,,,,,,,,,,,,,,,,,,,,,,,,,,,,,,1219.3646311029988,None,1219.3646311029988,None,1219.3646311029988,None,c,1,1.1580680629995186,1220.9143301520016,None,1220.9143301520016,None,1220.9143301520016,None,1222.1337318039987,None,1222.1337318039987,None,1222.1337318039987,None,1222.1337318039987,None,,,,,,,,,,,,,,,,,,,,,,,,,,,,,,,,,,,,,,,,,,,,001,92,2020_Feb_06_1344,spring_faces,3.1.5,59.964885521660776,
condition files/Stage1_1.xlsx,,T1,B1,c,"['c', 'm']","['Clue', 'Monopoly']","[-0.15, 0.5]","[0.15, 0.5]",1,1,,,,,,,,,0,6,6,6,0,0,0,0,,,,,,,,,,,,,,,,,,,,,,,,,,,,,,,,,,,,,,,,,,,,,,,,,,,,,,,1224.114885130999,None,1224.114885130999,None,1224.114885130999,None,c,1,1.0958343900019827,1225.6484996940017,None,1225.6484996940017,None,1225.6484996940017,None,1226.7982931930019,None,1226.7982931930019,None,1226.7982931930019,None,1226.7982931930019,None,,,,,,,,,,,,,,,,,,,,,,,,,,,,,,,,,,,,,,,,,,,,001,92,2020_Feb_06_1344,spring_faces,3.1.5,59.964885521660776,
condition files/Stage1_1.xlsx,,B2,T1,m,"['c', 'm']","['Clue', 'Monopoly']","[-0.15, 0.5]","[0.15, 0.5]",1,1,,,,,,,,,0,6,6,6,0,1,1,2,,,,,,,,,,,,,,,,,,,,,,,,,,,,,,,,,,,,,,,,,,,,,,,,,,,,,,,1228.7638603310006,None,1228.7638603310006,None,1228.7638603310006,None,m,1,4.54246371499903,1230.2979511890007,None,1230.2979511890007,None,1230.2979511890007,None,1234.9000625260014,None,1234.9000625260014,None,1234.9000625260014,None,1234.9000625260014,None,,,,,,,,,,,,,,,,,,,,,,,,,,,,,,,,,,,,,,,,,,,,001,92,2020_Feb_06_1344,spring_faces,3.1.5,59.964885521660776,
condition files/Stage1_1.xlsx,,B4,T4,m,"['c', 'm']","['Clue', 'Monopoly']","[-0.15, 0.5]","[0.15, 0.5]",1,1,,,,,,,,,0,6,6,6,0,2,2,7,,,,,,,,,,,,,,,,,,,,,,,,,,,,,,,,,,,,,,,,,,,,,,,,,,,,,,,1236.8643112399986,None,1236.8643112399986,None,1236.8643112399986,None,m,1,2.3455906870003673,1238.3987633670004,None,1238.3987633670004,None,1238.3987633670004,None,1240.798544125999,None,1240.798544125999,None,1240.798544125999,None,1240.798544125999,None,,,,,,,,,,,,,,,,,,,,,,,,,,,,,,,,,,,,,,,,,,,,001,92,2020_Feb_06_1344,spring_faces,3.1.5,59.964885521660776,
condition files/Stage1_1.xlsx,,T2,B2,m,"['c', 'm']","['Clue', 'Monopoly']","[-0.15, 0.5]","[0.15, 0.5]",1,1,,,,,,,,,0,6,6,6,0,3,3,3,,,,,,,,,,,,,,,,,,,,,,,,,,,,,,,,,,,,,,,,,,,,,,,,,,,,,,,1242.7645442569992,None,1242.7645442569992,None,1242.7645442569992,None,m,1,2.5100833070027875,1244.3142227669996,None,1244.3142227669996,None,1244.3142227669996,None,1246.8810587449989,None,1246.8810587449989,None,1246.8810587449989,None,1246.8810587449989,None,,,,,,,,,,,,,,,,,,,,,,,,,,,,,,,,,,,,,,,,,,,,001,92,2020_Feb_06_1344,spring_faces,3.1.5,59.964885521660776,
condition files/Stage1_1.xlsx,,B3,T3,c,"['c', 'm']","['Clue', 'Monopoly']","[-0.15, 0.5]","[0.15, 0.5]",1,1,,,,,,,,,0,6,6,6,0,4,4,4,,,,,,,,,,,,,,,,,,,,,,,,,,,,,,,,,,,,,,,,,,,,,,,,,,,,,,,1248.8479505680007,None,1248.8479505680007,None,1248.8479505680007,None,m,0,1.2272246020002058,1250.3811764489983,None,1250.3811764489983,None,1250.3811764489983,None,1251.6661351559997,None,1251.6661351559997,None,1251.6661351559997,None,1251.6661351559997,None,,,,,,,,,,,,,,,,,,,,,,,,,,,,,,,,,,,,,,,,,,,,001,92,2020_Feb_06_1344,spring_faces,3.1.5,59.964885521660776,
condition files/Stage1_1.xlsx,,B1,T2,c,"['c', 'm']","['Clue', 'Monopoly']","[-0.15, 0.5]","[0.15, 0.5]",1,1,,,,,,,,,0,6,6,6,0,5,5,1,,,,,,,,,,,,,,,,,,,,,,,,,,,,,,,,,,,,,,,,,,,,,,,,,,,,,,,1253.6310001450001,None,1253.6310001450001,None,1253.6310001450001,None,c,1,1.2276634869995178,1255.164655855002,None,1255.164655855002,None,1255.164655855002,None,1256.4484391160004,None,1256.4484391160004,None,1256.4484391160004,None,1256.4484391160004,None,,,,,,,,,,,,,,,,,,,,,,,,,,,,,,,,,,,,,,,,,,,,001,92,2020_Feb_06_1344,spring_faces,3.1.5,59.964885521660776,
condition files/Stage1_1.xlsx,,T4,B3,m,"['c', 'm']","['Clue', 'Monopoly']","[-0.15, 0.5]","[0.15, 0.5]",1,1,,,,,,,,,0,6,6,6,0,6,6,6,,,,,,,,,,,,,,,,,,,,,,,,,,,,,,,,,,,,,,,,,,,,,,,,,,,,,,,1258.414480800002,None,1258.414480800002,None,1258.414480800002,None,m,1,1.356202779999876,1259.9482095720014,None,1259.9482095720014,None,1259.9482095720014,None,1261.3814991260006,None,1261.3814991260006,None,1261.3814991260006,None,1261.3814991260006,None,,,,,,,,,,,,,,,,,,,,,,,,,,,,,,,,,,,,,,,,,,,,001,92,2020_Feb_06_1344,spring_faces,3.1.5,59.964885521660776,
condition files/Stage1_1.xlsx,,T3,B4,c,"['c', 'm']","['Clue', 'Monopoly']","[-0.15, 0.5]","[0.15, 0.5]",1,1,,,,,,,,,0,6,6,6,0,7,7,5,,,,,,,,,,,,,,,,,,,,,,,,,,,,,,,,,,,,,,,,,,,,,,,,,,,,,,,1263.331304626001,None,1263.331304626001,None,1263.331304626001,None,c,1,1.4634346170023491,1264.8648422590013,None,1264.8648422590013,None,1264.8648422590013,None,1266.3829970600018,None,1266.3829970600018,None,1266.3829970600018,None,1266.3829970600018,None,,,,,,,,,,,,,,,,,,,,,,,,,,,,,,,,,,,,,,,,,,,,001,92,2020_Feb_06_1344,spring_faces,3.1.5,59.964885521660776,
condition files/Stage1_2.xlsx,,T3,B3,c,"['c', 'm']","['Clue', 'Monopoly']","[-0.15, 0.5]","[0.15, 0.5]",1,1,,,,,,,,,0,7,7,7,0,0,0,4,,,,,,,,,,,,,,,,,,,,,,,,,,,,,,,,,,,,,,,,,,,,,,,,,,,,,,,1268.3647787709997,None,1268.3647787709997,None,1268.3647787709997,None,c,1,1.0055110680004873,1269.8988423640003,None,1269.8988423640003,None,1269.8988423640003,None,1270.9644318290011,None,1270.9644318290011,None,1270.9644318290011,None,1270.9644318290011,None,,,,,,,,,,,,,,,,,,,,,,,,,,,,,,,,,,,,,,,,,,,,001,92,2020_Feb_06_1344,spring_faces,3.1.5,59.964885521660776,
condition files/Stage1_2.xlsx,,T2,B1,c,"['c', 'm']","['Clue', 'Monopoly']","[-0.15, 0.5]","[0.15, 0.5]",1,1,,,,,,,,,0,7,7,7,0,1,1,1,,,,,,,,,,,,,,,,,,,,,,,,,,,,,,,,,,,,,,,,,,,,,,,,,,,,,,,1272.9312327270018,None,1272.9312327270018,None,1272.9312327270018,None,c,1,1.1759398209978826,1274.4644736730006,None,1274.4644736730006,None,1274.4644736730006,None,1275.6982600240008,None,1275.6982600240008,None,1275.6982600240008,None,1275.6982600240008,None,,,,,,,,,,,,,,,,,,,,,,,,,,,,,,,,,,,,,,,,,,,,001,92,2020_Feb_06_1344,spring_faces,3.1.5,59.964885521660776,
condition files/Stage1_2.xlsx,,T4,B4,m,"['c', 'm']","['Clue', 'Monopoly']","[-0.15, 0.5]","[0.15, 0.5]",1,1,,,,,,,,,0,7,7,7,0,2,2,7,,,,,,,,,,,,,,,,,,,,,,,,,,,,,,,,,,,,,,,,,,,,,,,,,,,,,,,1277.6643713449994,None,1277.6643713449994,None,1277.6643713449994,None,m,1,1.9624426489972393,1279.1979177220019,None,1279.1979177220019,None,1279.1979177220019,None,1281.2142043169988,None,1281.2142043169988,None,1281.2142043169988,None,1281.2142043169988,None,,,,,,,,,,,,,,,,,,,,,,,,,,,,,,,,,,,,,,,,,,,,001,92,2020_Feb_06_1344,spring_faces,3.1.5,59.964885521660776,
condition files/Stage1_2.xlsx,,B3,T4,m,"['c', 'm']","['Clue', 'Monopoly']","[-0.15, 0.5]","[0.15, 0.5]",1,1,,,,,,,,,0,7,7,7,0,3,3,6,,,,,,,,,,,,,,,,,,,,,,,,,,,,,,,,,,,,,,,,,,,,,,,,,,,,,,,1283.1809878029999,None,1283.1809878029999,None,1283.1809878029999,None,m,1,2.045908762000181,1284.7144162660006,None,1284.7144162660006,None,1284.7144162660006,None,1286.8146204859986,None,1286.8146204859986,None,1286.8146204859986,None,1286.8146204859986,None,,,,,,,,,,,,,,,,,,,,,,,,,,,,,,,,,,,,,,,,,,,,001,92,2020_Feb_06_1344,spring_faces,3.1.5,59.964885521660776,
condition files/Stage1_2.xlsx,,B2,T2,m,"['c', 'm']","['Clue', 'Monopoly']","[-0.15, 0.5]","[0.15, 0.5]",1,1,,,,,,,,,0,7,7,7,0,4,4,3,,,,,,,,,,,,,,,,,,,,,,,,,,,,,,,,,,,,,,,,,,,,,,,,,,,,,,,1288.7807320659995,None,1288.7807320659995,None,1288.7807320659995,None,c,0,3.9156560160008667,1290.3166387279998,None,1290.3166387279998,None,1290.3166387279998,None,1294.29819202,None,1294.29819202,None,1294.29819202,None,1294.29819202,None,,,,,,,,,,,,,,,,,,,,,,,,,,,,,,,,,,,,,,,,,,,,001,92,2020_Feb_06_1344,spring_faces,3.1.5,59.964885521660776,
condition files/Stage1_2.xlsx,,T1,B2,m,"['c', 'm']","['Clue', 'Monopoly']","[-0.15, 0.5]","[0.15, 0.5]",1,1,,,,,,,,,0,7,7,7,0,5,5,2,,,,,,,,,,,,,,,,,,,,,,,,,,,,,,,,,,,,,,,,,,,,,,,,,,,,,,,1296.2642637310018,None,1296.2642637310018,None,1296.2642637310018,None,c,0,1.1364292389989714,1297.7999336549983,None,1297.7999336549983,None,1297.7999336549983,None,1298.998154762001,None,1298.998154762001,None,1298.998154762001,None,1298.998154762001,None,,,,,,,,,,,,,,,,,,,,,,,,,,,,,,,,,,,,,,,,,,,,001,92,2020_Feb_06_1344,spring_faces,3.1.5,59.964885521660776,
condition files/Stage1_2.xlsx,,B1,T1,c,"['c', 'm']","['Clue', 'Monopoly']","[-0.15, 0.5]","[0.15, 0.5]",1,1,,,,,,,,,0,7,7,7,0,6,6,0,,,,,,,,,,,,,,,,,,,,,,,,,,,,,,,,,,,,,,,,,,,,,,,,,,,,,,,1300.964639490001,None,1300.964639490001,None,1300.964639490001,None,c,1,0.9973280609992798,1302.4990232790005,None,1302.4990232790005,None,1302.4990232790005,None,1303.549763455001,None,1303.549763455001,None,1303.549763455001,None,1303.549763455001,None,,,,,,,,,,,,,,,,,,,,,,,,,,,,,,,,,,,,,,,,,,,,001,92,2020_Feb_06_1344,spring_faces,3.1.5,59.964885521660776,
condition files/Stage1_2.xlsx,,B4,T3,c,"['c', 'm']","['Clue', 'Monopoly']","[-0.15, 0.5]","[0.15, 0.5]",1,1,,,,,,,,,0,7,7,7,0,7,7,5,,,,,,,,,,,,,,,,,,,,,,,,,,,,,,,,,,,,,,,,,,,,,,,,,,,,,,,1305.5147126839984,None,1305.5147126839984,None,1305.5147126839984,None,c,1,2.7193581059982534,1307.049005547,None,1307.049005547,None,1307.049005547,None,1309.8314658989984,None,1309.8314658989984,None,1309.8314658989984,None,1309.8314658989984,None,,,,,,,,,,,,,,,,,,,,,,,,,,,,,,,,,,,,,,,,,,,,001,92,2020_Feb_06_1344,spring_faces,3.1.5,59.964885521660776,
condition files/Stage1_1.xlsx,,T1,B1,c,"['c', 'm']","['Clue', 'Monopoly']","[-0.15, 0.5]","[0.15, 0.5]",1,1,,,,,,,,,0,8,8,8,0,0,0,0,,,,,,,,,,,,,,,,,,,,,,,,,,,,,,,,,,,,,,,,,,,,,,,,,,,,,,,1311.8152905569987,None,1311.8152905569987,None,1311.8152905569987,None,c,1,1.0926839479980117,1313.3477426499994,None,1313.3477426499994,None,1313.3477426499994,None,1314.4980635579996,None,1314.4980635579996,None,1314.4980635579996,None,1314.4980635579996,None,,,,,,,,,,,,,,,,,,,,,,,,,,,,,,,,,,,,,,,,,,,,001,92,2020_Feb_06_1344,spring_faces,3.1.5,59.964885521660776,
condition files/Stage1_1.xlsx,,B1,T2,c,"['c', 'm']","['Clue', 'Monopoly']","[-0.15, 0.5]","[0.15, 0.5]",1,1,,,,,,,,,0,8,8,8,0,1,1,1,,,,,,,,,,,,,,,,,,,,,,,,,,,,,,,,,,,,,,,,,,,,,,,,,,,,,,,1316.4640233200007,None,1316.4640233200007,None,1316.4640233200007,None,c,1,0.7465146169997752,1317.9978304260003,None,1317.9978304260003,None,1317.9978304260003,None,1318.7982636179986,None,1318.7982636179986,None,1318.7982636179986,None,1318.7982636179986,None,,,,,,,,,,,,,,,,,,,,,,,,,,,,,,,,,,,,,,,,,,,,001,92,2020_Feb_06_1344,spring_faces,3.1.5,59.964885521660776,
condition files/Stage1_1.xlsx,,B2,T1,m,"['c', 'm']","['Clue', 'Monopoly']","[-0.15, 0.5]","[0.15, 0.5]",1,1,,,,,,,,,0,8,8,8,0,2,2,2,,,,,,,,,,,,,,,,,,,,,,,,,,,,,,,,,,,,,,,,,,,,,,,,,,,,,,,1320.7643474530014,None,1320.7643474530014,None,1320.7643474530014,None,m,1,0.7507273939991137,1322.2975679740011,None,1322.2975679740011,None,1322.2975679740011,None,1323.1149546330016,None,1323.1149546330016,None,1323.1149546330016,None,1323.1149546330016,None,,,,,,,,,,,,,,,,,,,,,,,,,,,,,,,,,,,,,,,,,,,,001,92,2020_Feb_06_1344,spring_faces,3.1.5,59.964885521660776,
condition files/Stage1_1.xlsx,,T2,B2,m,"['c', 'm']","['Clue', 'Monopoly']","[-0.15, 0.5]","[0.15, 0.5]",1,1,,,,,,,,,0,8,8,8,0,3,3,3,,,,,,,,,,,,,,,,,,,,,,,,,,,,,,,,,,,,,,,,,,,,,,,,,,,,,,,1325.0812371950014,None,1325.0812371950014,None,1325.0812371950014,None,m,1,2.0491462179998052,1326.6311872719998,None,1326.6311872719998,None,1326.6311872719998,None,1328.7311463059996,None,1328.7311463059996,None,1328.7311463059996,None,1328.7311463059996,None,,,,,,,,,,,,,,,,,,,,,,,,,,,,,,,,,,,,,,,,,,,,001,92,2020_Feb_06_1344,spring_faces,3.1.5,59.964885521660776,
condition files/Stage1_1.xlsx,,B3,T3,c,"['c', 'm']","['Clue', 'Monopoly']","[-0.15, 0.5]","[0.15, 0.5]",1,1,,,,,,,,,0,8,8,8,0,4,4,4,,,,,,,,,,,,,,,,,,,,,,,,,,,,,,,,,,,,,,,,,,,,,,,,,,,,,,,1330.6981517450004,None,1330.6981517450004,None,1330.6981517450004,None,c,1,2.9602400430012494,1332.2481582309993,None,1332.2481582309993,None,1332.2481582309993,None,1335.2654172959992,None,1335.2654172959992,None,1335.2654172959992,None,1335.2654172959992,None,,,,,,,,,,,,,,,,,,,,,,,,,,,,,,,,,,,,,,,,,,,,001,92,2020_Feb_06_1344,spring_faces,3.1.5,59.964885521660776,
condition files/Stage1_1.xlsx,,T4,B3,m,"['c', 'm']","['Clue', 'Monopoly']","[-0.15, 0.5]","[0.15, 0.5]",1,1,,,,,,,,,0,8,8,8,0,5,5,6,,,,,,,,,,,,,,,,,,,,,,,,,,,,,,,,,,,,,,,,,,,,,,,,,,,,,,,1337.2313164359985,None,1337.2313164359985,None,1337.2313164359985,None,m,1,3.851468531000137,1338.764854093999,None,1338.764854093999,None,1338.764854093999,None,1342.698490589999,None,1342.698490589999,None,1342.698490589999,None,1342.698490589999,None,,,,,,,,,,,,,,,,,,,,,,,,,,,,,,,,,,,,,,,,,,,,001,92,2020_Feb_06_1344,spring_faces,3.1.5,59.964885521660776,
condition files/Stage1_1.xlsx,,T3,B4,c,"['c', 'm']","['Clue', 'Monopoly']","[-0.15, 0.5]","[0.15, 0.5]",1,1,,,,,,,,,0,8,8,8,0,6,6,5,,,,,,,,,,,,,,,,,,,,,,,,,,,,,,,,,,,,,,,,,,,,,,,,,,,,,,,1344.647713792001,None,1344.647713792001,None,1344.647713792001,None,c,1,2.769000247000804,1346.183351429001,None,1346.183351429001,None,1346.183351429001,None,1349.0172523149995,None,1349.0172523149995,None,1349.0172523149995,None,1349.0172523149995,None,,,,,,,,,,,,,,,,,,,,,,,,,,,,,,,,,,,,,,,,,,,,001,92,2020_Feb_06_1344,spring_faces,3.1.5,59.964885521660776,
condition files/Stage1_1.xlsx,,B4,T4,m,"['c', 'm']","['Clue', 'Monopoly']","[-0.15, 0.5]","[0.15, 0.5]",1,1,,,,,,,,,0,8,8,8,0,7,7,7,,,,,,,,,,,,,,,,,,,,,,,,,,,,,,,,,,,,,,,,,,,,,,,,,,,,,,,1350.9811788309999,None,1350.9811788309999,None,1350.9811788309999,None,m,1,2.8703471049993823,1352.5139998150007,None,1352.5139998150007,None,1352.5139998150007,None,1355.4476287819998,None,1355.4476287819998,None,1355.4476287819998,None,1355.4476287819998,None,,,,,,,,,,,,,,,,,,,,,,,,,,,,,,,,,,,,,,,,,,,,001,92,2020_Feb_06_1344,spring_faces,3.1.5,59.964885521660776,
condition files/Stage1_2.xlsx,,T4,B4,m,"['c', 'm']","['Clue', 'Monopoly']","[-0.15, 0.5]","[0.15, 0.5]",1,1,,,,,,,,,0,9,9,9,0,0,0,7,,,,,,,,,,,,,,,,,,,,,,,,,,,,,,,,,,,,,,,,,,,,,,,,,,,,,,,1357.4318002219989,None,1357.4318002219989,None,1357.4318002219989,None,m,1,5.586912401999143,1358.981433164001,None,1358.981433164001,None,1358.981433164001,None,1364.6315596370005,None,1364.6315596370005,None,1364.6315596370005,None,1364.6315596370005,None,,,,,,,,,,,,,,,,,,,,,,,,,,,,,,,,,,,,,,,,,,,,001,92,2020_Feb_06_1344,spring_faces,3.1.5,59.964885521660776,
condition files/Stage1_2.xlsx,,T3,B3,c,"['c', 'm']","['Clue', 'Monopoly']","[-0.15, 0.5]","[0.15, 0.5]",1,1,,,,,,,,,0,9,9,9,0,1,1,4,,,,,,,,,,,,,,,,,,,,,,,,,,,,,,,,,,,,,,,,,,,,,,,,,,,,,,,1366.5977377419986,None,1366.5977377419986,None,1366.5977377419986,None,m,0,1.0931995419996383,1368.131125240001,None,1368.131125240001,None,1368.131125240001,None,1369.2815867540012,None,1369.2815867540012,None,1369.2815867540012,None,1369.2815867540012,None,,,,,,,,,,,,,,,,,,,,,,,,,,,,,,,,,,,,,,,,,,,,001,92,2020_Feb_06_1344,spring_faces,3.1.5,59.964885521660776,
condition files/Stage1_2.xlsx,,T1,B2,m,"['c', 'm']","['Clue', 'Monopoly']","[-0.15, 0.5]","[0.15, 0.5]",1,1,,,,,,,,,0,9,9,9,0,2,2,2,,,,,,,,,,,,,,,,,,,,,,,,,,,,,,,,,,,,,,,,,,,,,,,,,,,,,,,1371.2476806839986,None,1371.2476806839986,None,1371.2476806839986,None,c,0,1.963468334000936,1372.7808745490001,None,1372.7808745490001,None,1372.7808745490001,None,1374.799622679002,None,1374.799622679002,None,1374.799622679002,None,1374.799622679002,None,,,,,,,,,,,,,,,,,,,,,,,,,,,,,,,,,,,,,,,,,,,,001,92,2020_Feb_06_1344,spring_faces,3.1.5,59.964885521660776,
condition files/Stage1_2.xlsx,,T2,B1,c,"['c', 'm']","['Clue', 'Monopoly']","[-0.15, 0.5]","[0.15, 0.5]",1,1,,,,,,,,,0,9,9,9,0,3,3,1,,,,,,,,,,,,,,,,,,,,,,,,,,,,,,,,,,,,,,,,,,,,,,,,,,,,,,,1376.7641336000015,None,1376.7641336000015,None,1376.7641336000015,None,c,1,0.9577460260006774,1378.3146549209996,None,1378.3146549209996,None,1378.3146549209996,None,1379.333442649,None,1379.333442649,None,1379.333442649,None,1379.333442649,None,,,,,,,,,,,,,,,,,,,,,,,,,,,,,,,,,,,,,,,,,,,,001,92,2020_Feb_06_1344,spring_faces,3.1.5,59.964885521660776,
condition files/Stage1_2.xlsx,,B3,T4,m,"['c', 'm']","['Clue', 'Monopoly']","[-0.15, 0.5]","[0.15, 0.5]",1,1,,,,,,,,,0,9,9,9,0,4,4,6,,,,,,,,,,,,,,,,,,,,,,,,,,,,,,,,,,,,,,,,,,,,,,,,,,,,,,,1381.2981122829988,None,1381.2981122829988,None,1381.2981122829988,None,m,1,0.8238612419991114,1382.832567886002,None,1382.832567886002,None,1382.832567886002,None,1383.7139100979985,None,1383.7139100979985,None,1383.7139100979985,None,1383.7139100979985,None,,,,,,,,,,,,,,,,,,,,,,,,,,,,,,,,,,,,,,,,,,,,001,92,2020_Feb_06_1344,spring_faces,3.1.5,59.964885521660776,
condition files/Stage1_2.xlsx,,B2,T2,m,"['c', 'm']","['Clue', 'Monopoly']","[-0.15, 0.5]","[0.15, 0.5]",1,1,,,,,,,,,0,9,9,9,0,5,5,3,,,,,,,,,,,,,,,,,,,,,,,,,,,,,,,,,,,,,,,,,,,,,,,,,,,,,,,1385.6809361859996,None,1385.6809361859996,None,1385.6809361859996,None,m,1,2.649053660003119,1387.2312851140014,None,1387.2312851140014,None,1387.2312851140014,None,1389.9316443589996,None,1389.9316443589996,None,1389.9316443589996,None,1389.9316443589996,None,,,,,,,,,,,,,,,,,,,,,,,,,,,,,,,,,,,,,,,,,,,,001,92,2020_Feb_06_1344,spring_faces,3.1.5,59.964885521660776,
condition files/Stage1_2.xlsx,,B1,T1,c,"['c', 'm']","['Clue', 'Monopoly']","[-0.15, 0.5]","[0.15, 0.5]",1,1,,,,,,,,,0,9,9,9,0,6,6,0,,,,,,,,,,,,,,,,,,,,,,,,,,,,,,,,,,,,,,,,,,,,,,,,,,,,,,,1391.8981095189993,None,1391.8981095189993,None,1391.8981095189993,None,c,1,0.6891990369986161,1393.4311974379998,None,1393.4311974379998,None,1393.4311974379998,None,1394.1983345920016,None,1394.1983345920016,None,1394.1983345920016,None,1394.1983345920016,None,,,,,,,,,,,,,,,,,,,,,,,,,,,,,,,,,,,,,,,,,,,,001,92,2020_Feb_06_1344,spring_faces,3.1.5,59.964885521660776,
condition files/Stage1_2.xlsx,,B4,T3,c,"['c', 'm']","['Clue', 'Monopoly']","[-0.15, 0.5]","[0.15, 0.5]",1,1,,,,,,,,,0,9,9,9,0,7,7,5,,,,,,,,,,,,,,,,,,,,,,,,,,,,,,,,,,,,,,,,,,,,,,,,,,,,,,,1396.1479607,None,1396.1479607,None,1396.1479607,None,c,1,1.2074734679990797,1397.6809541889997,None,1397.6809541889997,None,1397.6809541889997,None,1398.9482636229986,None,1398.9482636229986,None,1398.9482636229986,None,1398.9482636229986,None,,,,,,,,,,,,,,,,,,,,,,,,,,,,,,,,,,,,,,,,,,,,001,92,2020_Feb_06_1344,spring_faces,3.1.5,59.964885521660776,
condition files/Stage1_1.xlsx,,T2,B2,m,"['c', 'm']","['Clue', 'Monopoly']","[-0.15, 0.5]","[0.15, 0.5]",1,1,,,,,,,,,0,10,10,10,0,0,0,3,,,,,,,,,,,,,,,,,,,,,,,,,,,,,,,,,,,,,,,,,,,,,,,,,,,,,,,1400.9317707160008,None,1400.9317707160008,None,1400.9317707160008,None,m,1,2.053400894998049,1402.4669554809989,None,1402.4669554809989,None,1402.4669554809989,None,1404.5814942760007,None,1404.5814942760007,None,1404.5814942760007,None,1404.5814942760007,None,,,,,,,,,,,,,,,,,,,,,,,,,,,,,,,,,,,,,,,,,,,,001,92,2020_Feb_06_1344,spring_faces,3.1.5,59.964885521660776,
condition files/Stage1_1.xlsx,,B3,T3,c,"['c', 'm']","['Clue', 'Monopoly']","[-0.15, 0.5]","[0.15, 0.5]",1,1,,,,,,,,,0,10,10,10,0,1,1,4,,,,,,,,,,,,,,,,,,,,,,,,,,,,,,,,,,,,,,,,,,,,,,,,,,,,,,,1406.5478821340002,None,1406.5478821340002,None,1406.5478821340002,None,c,1,1.7977967250008078,1408.0825570800007,None,1408.0825570800007,None,1408.0825570800007,None,1409.9322311840006,None,1409.9322311840006,None,1409.9322311840006,None,1409.9322311840006,None,,,,,,,,,,,,,,,,,,,,,,,,,,,,,,,,,,,,,,,,,,,,001,92,2020_Feb_06_1344,spring_faces,3.1.5,59.964885521660776,
condition files/Stage1_1.xlsx,,B1,T2,c,"['c', 'm']","['Clue', 'Monopoly']","[-0.15, 0.5]","[0.15, 0.5]",1,1,,,,,,,,,0,10,10,10,0,2,2,1,,,,,,,,,,,,,,,,,,,,,,,,,,,,,,,,,,,,,,,,,,,,,,,,,,,,,,,1411.8974623370013,None,1411.8974623370013,None,1411.8974623370013,None,c,1,1.2166489659975923,1413.4316738499983,None,1413.4316738499983,None,1413.4316738499983,None,1414.7149009800014,None,1414.7149009800014,None,1414.7149009800014,None,1414.7149009800014,None,,,,,,,,,,,,,,,,,,,,,,,,,,,,,,,,,,,,,,,,,,,,001,92,2020_Feb_06_1344,spring_faces,3.1.5,59.964885521660776,
condition files/Stage1_1.xlsx,,T3,B4,c,"['c', 'm']","['Clue', 'Monopoly']","[-0.15, 0.5]","[0.15, 0.5]",1,1,,,,,,,,,0,10,10,10,0,3,3,5,,,,,,,,,,,,,,,,,,,,,,,,,,,,,,,,,,,,,,,,,,,,,,,,,,,,,,,1416.681017158,None,1416.681017158,None,1416.681017158,None,c,1,1.8885065709982882,1418.215915244,None,1418.215915244,None,1418.215915244,None,1420.1649406530014,None,1420.1649406530014,None,1420.1649406530014,None,1420.1649406530014,None,,,,,,,,,,,,,,,,,,,,,,,,,,,,,,,,,,,,,,,,,,,,001,92,2020_Feb_06_1344,spring_faces,3.1.5,59.964885521660776,
condition files/Stage1_1.xlsx,,B4,T4,m,"['c', 'm']","['Clue', 'Monopoly']","[-0.15, 0.5]","[0.15, 0.5]",1,1,,,,,,,,,0,10,10,10,0,4,4,7,,,,,,,,,,,,,,,,,,,,,,,,,,,,,,,,,,,,,,,,,,,,,,,,,,,,,,,1422.131462843001,None,1422.131462843001,None,1422.131462843001,None,m,1,0.983134890000656,1423.681199822,None,1423.681199822,None,1423.681199822,None,1424.7173392650002,None,1424.7173392650002,None,1424.7173392650002,None,1424.7173392650002,None,,,,,,,,,,,,,,,,,,,,,,,,,,,,,,,,,,,,,,,,,,,,001,92,2020_Feb_06_1344,spring_faces,3.1.5,59.964885521660776,
condition files/Stage1_1.xlsx,,B2,T1,m,"['c', 'm']","['Clue', 'Monopoly']","[-0.15, 0.5]","[0.15, 0.5]",1,1,,,,,,,,,0,10,10,10,0,5,5,2,,,,,,,,,,,,,,,,,,,,,,,,,,,,,,,,,,,,,,,,,,,,,,,,,,,,,,,1426.6810713529994,None,1426.6810713529994,None,1426.6810713529994,None,m,1,2.018178815000283,1428.2140946219988,None,1428.2140946219988,None,1428.2140946219988,None,1430.2982133199985,None,1430.2982133199985,None,1430.2982133199985,None,1430.2982133199985,None,,,,,,,,,,,,,,,,,,,,,,,,,,,,,,,,,,,,,,,,,,,,001,92,2020_Feb_06_1344,spring_faces,3.1.5,59.964885521660776,
condition files/Stage1_1.xlsx,,T4,B3,m,"['c', 'm']","['Clue', 'Monopoly']","[-0.15, 0.5]","[0.15, 0.5]",1,1,,,,,,,,,0,10,10,10,0,6,6,6,,,,,,,,,,,,,,,,,,,,,,,,,,,,,,,,,,,,,,,,,,,,,,,,,,,,,,,1432.2646544659983,None,1432.2646544659983,None,1432.2646544659983,None,m,1,1.4252680869976757,1433.815152856001,None,1433.815152856001,None,1433.815152856001,None,1435.2985352200012,None,1435.2985352200012,None,1435.2985352200012,None,1435.2985352200012,None,,,,,,,,,,,,,,,,,,,,,,,,,,,,,,,,,,,,,,,,,,,,001,92,2020_Feb_06_1344,spring_faces,3.1.5,59.964885521660776,
condition files/Stage1_1.xlsx,,T1,B1,c,"['c', 'm']","['Clue', 'Monopoly']","[-0.15, 0.5]","[0.15, 0.5]",1,1,,,,,,,,,0,10,10,10,0,7,7,0,,,,,,,,,,,,,,,,,,,,,,,,,,,,,,,,,,,,,,,,,,,,,,,,,,,,,,,1437.264601019,None,1437.264601019,None,1437.264601019,None,c,1,0.8735000800006674,1438.8148995939991,None,1438.8148995939991,None,1438.8148995939991,None,1439.7495441440005,None,1439.7495441440005,None,1439.7495441440005,None,1439.7495441440005,None,,,,,,,,,,,,,,,,,,,,,,,,,,,,,,,,,,,,,,,,,,,,001,92,2020_Feb_06_1344,spring_faces,3.1.5,59.964885521660776,
condition files/Stage1_2.xlsx,,B4,T3,c,"['c', 'm']","['Clue', 'Monopoly']","[-0.15, 0.5]","[0.15, 0.5]",1,1,,,,,,,,,0,11,11,11,0,0,0,5,,,,,,,,,,,,,,,,,,,,,,,,,,,,,,,,,,,,,,,,,,,,,,,,,,,,,,,1441.7309789909996,None,1441.7309789909996,None,1441.7309789909996,None,c,1,0.9508038189997023,1443.2815021159986,None,1443.2815021159986,None,1443.2815021159986,None,1444.2982363240008,None,1444.2982363240008,None,1444.2982363240008,None,1444.2982363240008,None,,,,,,,,,,,,,,,,,,,,,,,,,,,,,,,,,,,,,,,,,,,,001,92,2020_Feb_06_1344,spring_faces,3.1.5,59.964885521660776,
condition files/Stage1_2.xlsx,,B1,T1,c,"['c', 'm']","['Clue', 'Monopoly']","[-0.15, 0.5]","[0.15, 0.5]",1,1,,,,,,,,,0,11,11,11,0,1,1,0,,,,,,,,,,,,,,,,,,,,,,,,,,,,,,,,,,,,,,,,,,,,,,,,,,,,,,,1446.2638909720008,None,1446.2638909720008,None,1446.2638909720008,None,c,1,1.473947988000873,1447.7984692589998,None,1447.7984692589998,None,1447.7984692589998,None,1449.330877452001,None,1449.330877452001,None,1449.330877452001,None,1449.330877452001,None,,,,,,,,,,,,,,,,,,,,,,,,,,,,,,,,,,,,,,,,,,,,001,92,2020_Feb_06_1344,spring_faces,3.1.5,59.964885521660776,
condition files/Stage1_2.xlsx,,T3,B3,c,"['c', 'm']","['Clue', 'Monopoly']","[-0.15, 0.5]","[0.15, 0.5]",1,1,,,,,,,,,0,11,11,11,0,2,2,4,,,,,,,,,,,,,,,,,,,,,,,,,,,,,,,,,,,,,,,,,,,,,,,,,,,,,,,1451.2979527399984,None,1451.2979527399984,None,1451.2979527399984,None,c,1,1.0172588259993063,1452.8310499639992,None,1452.8310499639992,None,1452.8310499639992,None,1453.9148418240002,None,1453.9148418240002,None,1453.9148418240002,None,1453.9148418240002,None,,,,,,,,,,,,,,,,,,,,,,,,,,,,,,,,,,,,,,,,,,,,001,92,2020_Feb_06_1344,spring_faces,3.1.5,59.964885521660776,
condition files/Stage1_2.xlsx,,T4,B4,m,"['c', 'm']","['Clue', 'Monopoly']","[-0.15, 0.5]","[0.15, 0.5]",1,1,,,,,,,,,0,11,11,11,0,3,3,7,,,,,,,,,,,,,,,,,,,,,,,,,,,,,,,,,,,,,,,,,,,,,,,,,,,,,,,1455.8810519899998,None,1455.8810519899998,None,1455.8810519899998,None,m,1,4.353710794002836,1457.414633381999,None,1457.414633381999,None,1457.414633381999,None,1461.8339980050005,None,1461.8339980050005,None,1461.8339980050005,None,1461.8339980050005,None,,,,,,,,,,,,,,,,,,,,,,,,,,,,,,,,,,,,,,,,,,,,001,92,2020_Feb_06_1344,spring_faces,3.1.5,59.964885521660776,
condition files/Stage1_2.xlsx,,T2,B1,c,"['c', 'm']","['Clue', 'Monopoly']","[-0.15, 0.5]","[0.15, 0.5]",1,1,,,,,,,,,0,11,11,11,0,4,4,1,,,,,,,,,,,,,,,,,,,,,,,,,,,,,,,,,,,,,,,,,,,,,,,,,,,,,,,1463.7980645339994,None,1463.7980645339994,None,1463.7980645339994,None,c,1,0.9170835469994927,1465.3312111529995,None,1465.3312111529995,None,1465.3312111529995,None,1466.3001831069996,None,1466.3001831069996,None,1466.3001831069996,None,1466.3001831069996,None,,,,,,,,,,,,,,,,,,,,,,,,,,,,,,,,,,,,,,,,,,,,001,92,2020_Feb_06_1344,spring_faces,3.1.5,59.964885521660776,
condition files/Stage1_2.xlsx,,T1,B2,m,"['c', 'm']","['Clue', 'Monopoly']","[-0.15, 0.5]","[0.15, 0.5]",1,1,,,,,,,,,0,11,11,11,0,5,5,2,,,,,,,,,,,,,,,,,,,,,,,,,,,,,,,,,,,,,,,,,,,,,,,,,,,,,,,1468.2646705219995,None,1468.2646705219995,None,1468.2646705219995,None,c,0,1.4586571779982478,1469.7977609459995,None,1469.7977609459995,None,1469.7977609459995,None,1471.3146721839985,None,1471.3146721839985,None,1471.3146721839985,None,1471.3146721839985,None,,,,,,,,,,,,,,,,,,,,,,,,,,,,,,,,,,,,,,,,,,,,001,92,2020_Feb_06_1344,spring_faces,3.1.5,59.964885521660776,
condition files/Stage1_2.xlsx,,B2,T2,m,"['c', 'm']","['Clue', 'Monopoly']","[-0.15, 0.5]","[0.15, 0.5]",1,1,,,,,,,,,0,11,11,11,0,6,6,3,,,,,,,,,,,,,,,,,,,,,,,,,,,,,,,,,,,,,,,,,,,,,,,,,,,,,,,1473.2807831749997,None,1473.2807831749997,None,1473.2807831749997,None,m,1,1.336136758000066,1474.8162191500014,None,1474.8162191500014,None,1474.8162191500014,None,1476.214264926999,None,1476.214264926999,None,1476.214264926999,None,1476.214264926999,None,,,,,,,,,,,,,,,,,,,,,,,,,,,,,,,,,,,,,,,,,,,,001,92,2020_Feb_06_1344,spring_faces,3.1.5,59.964885521660776,
condition files/Stage1_2.xlsx,,B3,T4,m,"['c', 'm']","['Clue', 'Monopoly']","[-0.15, 0.5]","[0.15, 0.5]",1,1,,,,,,,,,0,11,11,11,0,7,7,6,,,,,,,,,,,,,,,,,,,,,,,,,,,,,,,,,,,,,,,,,,,,,,,,,,,,,,,1478.1814189200013,None,1478.1814189200013,None,1478.1814189200013,None,m,1,3.4441245130001334,1479.7162130489996,None,1479.7162130489996,None,1479.7162130489996,None,1483.214902738,None,1483.214902738,None,1483.214902738,None,1483.214902738,None,,,,,,,,,,,,,,,,,,,,,,,,,,,,,,,,,,,,,,,,,,,,001,92,2020_Feb_06_1344,spring_faces,3.1.5,59.964885521660776,
,,,,,,,,,,,,,,,,,,,,,,,,,,,,,,,,,,,,,,,,,,,,,,,,,,,,,,,,,,,,,,,,,,,,,,,,,,,,,,,,,,,,,,,,,,,,,,,,,,,,,,,,,,,,,,,,1485.1982162140011,None,space,5.682334271001309,1490.1980230500012,None,,,,,,,,,,,,,,,,,,,,,,,,,,,,,,001,92,2020_Feb_06_1344,spring_faces,3.1.5,59.964885521660776,
condition files/Stage2_1.xlsx,,B6,T6,r,"['s', 'r']","['Stratego', 'Risk']","[-0.15, 0.5]","[0.15, 0.5]",1,1,,,,,,,,,,,,,,,,,0,0,0,0,0,0,0,1,,,,,,,,,,,,,,,,,,,,,,,,,,,,,,,,,,,,,,,,,,,,,,,1495.931377211,None,1495.931377211,None,1495.931377211,None,s,0,0.9902290109966998,1497.450196968999,None,1497.450196968999,None,1497.450196968999,None,1498.5000547480013,None,1498.5000547480013,None,1498.5000547480013,None,1498.5000547480013,None,,,,,,,,,,,,,,,1490.1980230500012,None,,,,,,,,,,,,,,,,,,,,,,,,,,,,001,92,2020_Feb_06_1344,spring_faces,3.1.5,59.964885521660776,
condition files/Stage2_1.xlsx,,B4,T4,r,"['s', 'r']","['Stratego', 'Risk']","[-0.15, 0.5]","[0.15, 0.5]",1,1,,,,,,,,,,,,,,,,,0,0,0,0,0,1,1,5,,,,,,,,,,,,,,,,,,,,,,,,,,,,,,,,,,,,,,,,,,,,,,,1500.4647285550018,None,1500.4647285550018,None,1500.4647285550018,None,s,0,1.162023605000286,1501.9983098519988,None,1501.9983098519988,None,1501.9983098519988,None,1503.2146260689988,None,1503.2146260689988,None,1503.2146260689988,None,1503.2146260689988,None,,,,,,,,,,,,,,,,,,,,,,,,,,,,,,,,,,,,,,,,,,,,001,92,2020_Feb_06_1344,spring_faces,3.1.5,59.964885521660776,
condition files/Stage2_1.xlsx,,T1,B1,s,"['s', 'r']","['Stratego', 'Risk']","[-0.15, 0.5]","[0.15, 0.5]",1,1,,,,,,,,,,,,,,,,,0,0,0,0,0,2,2,2,,,,,,,,,,,,,,,,,,,,,,,,,,,,,,,,,,,,,,,,,,,,,,,1505.181283640999,None,1505.181283640999,None,1505.181283640999,None,s,1,0.9728983210006845,1506.731504749001,None,1506.731504749001,None,1506.731504749001,None,1507.781151788,None,1507.781151788,None,1507.781151788,None,1507.781151788,None,,,,,,,,,,,,,,,,,,,,,,,,,,,,,,,,,,,,,,,,,,,,001,92,2020_Feb_06_1344,spring_faces,3.1.5,59.964885521660776,
condition files/Stage2_1.xlsx,,T5,B5,s,"['s', 'r']","['Stratego', 'Risk']","[-0.15, 0.5]","[0.15, 0.5]",1,1,,,,,,,,,,,,,,,,,0,0,0,0,0,3,3,0,,,,,,,,,,,,,,,,,,,,,,,,,,,,,,,,,,,,,,,,,,,,,,,1509.7314457659995,None,1509.7314457659995,None,1509.7314457659995,None,s,1,1.4609985099996265,1511.2673459889993,None,1511.2673459889993,None,1511.2673459889993,None,1512.7811642820016,None,1512.7811642820016,None,1512.7811642820016,None,1512.7811642820016,None,,,,,,,,,,,,,,,,,,,,,,,,,,,,,,,,,,,,,,,,,,,,001,92,2020_Feb_06_1344,spring_faces,3.1.5,59.964885521660776,
condition files/Stage2_1.xlsx,,T3,B3,s,"['s', 'r']","['Stratego', 'Risk']","[-0.15, 0.5]","[0.15, 0.5]",1,1,,,,,,,,,,,,,,,,,0,0,0,0,0,4,4,4,,,,,,,,,,,,,,,,,,,,,,,,,,,,,,,,,,,,,,,,,,,,,,,1514.7479068829998,None,1514.7479068829998,None,1514.7479068829998,None,s,1,1.4381300480017671,1516.2982154349993,None,1516.2982154349993,None,1516.2982154349993,None,1517.7982348840014,None,1517.7982348840014,None,1517.7982348840014,None,1517.7982348840014,None,,,,,,,,,,,,,,,,,,,,,,,,,,,,,,,,,,,,,,,,,,,,001,92,2020_Feb_06_1344,spring_faces,3.1.5,59.964885521660776,
condition files/Stage2_1.xlsx,,B2,T2,r,"['s', 'r']","['Stratego', 'Risk']","[-0.15, 0.5]","[0.15, 0.5]",1,1,,,,,,,,,,,,,,,,,0,0,0,0,0,5,5,3,,,,,,,,,,,,,,,,,,,,,,,,,,,,,,,,,,,,,,,,,,,,,,,1519.7644724070014,None,1519.7644724070014,None,1519.7644724070014,None,r,1,2.2138763279981504,1521.2984765910005,None,1521.2984765910005,None,1521.2984765910005,None,1523.5812595790012,None,1523.5812595790012,None,1523.5812595790012,None,1523.5812595790012,None,,,,,,,,,,,,,,,,,,,,,,,,,,,,,,,,,,,,,,,,,,,,001,92,2020_Feb_06_1344,spring_faces,3.1.5,59.964885521660776,
condition files/Stage2_2.xlsx,,T2,B2,r,"['s', 'r']","['Stratego', 'Risk']","[-0.15, 0.5]","[0.15, 0.5]",1,1,,,,,,,,,,,,,,,,,0,1,1,1,0,0,0,3,,,,,,,,,,,,,,,,,,,,,,,,,,,,,,,,,,,,,,,,,,,,,,,1525.5482528280008,None,1525.5482528280008,None,1525.5482528280008,None,r,1,1.245889153000462,1527.0984559110002,None,1527.0984559110002,None,1527.0984559110002,None,1528.3982475230005,None,1528.3982475230005,None,1528.3982475230005,None,1528.3982475230005,None,,,,,,,,,,,,,,,,,,,,,,,,,,,,,,,,,,,,,,,,,,,,001,92,2020_Feb_06_1344,spring_faces,3.1.5,59.964885521660776,
condition files/Stage2_2.xlsx,,B1,T1,s,"['s', 'r']","['Stratego', 'Risk']","[-0.15, 0.5]","[0.15, 0.5]",1,1,,,,,,,,,,,,,,,,,0,1,1,1,0,1,1,2,,,,,,,,,,,,,,,,,,,,,,,,,,,,,,,,,,,,,,,,,,,,,,,1530.3646651880008,None,1530.3646651880008,None,1530.3646651880008,None,s,1,1.2942965540023579,1531.914101014001,None,1531.914101014001,None,1531.914101014001,None,1533.2662959580011,None,1533.2662959580011,None,1533.2662959580011,None,1533.2662959580011,None,,,,,,,,,,,,,,,,,,,,,,,,,,,,,,,,,,,,,,,,,,,,001,92,2020_Feb_06_1344,spring_faces,3.1.5,59.964885521660776,
condition files/Stage2_2.xlsx,,B5,T5,s,"['s', 'r']","['Stratego', 'Risk']","[-0.15, 0.5]","[0.15, 0.5]",1,1,,,,,,,,,,,,,,,,,0,1,1,1,0,2,2,0,,,,,,,,,,,,,,,,,,,,,,,,,,,,,,,,,,,,,,,,,,,,,,,1535.231279603002,None,1535.231279603002,None,1535.231279603002,None,s,1,1.866786056998535,1536.765524606999,None,1536.765524606999,None,1536.765524606999,None,1538.6981794659987,None,1538.6981794659987,None,1538.6981794659987,None,1538.6981794659987,None,,,,,,,,,,,,,,,,,,,,,,,,,,,,,,,,,,,,,,,,,,,,001,92,2020_Feb_06_1344,spring_faces,3.1.5,59.964885521660776,
condition files/Stage2_2.xlsx,,T6,B6,r,"['s', 'r']","['Stratego', 'Risk']","[-0.15, 0.5]","[0.15, 0.5]",1,1,,,,,,,,,,,,,,,,,0,1,1,1,0,3,3,1,,,,,,,,,,,,,,,,,,,,,,,,,,,,,,,,,,,,,,,,,,,,,,,1540.6644388280001,None,1540.6644388280001,None,1540.6644388280001,None,r,1,0.7226104809997196,1542.1977941119985,None,1542.1977941119985,None,1542.1977941119985,None,1542.998149182,None,1542.998149182,None,1542.998149182,None,1542.998149182,None,,,,,,,,,,,,,,,,,,,,,,,,,,,,,,,,,,,,,,,,,,,,001,92,2020_Feb_06_1344,spring_faces,3.1.5,59.964885521660776,
condition files/Stage2_2.xlsx,,T4,B4,r,"['s', 'r']","['Stratego', 'Risk']","[-0.15, 0.5]","[0.15, 0.5]",1,1,,,,,,,,,,,,,,,,,0,1,1,1,0,4,4,5,,,,,,,,,,,,,,,,,,,,,,,,,,,,,,,,,,,,,,,,,,,,,,,1544.947561904999,None,1544.947561904999,None,1544.947561904999,None,r,1,0.7753607790000387,1546.4810628939995,None,1546.4810628939995,None,1546.4810628939995,None,1547.314228651001,None,1547.314228651001,None,1547.314228651001,None,1547.314228651001,None,,,,,,,,,,,,,,,,,,,,,,,,,,,,,,,,,,,,,,,,,,,,001,92,2020_Feb_06_1344,spring_faces,3.1.5,59.964885521660776,
condition files/Stage2_2.xlsx,,B3,T3,s,"['s', 'r']","['Stratego', 'Risk']","[-0.15, 0.5]","[0.15, 0.5]",1,1,,,,,,,,,,,,,,,,,0,1,1,1,0,5,5,4,,,,,,,,,,,,,,,,,,,,,,,,,,,,,,,,,,,,,,,,,,,,,,,1549.281337176999,None,1549.281337176999,None,1549.281337176999,None,s,1,0.8087172089981323,1550.8316933649985,None,1550.8316933649985,None,1550.8316933649985,None,1551.7003001949997,None,1551.7003001949997,None,1551.7003001949997,None,1551.7003001949997,None,,,,,,,,,,,,,,,,,,,,,,,,,,,,,,,,,,,,,,,,,,,,001,92,2020_Feb_06_1344,spring_faces,3.1.5,59.964885521660776,
condition files/Stage2_1.xlsx,,B4,T4,r,"['s', 'r']","['Stratego', 'Risk']","[-0.15, 0.5]","[0.15, 0.5]",1,1,,,,,,,,,,,,,,,,,0,2,2,2,0,0,0,5,,,,,,,,,,,,,,,,,,,,,,,,,,,,,,,,,,,,,,,,,,,,,,,1553.6817441519997,None,1553.6817441519997,None,1553.6817441519997,None,r,1,1.0166763529996388,1555.2316051199996,None,1555.2316051199996,None,1555.2316051199996,None,1556.3160571340013,None,1556.3160571340013,None,1556.3160571340013,None,1556.3160571340013,None,,,,,,,,,,,,,,,,,,,,,,,,,,,,,,,,,,,,,,,,,,,,001,92,2020_Feb_06_1344,spring_faces,3.1.5,59.964885521660776,
condition files/Stage2_1.xlsx,,T5,B5,s,"['s', 'r']","['Stratego', 'Risk']","[-0.15, 0.5]","[0.15, 0.5]",1,1,,,,,,,,,,,,,,,,,0,2,2,2,0,1,1,0,,,,,,,,,,,,,,,,,,,,,,,,,,,,,,,,,,,,,,,,,,,,,,,1558.2805444240003,None,1558.2805444240003,None,1558.2805444240003,None,r,0,1.3599059620028129,1559.8164298849988,None,1559.8164298849988,None,1559.8164298849988,None,1561.247973862999,None,1561.247973862999,None,1561.247973862999,None,1561.247973862999,None,,,,,,,,,,,,,,,,,,,,,,,,,,,,,,,,,,,,,,,,,,,,001,92,2020_Feb_06_1344,spring_faces,3.1.5,59.964885521660776,
condition files/Stage2_1.xlsx,,T1,B1,s,"['s', 'r']","['Stratego', 'Risk']","[-0.15, 0.5]","[0.15, 0.5]",1,1,,,,,,,,,,,,,,,,,0,2,2,2,0,2,2,2,,,,,,,,,,,,,,,,,,,,,,,,,,,,,,,,,,,,,,,,,,,,,,,1563.1974906350006,None,1563.1974906350006,None,1563.1974906350006,None,s,1,1.739306322997436,1564.7331146830002,None,1564.7331146830002,None,1564.7331146830002,None,1566.5313294650005,None,1566.5313294650005,None,1566.5313294650005,None,1566.5313294650005,None,,,,,,,,,,,,,,,,,,,,,,,,,,,,,,,,,,,,,,,,,,,,001,92,2020_Feb_06_1344,spring_faces,3.1.5,59.964885521660776,
condition files/Stage2_1.xlsx,,T3,B3,s,"['s', 'r']","['Stratego', 'Risk']","[-0.15, 0.5]","[0.15, 0.5]",1,1,,,,,,,,,,,,,,,,,0,2,2,2,0,3,3,4,,,,,,,,,,,,,,,,,,,,,,,,,,,,,,,,,,,,,,,,,,,,,,,1568.4979660179997,None,1568.4979660179997,None,1568.4979660179997,None,s,1,2.3277546659992367,1570.032581110001,None,1570.032581110001,None,1570.032581110001,None,1572.4144800409995,None,1572.4144800409995,None,1572.4144800409995,None,1572.4144800409995,None,,,,,,,,,,,,,,,,,,,,,,,,,,,,,,,,,,,,,,,,,,,,001,92,2020_Feb_06_1344,spring_faces,3.1.5,59.964885521660776,
condition files/Stage2_1.xlsx,,B6,T6,r,"['s', 'r']","['Stratego', 'Risk']","[-0.15, 0.5]","[0.15, 0.5]",1,1,,,,,,,,,,,,,,,,,0,2,2,2,0,4,4,1,,,,,,,,,,,,,,,,,,,,,,,,,,,,,,,,,,,,,,,,,,,,,,,1574.3812594980009,None,1574.3812594980009,None,1574.3812594980009,None,r,1,0.7481468550031423,1575.9161918550017,None,1575.9161918550017,None,1575.9161918550017,None,1576.716031041,None,1576.716031041,None,1576.716031041,None,1576.716031041,None,,,,,,,,,,,,,,,,,,,,,,,,,,,,,,,,,,,,,,,,,,,,001,92,2020_Feb_06_1344,spring_faces,3.1.5,59.964885521660776,
condition files/Stage2_1.xlsx,,B2,T2,r,"['s', 'r']","['Stratego', 'Risk']","[-0.15, 0.5]","[0.15, 0.5]",1,1,,,,,,,,,,,,,,,,,0,2,2,2,0,5,5,3,,,,,,,,,,,,,,,,,,,,,,,,,,,,,,,,,,,,,,,,,,,,,,,1578.6812538999984,None,1578.6812538999984,None,1578.6812538999984,None,s,0,1.7118827790000068,1580.2164500229992,None,1580.2164500229992,None,1580.2164500229992,None,1581.9812311489986,None,1581.9812311489986,None,1581.9812311489986,None,1581.9812311489986,None,,,,,,,,,,,,,,,,,,,,,,,,,,,,,,,,,,,,,,,,,,,,001,92,2020_Feb_06_1344,spring_faces,3.1.5,59.964885521660776,
condition files/Stage2_2.xlsx,,B1,T1,s,"['s', 'r']","['Stratego', 'Risk']","[-0.15, 0.5]","[0.15, 0.5]",1,1,,,,,,,,,,,,,,,,,0,3,3,3,0,0,0,2,,,,,,,,,,,,,,,,,,,,,,,,,,,,,,,,,,,,,,,,,,,,,,,1583.9649982560004,None,1583.9649982560004,None,1583.9649982560004,None,s,1,0.9884620570010156,1585.4999748619994,None,1585.4999748619994,None,1585.4999748619994,None,1586.5482941359987,None,1586.5482941359987,None,1586.5482941359987,None,1586.5482941359987,None,,,,,,,,,,,,,,,,,,,,,,,,,,,,,,,,,,,,,,,,,,,,001,92,2020_Feb_06_1344,spring_faces,3.1.5,59.964885521660776,
condition files/Stage2_2.xlsx,,B3,T3,s,"['s', 'r']","['Stratego', 'Risk']","[-0.15, 0.5]","[0.15, 0.5]",1,1,,,,,,,,,,,,,,,,,0,3,3,3,0,1,1,4,,,,,,,,,,,,,,,,,,,,,,,,,,,,,,,,,,,,,,,,,,,,,,,1588.5146201280004,None,1588.5146201280004,None,1588.5146201280004,None,s,1,1.4645877500006463,1590.0477520610002,None,1590.0477520610002,None,1590.0477520610002,None,1591.5648858749992,None,1591.5648858749992,None,1591.5648858749992,None,1591.5648858749992,None,,,,,,,,,,,,,,,,,,,,,,,,,,,,,,,,,,,,,,,,,,,,001,92,2020_Feb_06_1344,spring_faces,3.1.5,59.964885521660776,
condition files/Stage2_2.xlsx,,T4,B4,r,"['s', 'r']","['Stratego', 'Risk']","[-0.15, 0.5]","[0.15, 0.5]",1,1,,,,,,,,,,,,,,,,,0,3,3,3,0,2,2,5,,,,,,,,,,,,,,,,,,,,,,,,,,,,,,,,,,,,,,,,,,,,,,,1593.531203513001,None,1593.531203513001,None,1593.531203513001,None,r,1,1.3915092970019032,1595.064902913,None,1595.064902913,None,1595.064902913,None,1596.5145316439994,None,1596.5145316439994,None,1596.5145316439994,None,1596.5145316439994,None,,,,,,,,,,,,,,,,,,,,,,,,,,,,,,,,,,,,,,,,,,,,001,92,2020_Feb_06_1344,spring_faces,3.1.5,59.964885521660776,
condition files/Stage2_2.xlsx,,B5,T5,s,"['s', 'r']","['Stratego', 'Risk']","[-0.15, 0.5]","[0.15, 0.5]",1,1,,,,,,,,,,,,,,,,,0,3,3,3,0,3,3,0,,,,,,,,,,,,,,,,,,,,,,,,,,,,,,,,,,,,,,,,,,,,,,,1598.4810921460012,None,1598.4810921460012,None,1598.4810921460012,None,r,0,0.8406684800029325,1600.0317185169988,None,1600.0317185169988,None,1600.0317185169988,None,1600.9483838390006,None,1600.9483838390006,None,1600.9483838390006,None,1600.9483838390006,None,,,,,,,,,,,,,,,,,,,,,,,,,,,,,,,,,,,,,,,,,,,,001,92,2020_Feb_06_1344,spring_faces,3.1.5,59.964885521660776,
condition files/Stage2_2.xlsx,,T2,B2,r,"['s', 'r']","['Stratego', 'Risk']","[-0.15, 0.5]","[0.15, 0.5]",1,1,,,,,,,,,,,,,,,,,0,3,3,3,0,4,4,3,,,,,,,,,,,,,,,,,,,,,,,,,,,,,,,,,,,,,,,,,,,,,,,1602.8979410899992,None,1602.8979410899992,None,1602.8979410899992,None,r,1,1.3681346890007262,1604.4321803509993,None,1604.4321803509993,None,1604.4321803509993,None,1605.8667685159999,None,1605.8667685159999,None,1605.8667685159999,None,1605.8667685159999,None,,,,,,,,,,,,,,,,,,,,,,,,,,,,,,,,,,,,,,,,,,,,001,92,2020_Feb_06_1344,spring_faces,3.1.5,59.964885521660776,
condition files/Stage2_2.xlsx,,T6,B6,r,"['s', 'r']","['Stratego', 'Risk']","[-0.15, 0.5]","[0.15, 0.5]",1,1,,,,,,,,,,,,,,,,,0,3,3,3,0,5,5,1,,,,,,,,,,,,,,,,,,,,,,,,,,,,,,,,,,,,,,,,,,,,,,,1607.8308631299988,None,1607.8308631299988,None,1607.8308631299988,None,r,1,0.8508291290017951,1609.381481550001,None,1609.381481550001,None,1609.381481550001,None,1610.2984041620002,None,1610.2984041620002,None,1610.2984041620002,None,1610.2984041620002,None,,,,,,,,,,,,,,,,,,,,,,,,,,,,,,,,,,,,,,,,,,,,001,92,2020_Feb_06_1344,spring_faces,3.1.5,59.964885521660776,
condition files/Stage2_1.xlsx,,B4,T4,r,"['s', 'r']","['Stratego', 'Risk']","[-0.15, 0.5]","[0.15, 0.5]",1,1,,,,,,,,,,,,,,,,,0,4,4,4,0,0,0,5,,,,,,,,,,,,,,,,,,,,,,,,,,,,,,,,,,,,,,,,,,,,,,,1612.2812494270001,None,1612.2812494270001,None,1612.2812494270001,None,r,1,1.1527927460010687,1613.8315657819985,None,1613.8315657819985,None,1613.8315657819985,None,1615.0481000990003,None,1615.0481000990003,None,1615.0481000990003,None,1615.0481000990003,None,,,,,,,,,,,,,,,,,,,,,,,,,,,,,,,,,,,,,,,,,,,,001,92,2020_Feb_06_1344,spring_faces,3.1.5,59.964885521660776,
condition files/Stage2_1.xlsx,,T3,B3,s,"['s', 'r']","['Stratego', 'Risk']","[-0.15, 0.5]","[0.15, 0.5]",1,1,,,,,,,,,,,,,,,,,0,4,4,4,0,1,1,4,,,,,,,,,,,,,,,,,,,,,,,,,,,,,,,,,,,,,,,,,,,,,,,1617.014710284002,None,1617.014710284002,None,1617.014710284002,None,s,1,1.010583013001451,1618.5497485990018,None,1618.5497485990018,None,1618.5497485990018,None,1619.631112736999,None,1619.631112736999,None,1619.631112736999,None,1619.631112736999,None,,,,,,,,,,,,,,,,,,,,,,,,,,,,,,,,,,,,,,,,,,,,001,92,2020_Feb_06_1344,spring_faces,3.1.5,59.964885521660776,
condition files/Stage2_1.xlsx,,T1,B1,s,"['s', 'r']","['Stratego', 'Risk']","[-0.15, 0.5]","[0.15, 0.5]",1,1,,,,,,,,,,,,,,,,,0,4,4,4,0,2,2,2,,,,,,,,,,,,,,,,,,,,,,,,,,,,,,,,,,,,,,,,,,,,,,,1621.5809823199997,None,1621.5809823199997,None,1621.5809823199997,None,s,1,1.323379665001994,1623.1170390379993,None,1623.1170390379993,None,1623.1170390379993,None,1624.4975134250017,None,1624.4975134250017,None,1624.4975134250017,None,1624.4975134250017,None,,,,,,,,,,,,,,,,,,,,,,,,,,,,,,,,,,,,,,,,,,,,001,92,2020_Feb_06_1344,spring_faces,3.1.5,59.964885521660776,
